timestamp,imu_accel_x,imu_accel_y,imu_gyro_z,gps_lat,gps_lng,odom_x,odom_y,odom_heading,odom_vx,odom_vy,ekf_x,ekf_y,ekf_heading,map_matched_lat,map_matched_lng,distance_to_path,progress
2025-04-30 00:19:15.875421,0.13654610908203102,-0.05530605834960933,0.052076335877862645,,,0.0,0.0,3.141592653589793,0.0,0.0,0.0,0.0,3.141592653589793,,,,
2025-04-30 00:19:15.887846,0.13175770576171875,0.04764461303710943,-0.02425954198473279,,,-1.9933119331223502e-05,-7.207852691210241e-06,3.1415873928583102,-0.0016043129764824143,-0.0005801225293910133,0.0,0.0,3.141592653589793,,,,
2025-04-30 00:19:15.900959,-0.1603348967773437,0.009337386474609355,-0.12349618320610678,,,-1.3528980034977037e-05,-1.623801055011705e-05,3.141559126798615,0.0004883446125155212,-0.0006885904157560227,-2.103892110787361e-05,-7.607712651878189e-06,3.1415871010160688,,,,
2025-04-30 00:19:15.912752,-0.033442208789062455,-0.17262193969726558,-0.11586259541984723,,,-3.3268352263152713e-06,-6.71893772451273e-07,3.141535280837697,0.000865161681753928,0.0013200369159933416,-1.5280272107939967e-05,-1.5727696793059392e-05,3.14156168396799,,,,
2025-04-30 00:19:15.924736,0.004865017773437508,0.009337386474609355,0.06734351145038175,,,-3.3268352263152713e-06,-6.71893772451273e-07,3.1415493671135026,0.0006921293454031424,0.0010560295327946734,-4.9116669098606906e-06,9.240009458568504e-08,3.1415374489312438,,,,
2025-04-30 00:19:15.937033,0.03359543769531248,0.021308394775390593,0.021541984732824482,,,-3.3268352263152713e-06,-6.71893772451273e-07,3.141553990310649,0.0005537034763225139,0.0008448236262357388,3.59905882417458e-06,1.3077802000094985e-05,3.141551901746703,,,,
2025-04-30 00:19:15.949561,-0.0095001921875002,0.016519991455078098,0.2734503816793894,,,-3.3268352263152713e-06,-6.71893772451273e-07,3.141613784702442,0.0004429627810580111,0.0006758589009885911,1.0536220264373427e-05,2.3662308210198457e-05,3.1415566122534764,,,,
2025-04-30 00:19:15.961919,0.07669106757812516,-0.01699883178710937,0.15894656488549624,,,-9.43960215299525e-06,1.0056266719561149e-05,3.141648066074649,-0.0004946615494904892,0.0008681516170687363,1.601012103671081e-05,3.2014216583349205e-05,3.1416155896483082,,,,
2025-04-30 00:19:15.974555,0.03120123603515612,-0.00023942016601563587,-0.10822900763358778,,,-9.43960215299525e-06,1.0056266719561149e-05,3.141624197371974,-0.0003957292395923914,0.0006945212936549891,9.759604273632492e-06,4.298413377414557e-05,3.141650643543575,,,,
2025-04-30 00:19:15.987973,0.03838384101562475,0.021308394775390593,-0.24563358778625943,,,-9.43960215299525e-06,1.0056266719561149e-05,3.14156667099538,-0.00031658339167391314,0.0005556170349239913,4.449536778882617e-06,5.230352333870656e-05,3.1416252967548575,,,,
2025-04-30 00:19:16.001574,0.03598963935546884,-0.007422025146484379,0.20474809160305352,,,-9.43960215299525e-06,1.0056266719561149e-05,3.1416152722294295,-0.00025326671333913053,0.00044449362793919306,1.4389202956385056e-07,5.986010916086065e-05,3.141566990494726,,,,
2025-04-30 00:19:16.014233,-0.014288595507812474,0.021308394775390593,-0.17693129770992355,,,-9.43960215299525e-06,1.0056266719561149e-05,3.141576179849598,-0.00020261337067130445,0.0003555949023513545,-3.062290135145196e-06,6.54870923653893e-05,3.1416122289023467,,,,
2025-04-30 00:19:16.027005,-0.0909030486328124,0.0045489831542968595,0.021541984732824482,,,2.5574284594349144e-06,1.3779846143045744e-05,3.141580982058372,0.0009392815927319923,0.000291529606328663,-5.650181593085089e-06,7.002894963390554e-05,3.1415727868063277,,,,
2025-04-30 00:19:16.039894,-0.043019015429687446,-0.009816226806640627,-0.008992366412213681,,,2.5574284594349144e-06,1.3779846143045744e-05,3.1415789592280015,0.0007514252741855939,0.00023322368506293041,6.455908862327483e-06,7.378637851567501e-05,3.1415776326699154,,,,
2025-04-30 00:19:16.053499,-0.023865402148437465,0.02609679809570309,-0.154030534351145,,,2.5574284594349144e-06,1.3779846143045744e-05,3.1415423834050373,0.0006011402193484752,0.00018657894805034435,1.667931738765157e-05,7.695946982906482e-05,3.141575497358217,,,,
2025-04-30 00:19:16.066571,-0.035836410449218814,-0.005027823486328131,-0.039526717557251845,,,2.5574284594349144e-06,1.3779846143045744e-05,3.1415333657259668,0.00048091217547878017,0.0001492631584402755,2.4537144017766956e-05,7.939834345525123e-05,3.141540356622743,,,,
2025-04-30 00:19:16.080374,-0.0023175872070311243,-0.0026336218261718836,-0.3143358778625953,,,2.5574284594349144e-06,1.3779846143045744e-05,3.1414576397335923,0.00038472974038302414,0.00011941052675222041,3.1175177285543565e-05,8.145862361013302e-05,3.141530834324707,,,,
2025-04-30 00:19:16.093014,0.04556644599609383,0.002154781494140612,-0.14639694656488544,,,2.5574284594349144e-06,1.3779846143045744e-05,3.1414253425515883,0.0003077837923064193,9.552842140177633e-05,3.6038252695882634e-05,8.29680010650868e-05,3.1414614875022777,,,,
2025-04-30 00:19:16.106108,0.12696930244140603,-0.17741034301757808,-0.1692977099236641,,,-1.4820621226539207e-05,4.481898882191579e-05,3.1413866525208256,-0.0013271817791347415,0.002370495271204577,4.006835777969834e-05,8.421884528224073e-05,3.14142803104047,,,,
2025-04-30 00:19:16.119498,-0.031048007128906097,-0.019393033447265617,0.3039847328244275,,,-1.4820621226539207e-05,4.481898882191579e-05,3.141457690173304,-0.0010617454233077933,0.0018963962169636615,2.2298257773969632e-05,0.00011595823373276263,3.141388468159232,,,,
2025-04-30 00:19:16.133347,-0.0095001921875002,-0.0026336218261718836,-0.03189312977099229,,,-1.4820621226539207e-05,4.481898882191579e-05,3.1414499808549614,-0.0008493963386462347,0.0015171169735709294,7.593364747629693e-06,0.00014222281928579338,3.1414619484069655,,,,
2025-04-30 00:19:16.146024,0.0072592194335938665,0.030885201416015584,-0.17693129770992355,,,-1.4820621226539207e-05,4.481898882191579e-05,3.1414108354655186,-0.0006795170709169878,0.0012136935788567436,-3.17398877025591e-06,0.00016145451836335016,3.141454892171005,,,,
2025-04-30 00:19:16.158716,0.0072592194335938665,0.018914193115234346,-0.07769465648854956,,,-1.4820621226539207e-05,4.481898882191579e-05,3.1413936238281215,-0.0005436136567335902,0.0009709548630853949,-1.1798888230191976e-05,0.000176859554588096,3.141415696716929,,,,
2025-04-30 00:19:16.172300,0.02162442939453113,-0.007422025146484379,-0.16166412213740455,,,-1.4820621226539207e-05,4.481898882191579e-05,3.1413552972364496,-0.0004348909253868722,0.000776763890468316,-1.918302177537202e-05,0.00019004844395199624,3.141397277222641,,,,
2025-04-30 00:19:16.185154,0.06232585761718745,-0.005027823486328131,-0.21509923664122133,,,-3.0391201989714194e-05,5.5421112988559586e-05,3.141307039611741,-0.0012113094533489363,0.0008247896095826899,-2.4773256589594646e-05,0.0002000332293072302,3.1413610077934377,,,,
2025-04-30 00:19:16.198428,0.016836026074218857,-0.005027823486328131,0.22764885496183213,,,-3.0391201989714194e-05,5.5421112988559586e-05,3.141359778085539,-0.0009690475626791492,0.0006598316876661519,-4.085154542995894e-05,0.00021098105567706344,3.141311176638093,,,,
2025-04-30 00:19:16.211240,-0.13878708183593735,-0.00023942016601563587,-0.09296183206106867,,,-2.0232676929905066e-05,6.3738586523628e-05,3.1413389909066134,0.0007928976737156458,0.0006491991089571723,-5.3266885108649244e-05,0.0002194347527386298,3.1413620811585337,,,,
2025-04-30 00:19:16.223797,-0.15554649345703142,0.03806780639648444,-0.27616793893129765,,,1.3559769022412668e-05,6.583749167024933e-05,3.1412784643741,0.00269106668491124,0.00016714663753050982,-4.331025641007867e-05,0.00022758692002780706,3.14134170711594,,,,
2025-04-30 00:19:16.237255,-0.06456683037109379,0.03327940307617183,0.18184732824427485,,,6.050955286492343e-05,6.213207036608872e-05,3.141321177126588,0.0034886735316900803,-0.00027533684225146247,-7.094486142472927e-06,0.00022983634188708266,3.141276840103955,,,,
2025-04-30 00:19:16.250749,-0.0095001921875002,0.01412578979492185,-0.07006106870229001,,,6.050955286492343e-05,6.213207036608872e-05,3.141304676694937,0.0027909388253520642,-0.00022026947380117,3.9981725917166807e-05,0.00022612094247927907,3.141319667875016,,,,
2025-04-30 00:19:16.263923,-0.011894393847656115,0.030885201416015584,-0.039526717557251845,,,6.050955286492343e-05,6.213207036608872e-05,3.1412955881257836,0.0022327510602816515,-0.00017621557904093601,7.675037851661572e-05,0.00022321904735822173,3.1413035583949678,,,,
2025-04-30 00:19:16.276281,0.12696930244140603,-0.0026336218261718836,0.09787786259541992,,,6.854681703165914e-05,6.039731247486328e-05,3.141316699915077,0.0006503468552830376,-0.0001403704439509685,0.00010434366961084719,0.0002210412999799709,3.141295032670045,,,,
2025-04-30 00:19:16.290056,0.03838384101562475,0.02609679809570309,0.1742137404580153,,,6.854681703165914e-05,6.039731247486328e-05,3.1413585816620078,0.0005202774842264301,-0.00011229635516077481,0.00011330164902060549,0.00021910781550712886,3.1413185629372937,,,,
2025-04-30 00:19:16.303071,0.026412832714843848,0.009337386474609355,-0.48990839694656485,0.0,0.0,6.854681703165914e-05,6.039731247486328e-05,3.141247290327175,0.0004162219873811441,-8.983708412861986e-05,0.00012007344916167521,0.00021764619455143822,3.1413581386617406,,,,
2025-04-30 00:19:16.316294,0.016836026074218857,0.06440402465820316,0.12077862595419853,0.0,0.0,7.105208547803287e-05,4.8198928956936435e-05,3.14127516356451,0.00018946731816983593,-0.0009225338763572778,0.0001255770253021167,0.00021645830624249034,3.1412450778207783,,,,
2025-04-30 00:19:16.328752,7.661445312479032e-05,0.028490999755859336,-0.337236641221374,0.0,0.0,7.105208547803287e-05,4.8198928956936435e-05,3.141201839450377,0.00015157385453586875,-0.0007380271010858223,0.0001279373351036218,0.00020496573975862457,3.1412713382701836,,,,
2025-04-30 00:19:16.341330,-0.004711788867187483,-0.005027823486328131,0.1894809160305344,0.0,0.0,7.105208547803287e-05,4.8198928956936435e-05,3.1412434357596135,0.000121259083628695,-0.0005904216808686578,0.00012984383264645472,0.0001956828270882784,3.1411973054867874,,,,
2025-04-30 00:19:16.354078,0.019230227734374772,-0.02657563842773436,-0.09296183206106867,0.0,0.0,7.105208547803287e-05,4.8198928956936435e-05,3.141222751091107,9.700726690295601e-05,-0.0004723373446949263,0.00013138973054031115,0.00018815570742327346,3.1412394663376384,,,,
2025-04-30 00:19:16.367073,7.661445312479032e-05,-0.0026336218261718836,0.22764885496183213,0.0,0.0,7.105208547803287e-05,4.8198928956936435e-05,3.1412743802883654,7.760581352236482e-05,-0.00037786987575594104,0.00013265027104017595,0.00018201801927273338,3.141218383232407,,,,
2025-04-30 00:19:16.379687,-0.14357548515625007,0.02370259643554684,-0.039526717557251845,0.0,0.0,9.440068412787478e-05,3.982382784330686e-05,3.141265677749431,0.001850900032345994,-0.0006639145738291624,0.00013362924719294606,0.00017725129394089123,3.141268504344053,,,,
2025-04-30 00:19:16.392106,-0.01907699882812519,0.009337386474609355,-0.2685343511450381,0.0,0.0,9.440068412787478e-05,3.982382784330686e-05,3.1412074756944985,0.0014807200258767953,-0.00053113165906333,0.0001566142237432327,0.00016900662343239547,3.141259937335114,,,,
2025-04-30 00:19:16.404717,-0.047807418750000163,-0.1630451330566406,-0.1692977099236641,0.0,0.0,0.00012016406536899748,5.867039680738344e-05,3.1411702108263766,0.0020428276271464525,0.0014943803919372038,0.00017528851325796622,0.00016230818875301293,3.1412008290507427,,,,
2025-04-30 00:19:16.417506,7.661445312479032e-05,-0.005027823486328131,-0.047160305343511344,0.0,0.0,0.00012016406536899748,5.867039680738344e-05,3.1411596843543554,0.001634262101717162,0.0011955043135497632,0.00020141377120782767,0.0001814194797380039,3.1411630407541273,,,,
2025-04-30 00:19:16.431700,-0.045413217089843805,-0.0026336218261718836,-0.0547938931297709,0.0,0.0,0.00012016406536899748,5.867039680738344e-05,3.1411461096845645,0.0013074096813737298,0.0009564034508398106,0.00022461128585813268,0.00019838905199874102,3.1411513572336527,,,,
2025-04-30 00:19:16.447701,-0.033442208789062455,-0.01699883178710937,-0.10822900763358778,0.0,0.0,0.00012016406536899748,5.867039680738344e-05,3.1411158850317613,0.001045927745098984,0.0007651227606718485,0.00024553081828505114,0.00021369222229654524,3.141136055177099,,,,
2025-04-30 00:19:16.461506,-0.021471200488281106,0.002154781494140612,-0.13112977099236633,0.0,0.0,0.00012016406536899748,5.867039680738344e-05,3.141084291016022,0.0008367421960791872,0.0006120982085374788,0.0002599695099890803,0.00022425449269126643,3.1411099788029486,,,,
2025-04-30 00:19:16.474370,0.11739249580078104,0.009337386474609355,-0.27616793893129765,0.0,0.0,0.00011167417290731443,6.488348984464208e-05,3.141022286628968,-0.0006599794256622565,0.00048298769305061775,0.00027073325653426453,0.00023212844718804103,3.141080537944946,,,,
2025-04-30 00:19:16.490263,0.028807034374999763,0.002154781494140612,0.1665801526717558,0.0,0.0,0.00011167417290731443,6.488348984464208e-05,3.141068495522857,-0.0005279835405298053,0.0003863901544404942,0.0002602437430290625,0.00023980490759287418,3.1410039296889143,,,,
2025-04-30 00:19:16.502876,0.1293635041015624,-0.019393033447265617,0.021541984732824482,0.0,0.0,8.4983372043857e-05,7.269295909082305e-05,3.1410732374933668,-0.0021162444768393763,0.0006191925916282387,0.0002535846336049419,0.00024467819268854255,3.141040598462998,,,,
2025-04-30 00:19:16.517727,-0.12681607353515645,0.009337386474609355,-0.0547938931297709,0.0,0.0,8.159283514399274e-05,7.967188694756898e-05,3.1410590348902145,-0.00022830217500799922,0.0004699268747031765,0.00022215608945022047,0.00025387387963267513,3.141046182155683,,,,
2025-04-30 00:19:16.530363,0.0072592194335938665,0.028490999755859336,0.07497709923664125,0.0,0.0,8.159283514399274e-05,7.967188694756898e-05,3.1410755705666937,-0.00018264174000639938,0.0003759414997625412,0.00021927122100114669,0.00025981196241333873,3.1410340977445887,,,,
2025-04-30 00:19:16.543001,-0.021471200488281106,-0.007422025146484379,-0.039526717557251845,0.0,0.0,8.159283514399274e-05,7.967188694756898e-05,3.1410668519089007,-0.00014611339200511952,0.000300753199810033,0.00021696297788041457,0.00026456314568937516,3.141050635917019,,,,
2025-04-30 00:19:16.556829,0.002470816113281149,0.0045489831542968595,0.10551145038167947,0.0,0.0,8.159283514399274e-05,7.967188694756898e-05,3.141092316111067,-0.00011689071360409562,0.00024060255984802642,0.00021494255100875412,0.00026872190101149353,3.1410410965132556,,,,
2025-04-30 00:19:16.569712,0.009653421093749781,-0.00023942016601563587,0.029175572519084036,0.0,0.0,8.159283514399274e-05,7.967188694756898e-05,3.1410988763558274,-9.351257088327649e-05,0.00019248204787842115,0.00021343662616393817,0.00027182162862397655,3.1410648211870074,,,,
2025-04-30 00:19:16.582986,0.03598963935546884,0.11707646118164061,-0.03189312977099229,0.0,0.0,7.415226759283655e-05,6.196421409555326e-05,3.1410914878056455,-0.0005605590185922191,-0.0013340643233506536,0.00021219538915327212,0.00027437653476610055,3.1410715801718796,,,,
2025-04-30 00:19:16.596001,0.04077804267578111,0.030885201416015584,-0.0547938931297709,0.0,0.0,6.0230568698866215e-05,3.982501648488631e-05,3.1410790410902263,-0.001069663070541233,-0.0017010482898607933,0.00020489969569234735,0.00025701364515500207,3.141064335482966,,,,
2025-04-30 00:19:16.608558,0.059931655957031094,0.11707646118164061,0.4566564885496184,0.0,0.0,3.779716340724296e-05,8.013942422465024e-07,3.1411791283178605,-0.0017864198809264412,-0.0031075342193387845,0.00019146713963811825,0.00023565231453250598,3.1410523260864234,,,,
2025-04-30 00:19:16.621692,0.05753745429687518,0.04525041137695318,-0.19983206106870222,0.0,0.0,5.074784448488188e-06,-4.683987728559138e-05,3.141133322159681,-0.002491515175475093,-0.0036274548112822957,0.0001680051479558954,0.00019483943353806773,3.1411570023792876,,,,
2025-04-30 00:19:16.634360,0.10781568916015605,-0.00023942016601563587,0.021541984732824482,0.0,0.0,-4.281072845952355e-05,-9.182684130032941e-05,3.1411380849267343,-0.003780139997216842,-0.0035513250605072612,0.0001364434909316686,0.00014888808403334635,3.1411128210483437,,,,
2025-04-30 00:19:16.647195,0.0072592194335938665,-0.17741034301757808,0.19711450381679396,0.0,0.0,-9.151875501953153e-05,-0.00010785440355232403,3.141182241228665,-0.0037949301674173887,-0.0012487362719431972,8.792529658758398e-05,0.00010330673530246088,3.1411176467428694,,,,
2025-04-30 00:19:16.659671,0.08866207587890607,0.040462008056640686,-0.10822900763358778,0.0,0.0,-0.000151444175272546,-0.0001292880868263421,3.1411586747184748,-0.004803268419754234,-0.0017179976970445464,4.05798715061838e-05,8.772754227347594e-05,3.1411605677772982,,,,
2025-04-30 00:19:16.673045,0.09105627753906242,0.03327940307617183,-0.06242748091603045,0.0,0.0,-0.00023036250891010098,-0.00015763156192638708,3.1411441027767455,-0.005900837551463256,-0.0021192824848207327,-2.365947356897378e-05,6.47508861189116e-05,3.141135304755797,,,,
2025-04-30 00:19:16.686034,0.0072592194335938665,-0.019393033447265617,-0.3143358778625953,0.0,0.0,-0.00023036250891010098,-0.00015763156192638708,3.141072839718112,-0.004720670041170605,-0.0016954259878565862,-0.00010030852701832345,3.7222421721003595e-05,3.141121151827206,,,,
2025-04-30 00:19:16.698988,0.03838384101562475,0.021308394775390593,-0.03189312977099229,0.0,0.0,-0.00023036250891010098,-0.00015763156192638708,3.1410656291365284,-0.003776536032936484,-0.001356340790285269,-0.0001614589454612597,1.5260283360926682e-05,3.141050084970231,,,,
2025-04-30 00:19:16.711236,7.661445312479032e-05,0.03327940307617183,-0.08532824427480912,0.0,0.0,-0.00023036250891010098,-0.00015763156192638708,3.141047388991274,-0.0030212288263491874,-0.0010850726322282152,-0.00020771320660875403,-1.351908492058832e-06,3.141043267352869,,,,
2025-04-30 00:19:16.724720,0.14133451240234374,-0.04094084838867185,0.013908396946564927,0.0,0.0,-0.00029547008342882563,-0.000164661478278442,3.14105066237005,-0.004828249442779839,-0.0005213247454001913,-0.0002484536205581205,-1.5983805227773653e-05,3.14102318512018,,,,
2025-04-30 00:19:16.737119,-0.014288595507812474,0.030885201416015584,-0.016625954198473236,0.0,0.0,-0.00029547008342882563,-0.000164661478278442,3.141047064607961,-0.003862599554223871,-0.00041705979632015305,-0.00030831658131940054,-2.2447440370826268e-05,3.1410261948183096,,,,
2025-04-30 00:19:16.750143,-0.0023175872070311243,0.006943184814453107,0.021541984732824482,0.0,0.0,-0.00029547008342882563,-0.000164661478278442,3.1410519612975842,-0.0030900796433790973,-0.00033364783705612245,-0.0003586225112779904,-2.7879165976262755e-05,3.141022415587268,,,,
2025-04-30 00:19:16.762676,-0.021471200488281106,0.018914193115234346,-0.20746564885496177,0.0,0.0,-0.00029547008342882563,-0.000164661478278442,3.1410065782791725,-0.002472063714703278,-0.000266918269644898,-0.0003973517967024126,-3.2060916547085306e-05,3.141027127886847,,,,
2025-04-30 00:19:16.775198,0.009653421093749781,0.0045489831542968595,0.1513129770992367,0.0,0.0,-0.00029547008342882563,-0.000164661478278442,3.1410396470731583,-0.0019776509717626223,-0.0002135346157159184,-0.0004283063451319533,-3.540319872828868e-05,3.1409817871703227,,,,
2025-04-30 00:19:16.788610,-0.011894393847656115,0.009337386474609355,0.0597099236641222,0.0,0.0,-0.00029547008342882563,-0.000164661478278442,3.141053624431774,-0.001582120777410098,-0.00017082769257273473,-0.00045483106899949036,-3.8267175637711316e-05,3.1410172076769047,,,,
2025-04-30 00:19:16.801401,-0.0095001921875002,-0.024181436767578113,-0.2990687022900763,0.0,0.0,-0.00029547008342882563,-0.000164661478278442,3.140986859246195,-0.0012656966219280784,-0.0001366621540581878,-0.0004750678466835291,-4.0452218705365604e-05,3.1410305375375818,,,,
2025-04-30 00:19:16.813967,0.03838384101562475,0.009337386474609355,0.11314503816793897,0.0,0.0,-0.00029547008342882563,-0.000164661478278442,3.141011673704206,-0.0010125572975424628,-0.00010932972324655024,-0.000490972402113636,-4.2169494999510425e-05,3.140964947142496,,,,
2025-04-30 00:19:16.826726,-0.0023175872070311243,-0.009816226806640627,0.12077862595419853,0.0,0.0,-0.00029547008342882563,-0.000164661478278442,3.1410385704233272,-0.0008100458380339702,-8.74637785972402e-05,-0.0005038920733850985,-4.356448181948953e-05,3.140990143904651,,,,
2025-04-30 00:19:16.840812,-0.16272909843750005,0.006943184814453107,0.13604580152671764,0.0,0.0,-0.0002750115428354262,-0.00016723534432322952,3.14107201633922,0.0014524261788262949,-0.00018272810844814676,-0.0005153021924682758,-4.4796476457819266e-05,3.1410198364914117,,,,
2025-04-30 00:19:16.853627,0.03838384101562475,-0.15586252807617185,0.25054961832061073,0.0,0.0,-0.0002629367893573903,-0.00014444283478537453,3.1411280552489265,0.0009422360337105105,0.001778580724179783,-0.0004966893529812207,-4.7138136916643396e-05,3.1410502650286363,,,,
2025-04-30 00:19:16.866344,-0.15315229179687506,-0.014604630126953122,-0.0547938931297709,0.0,0.0,-0.00022692239475446632,-0.00011997489275324806,3.1411158939992183,0.0028320925312751446,0.0019241049766037864,-0.00048470737853921134,-2.4520758661376948e-05,3.1411058733509996,,,,
2025-04-30 00:19:16.878856,0.009653421093749781,-0.012210428466796874,-0.19983206106870222,0.0,0.0,-0.00022692239475446632,-0.00011997489275324806,3.141072255663251,0.002265674025020116,0.0015392839812830292,-0.00044927232567971704,-4.4641758662650085e-07,3.1410939077319466,,,,
2025-04-30 00:19:16.892287,0.13894031074218738,0.03327940307617183,0.06734351145038175,0.0,0.0,-0.00022166655812143598,-0.0001055849233333797,3.141088042369191,0.000391312267919866,0.0010713749231850815,-0.00041884135400968353,2.0228183750229256e-05,3.1410470629815377,,,,
2025-04-30 00:19:16.905109,0.03359543769531248,0.018914193115234346,0.20474809160305352,0.0,0.0,-0.00022166655812143598,-0.0001055849233333797,3.1411338609857804,0.0003130498143358928,0.0008570999385480653,-0.0004138240755424588,3.39650041187689e-05,3.141062133141688,,,,
2025-04-30 00:19:16.918145,0.028807034374999763,0.03567360473632819,-0.19219847328244266,0.0,0.0,-0.00022166655812143598,-0.0001055849233333797,3.1410901317311963,0.00025043985146871425,0.0006856799508384523,-0.0004097431542028412,4.513816975959812e-05,3.141108717702275,,,,
2025-04-30 00:19:16.930710,0.04556644599609383,0.11947066284179686,0.3497862595419848,0.0,0.0,-0.00022564082194840071,-0.00011562366796069325,3.1411668409049605,-0.0003162929427060366,-0.0007989364112428327,-0.0004065963434203838,5.375383156405677e-05,3.1410665680017593,,,,
2025-04-30 00:19:16.943714,0.019230227734374772,0.01412578979492185,0.19711450381679396,0.0,0.0,-0.00022564082194840071,-0.00011562366796069325,3.1412115787504895,-0.00025303435416482926,-0.0006391491289942662,-0.00041070943726718545,4.3364410892970975e-05,3.1411459568003743,,,,
2025-04-30 00:19:16.961125,0.12457510078125011,0.030885201416015584,-0.20746564885496177,0.0,0.0,-0.00026697111260906266,-0.0001356882585048258,3.1411485342625682,-0.0023738042564965963,-0.0011524092784534119,-0.0004151150167820692,3.2236189513913976e-05,3.1412058557909956,,,,
2025-04-30 00:19:16.978548,-0.06217262871093743,0.011731588134765603,-0.1387633587786259,0.0,0.0,-0.0002890087900565795,-0.00015886473709836508,3.1411063369432455,-0.001264832833903442,-0.0013301933095799918,-0.0004564747373127019,1.2157311669080391e-05,3.1411427664112757,,,,
2025-04-30 00:19:16.993646,-0.023865402148437465,0.028490999755859336,-0.06242748091603045,0.0,0.0,-0.0002890087900565795,-0.00015886473709836508,3.141089887105683,-0.0010118662671227535,-0.0010641546476639935,-0.0004755707004031459,-7.92543892216035e-06,3.141106201829812,,,,
2025-04-30 00:19:17.007164,-0.011894393847656115,0.01412578979492185,0.1665801526717558,0.0,0.0,-0.0002890087900565795,-0.00015886473709836508,3.141129188545248,-0.0008094930136982028,-0.0008513237181311949,-0.0004892489634983641,-2.231052884727143e-05,3.1410914732452295,,,,
2025-04-30 00:19:17.020535,-0.15554649345703142,-0.00023942016601563587,-0.3143358778625953,0.0,0.0,-0.00027236385596175874,-0.0001699926015516446,3.1410558339769277,0.001244876404729643,-0.0008322541749941697,-0.0005000724941011074,-3.369336743896997e-05,3.141130346997959,,,,
2025-04-30 00:19:17.033667,-0.0023175872070311243,0.01412578979492185,-0.07006106870229001,0.0,0.0,-0.00027236385596175874,-0.0001699926015516446,3.141039775224381,0.0009959011237837144,-0.0006658033399953358,-0.0004837237680665322,-4.4623203884111725e-05,3.141058297824677,,,,
2025-04-30 00:19:17.046083,-0.05259582207031244,0.002154781494140612,-0.039526717557251845,0.0,0.0,-0.00025230063438876765,-0.00017842379541555453,3.1410312098602238,0.0016159315326922726,-0.0006790650232001865,-0.0004713587733207626,-5.2889742202172864e-05,3.1410431157249796,,,,
2025-04-30 00:19:17.058935,-0.033442208789062455,-0.00023942016601563587,-0.09296183206106867,0.0,0.0,-0.00025230063438876765,-0.00017842379541555453,3.1410103584672235,0.0012927452261538182,-0.0005432520185601492,-0.000450591666929163,-6.161673050477555e-05,3.141034249859242,,,,
2025-04-30 00:19:17.071738,-0.0023175872070311243,-0.005027823486328131,-0.0013587786259541268,0.0,0.0,-0.00025230063438876765,-0.00017842379541555453,3.141010054834523,0.0010341961809230546,-0.0004346016148481194,-0.0004340402411408353,-6.857215782923715e-05,3.14101347660626,,,,
2025-04-30 00:19:17.085073,0.0072592194335938665,-0.00023942016601563587,-0.13112977099236633,0.0,0.0,-0.00025230063438876765,-0.00017842379541555453,3.140979535215029,0.0008273569447384437,-0.00034768129187849557,-0.0004202489993063406,-7.436766943776267e-05,3.1410131603591838,,,,
2025-04-30 00:19:17.100495,-0.0095001921875002,-0.005027823486328131,0.006274809160305428,0.0,0.0,-0.00025230063438876765,-0.00017842379541555453,3.140981224183597,0.0006618855557907551,-0.00027814503350279644,-0.0004074894129791678,-7.97296471020332e-05,3.140977864614584,,,,
2025-04-30 00:19:17.113367,-0.021471200488281106,0.011731588134765603,-0.10059541984732823,0.0,0.0,-0.00025230063438876765,-0.00017842379541555453,3.1409586249917076,0.0005295084446326041,-0.00022251602680223716,-0.0003989697927070008,-8.330985828099136e-05,3.140979274277335,,,,
2025-04-30 00:19:17.125747,0.0072592194335938665,0.01412578979492185,-0.10059541984732823,0.0,0.0,-0.00025230063438876765,-0.00017842379541555453,3.140936888945956,0.0004236067557060833,-0.00017801282144178974,-0.0003924144129596118,-8.606463409307675e-05,3.140957538231583,,,,
2025-04-30 00:19:17.139513,-0.047807418750000163,0.0045489831542968595,-0.09296183206106867,0.0,0.0,-0.00025230063438876765,-0.00017842379541555453,3.140914553666279,0.00033888540456486667,-0.0001424102571534318,-0.00038658302103672935,-8.851516755398648e-05,3.140933368883941,,,,
2025-04-30 00:19:17.153234,0.014441824414062499,0.018914193115234346,0.14367938931297713,0.0,0.0,-0.00025230063438876765,-0.00017842379541555453,3.1409489620926156,0.00027110832365189337,-0.00011392820572274545,-0.0003819330972548307,-9.046921111149617e-05,3.1409111063286375,,,,
2025-04-30 00:19:17.166370,0.019230227734374772,-0.01699883178710937,0.2429160305343512,0.0,0.0,-0.00025230063438876765,-0.00017842379541555453,3.1410046542072894,0.0002168866589215147,-9.114256457819637e-05,-0.0003783718427058222,-9.196576177222567e-05,3.140944046966636,,,,
2025-04-30 00:19:17.178738,-0.031048007128906097,-0.00023942016601563587,0.06734351145038175,0.0,0.0,-0.00025230063438876765,-0.00017842379541555453,3.141019190250789,0.00017350932713721176,-7.29140516625571e-05,-0.0003756895514909801,-9.309294452049575e-05,3.140996480199037,,,,
2025-04-30 00:19:17.191555,0.04317224433593747,0.01412578979492185,-0.039526717557251845,0.0,0.0,-0.00025230063438876765,-0.00017842379541555453,3.141010348234383,0.00013880746170976942,-5.8331241330045683e-05,-0.00037346569875921766,-9.402747706493595e-05,3.141011544754605,,,,
2025-04-30 00:19:17.204617,0.004865017773437508,0.0045489831542968595,0.029175572519084036,0.0,0.0,-0.00025230063438876765,-0.00017842379541555453,3.141016999897167,0.00011104596936781554,-4.666499306403655e-05,-0.00037165249637340666,-9.478944147696519e-05,3.141002533161226,,,,
2025-04-30 00:19:17.217632,0.03838384101562475,-0.00023942016601563587,0.12841221374045808,0.0,0.0,-0.00025230063438876765,-0.00017842379541555453,3.1410461693937934,8.883677549425243e-05,-3.733199445122924e-05,-0.0003702072295492042,-9.539678784632055e-05,3.1410091605429944,,,,
2025-04-30 00:19:17.231336,0.02162442939453113,-0.014604630126953122,-0.238,0.0,0.0,-0.00025230063438876765,-0.00017842379541555453,3.1409892443171707,7.106942039540195e-05,-2.9865595560983396e-05,-0.0003689898049136427,-9.590838779450318e-05,3.141039874303946,,,,
2025-04-30 00:19:17.245684,-0.004711788867187483,0.11228805786132812,-0.19219847328244266,0.0,0.0,-0.00025036553314134835,-0.00020149755618077437,3.1409411147048725,0.0001348710165083475,-0.0016081750622742922,-0.00036797011567557726,-9.633689313776499e-05,3.140980275247141,,,,
2025-04-30 00:19:17.258049,0.004865017773437508,-0.012210428466796874,0.03680916030534359,0.0,0.0,-0.00025036553314134835,-0.00020149755618077437,3.1409490580948725,0.000107896813206678,-0.0012865400498194338,-0.0003663025181633028,-0.00011622099279519201,3.140938798956512,,,,
2025-04-30 00:19:17.271096,-0.021471200488281106,0.018914193115234346,-0.03189312977099229,0.0,0.0,-0.00025036553314134835,-0.00020149755618077437,3.1409417956223704,8.631745056534241e-05,-0.0010292320398555472,-0.00036489479060967077,-0.0001330064549711022,3.1409471808718794,,,,
2025-04-30 00:19:17.285913,-0.14836388847656234,0.016519991455078098,0.09787786259541992,0.0,0.0,-0.0002171914049339839,-0.0002200176815624111,3.140967108183242,0.0022388514479180933,-0.001249883923614224,-0.00036361578383400895,-0.000148257076300644,3.1409389328700605,,,,
2025-04-30 00:19:17.302019,0.04556644599609383,-0.005027823486328131,0.12077862595419853,0.0,0.0,-0.0002171914049339839,-0.0002200176815624111,3.141001058650759,0.0017910811583344748,-0.0009999071388913793,-0.000327557621857728,-0.00016838727163412197,3.1409664460096445,,,,
2025-04-30 00:19:17.314096,0.016836026074218857,-0.00023942016601563587,-0.008992366412213681,0.0,0.0,-0.0002171914049339839,-0.0002200176815624111,3.1409991631570344,0.00143286492666758,-0.0007999257111131035,-0.000305926140888158,-0.00018046348166269447,3.14099190483962,,,,
2025-04-30 00:19:17.328864,0.03359543769531248,-0.17741034301757808,0.12077862595419853,0.0,0.0,-0.00020361310644702852,-0.0001936718902999105,3.1410302941355237,0.0009194328832945475,0.0017839633475746864,-0.0002847654145107559,-0.00019227688345659587,3.140989587035761,,,,
2025-04-30 00:19:17.343044,0.014441824414062499,0.02609679809570309,-0.10822900763358778,0.0,0.0,-0.00020361310644702852,-0.0001936718902999105,3.141003509793287,0.000735546306635638,0.0014271706780597491,-0.00027172834522150633,-0.00016698123198013892,3.141019477137529,,,,
2025-04-30 00:19:17.367717,-0.1603348967773437,0.02609679809570309,0.18184732824427485,0.0,0.0,-9.017910669459457e-05,-0.0001747812338071938,3.141081819280753,0.004597409157560613,0.0007656265082910833,-0.0002535798714387026,-0.00013176799061016494,3.140972870139238,,,,
2025-04-30 00:19:17.383829,0.05753745429687518,0.006943184814453107,0.28871755725190845,0.0,0.0,-3.2224790200567417e-05,-0.0001644520898332158,3.14116301045921,0.0035968928897331174,0.0006410708772807318,-0.00017950490909263844,-0.00011943196550795218,3.141024008002207,,,,
2025-04-30 00:19:17.397497,-0.023865402148437465,-0.021787235107421865,-0.13112977099236633,0.0,0.0,-3.2224790200567417e-05,-0.0001644520898332158,3.1411317296498926,0.002877514311786494,0.0005128567018245854,-0.00013034321773938164,-0.00011066992294215997,3.1410928811405237,,,,
2025-04-30 00:19:17.439155,0.1341519074218751,-0.1486799230957031,-0.23036641221374043,0.0,0.0,-0.0001427369227053415,0.00010947868858439974,3.140964239533227,-0.0026528781358788945,0.006575793592409278,-1.0473315459388734e-05,-8.930562164935935e-05,3.1409975419787473,,,,
2025-04-30 00:19:17.454616,0.026412832714843848,0.002154781494140612,-0.10059541984732823,0.0,0.0,-0.0001427369227053415,0.00010947868858439974,3.140937093963937,-0.0021223025087031156,0.005260634873927423,-5.149001196818028e-05,1.2364080564440433e-05,3.1409353778423053,,,,
2025-04-30 00:19:17.467683,0.026412832714843848,0.0045489831542968595,-0.02425954198473279,0.0,0.0,-0.0001427369227053415,0.00010947868858439974,3.140931561277076,-0.0016978420069624926,0.004208507899141938,-7.922215384308769e-05,8.110483362748504e-05,3.1409124358198213,,,,
2025-04-30 00:19:17.480378,0.019230227734374772,0.011731588134765603,-0.09296183206106867,0.0,0.0,-0.0001427369227053415,0.00010947868858439974,3.140910963645718,-0.0013582736055699942,0.003366806319313551,-0.00010077638390002487,0.00013453215317933698,3.140907060612689,,,,
2025-04-30 00:19:17.492304,-0.033442208789062455,0.002154781494140612,0.021541984732824482,0.0,0.0,-0.0001427369227053415,0.00010947868858439974,3.1409154475418783,-0.0010866188844559953,0.002693445055450841,-0.00011697506764450707,0.0001746844690101359,3.1408877109006275,,,,
2025-04-30 00:19:17.504320,0.014441824414062499,0.006943184814453107,0.029175572519084036,0.0,0.0,-0.0001427369227053415,0.00010947868858439974,3.1409215662363725,-0.0008692951075647963,0.002154756044360673,-0.00013003194314940554,0.0002070490609304323,3.140892228680811,,,,
2025-04-30 00:19:17.516574,0.03359543769531248,0.0045489831542968595,-0.08532824427480912,0.0,0.0,-0.0001427369227053415,0.00010947868858439974,3.140903317214444,-0.0006954360860518371,0.0017238048354885384,-0.00014068407788937678,0.0002334529271394532,3.1408984684161676,,,,
2025-04-30 00:19:17.530324,0.014441824414062499,-0.005027823486328131,-0.03189312977099229,0.0,0.0,-0.0001427369227053415,0.00010947868858439974,3.140895663237567,-0.0005563488688414697,0.0013790438683908308,-0.00015024654293503575,0.00025715578613039197,3.1408779906388755,,,,
2025-04-30 00:19:17.542308,0.05274905097656246,0.006943184814453107,-0.3143358778625953,0.0,0.0,-0.00015669633532454816,0.0001247034871216513,3.140829914753567,-0.001164803648318725,0.0012703901922569592,-0.0001569140215539402,0.0002736827281661942,3.140871319669762,,,,
2025-04-30 00:19:17.554376,-0.007105990527343842,-0.012210428466796874,0.029175572519084036,0.0,0.0,-0.00015669633532454816,0.0001247034871216513,3.1408360599143683,-0.00093184291865498,0.0010163121538055674,-0.0001709709106747452,0.00028901383920666013,3.1408051120738794,,,,
2025-04-30 00:19:17.567404,0.01204762275390614,0.009337386474609355,0.013908396946564927,0.0,0.0,-0.00015669633532454816,0.0001247034871216513,3.140839222345866,-0.000745474334923984,0.0008130497230444539,-0.0001831106508464508,0.0003022540165300596,3.1408117458901166,,,,
2025-04-30 00:19:17.579809,-0.023865402148437465,0.03327940307617183,-0.016625954198473236,0.0,0.0,-0.00015669633532454816,0.0001247034871216513,3.1408356226466325,-0.0005963794679391873,0.0006504397784355631,-0.0001923583770771746,0.0003123400260657838,3.140814757208759,,,,
2025-04-30 00:19:17.593664,0.12218089912109376,-0.014604630126953122,-0.11586259541984723,0.0,0.0,-0.00018777749747324085,0.00013630081308143747,3.140807604847869,-0.002243281928740735,0.0008370366469195351,-0.00020062134514538092,0.00032135201156903437,3.140810736734012,,,,
2025-04-30 00:19:17.606571,-0.011894393847656115,-0.012210428466796874,-0.06242748091603045,0.0,0.0,-0.00018777749747324085,0.00013630081308143747,3.1407935423201288,-0.0017946255429925882,0.0006696293175356281,-0.00022957437857606475,0.00033215526804361085,3.140784637315323,,,,
2025-04-30 00:19:17.620033,-0.03823061210937517,0.01412578979492185,0.0597099236641222,0.0,0.0,-0.00018777749747324085,0.00013630081308143747,3.1408075711108525,-0.0014357004343940707,0.0005357034540285025,-0.0002537328915041805,0.00034116954324319023,3.1407699700370646,,,,
2025-04-30 00:19:17.632665,-0.0095001921875002,0.01412578979492185,-0.0547938931297709,0.0,0.0,-0.00018777749747324085,0.00013630081308143747,3.14079549057589,-0.0011485603475152567,0.000428562763222802,-0.0002718688482959393,0.0003479366197604842,3.140783134420525,,,,
2025-04-30 00:19:17.645506,-0.0023175872070311243,0.02609679809570309,0.2429160305343512,0.0,0.0,-0.00018777749747324085,0.00013630081308143747,3.1408499343284024,-0.0009188482780122054,0.00034285021057824165,-0.00028661804360403313,0.00035343999266572505,3.140770853694752,,,,
2025-04-30 00:19:17.659156,0.05274905097656246,-0.0026336218261718836,0.11314503816793897,0.0,0.0,-0.00020970076614845794,0.0001413749761347196,3.140876890066274,-0.0016060792185132256,0.0003717286848031262,-0.0002991604869894036,0.0003581199593792098,3.1408287261472245,,,,
2025-04-30 00:19:17.672529,0.014441824414062499,-0.00023942016601563587,-0.06242748091603045,0.0,0.0,-0.00020970076614845794,0.0001413749761347196,3.14086231968318,-0.0012848633748105806,0.000297382947842501,-0.000320638037802885,0.0003630909605755758,3.140855133853047,,,,
2025-04-30 00:19:17.686721,0.014441824414062499,-0.031364041748046856,0.029175572519084036,0.0,0.0,-0.00020970076614845794,0.0001413749761347196,3.1408695464418153,-0.0010278906998484646,0.00023790635827400082,-0.0003388729528803268,0.0003673114504001743,3.140839670631666,,,,
2025-04-30 00:19:17.699782,-0.007105990527343842,0.028490999755859336,-0.06242748091603045,0.0,0.0,-0.00020970076614845794,0.0001413749761347196,3.1408553155814567,-0.0008223125598787718,0.00019032508661920067,-0.0003522982812111056,0.00037041875643210864,3.1408463214446143,,,,
2025-04-30 00:19:17.713037,0.002470816113281149,-0.012210428466796874,-0.1845648854961831,0.0,0.0,-0.00020970076614845794,0.0001413749761347196,3.1408126173303637,-0.0006578500479030175,0.00015226006929536056,-0.00036319813231370097,0.0003729415381655455,3.1408318791293923,,,,
2025-04-30 00:19:17.726592,0.009653421093749781,0.030885201416015584,-0.03189312977099229,0.0,0.0,-0.00020970076614845794,0.0001413749761347196,3.1408050720457186,-0.000526280038322414,0.00012180805543628845,-0.0003721153225372704,0.00037500543100204913,3.140788214722463,,,,
2025-04-30 00:19:17.740366,0.02162442939453113,0.018914193115234346,-0.07006106870229001,0.0,0.0,-0.00020970076614845794,0.0001413749761347196,3.1407882302238157,-0.0004210240306579312,9.744644434903077e-05,-0.00037936388428526184,0.0003766831180639547,3.140780548005105,,,,
2025-04-30 00:19:17.753958,-0.011894393847656115,0.0045489831542968595,-0.047160305343511344,0.0,0.0,-0.00020970076614845794,0.0001413749761347196,3.1407770418243124,-0.000336819224526345,7.795715547922463e-05,-0.00038508684644058026,0.00037800770353312225,3.140763926585448,,,,
2025-04-30 00:19:17.767869,-0.021471200488281106,-0.019393033447265617,0.21238167938931304,0.0,0.0,-0.00020970076614845794,0.0001413749761347196,3.1408286065895266,-0.000269455379621076,6.23657243833797e-05,-0.0003897723416487098,0.00037909216621173267,3.140752476397845,,,,
2025-04-30 00:19:17.780274,0.04317224433593747,0.02370259643554684,-0.30670229007633587,0.0,0.0,-0.00020970076614845794,0.0001413749761347196,3.1407622034967186,-0.0002155643036968608,4.989257950670376e-05,-0.0003931149137182795,0.00037986580795054496,3.1407984584489204,,,,
2025-04-30 00:19:17.793362,0.06232585761718745,-0.009816226806640627,-0.23036641221374043,0.0,0.0,-0.00022292636406827585,0.00014367192157132034,3.1407095822056297,-0.0010105326312071262,0.0001755034690952798,-0.0003959361653221536,0.00038051878953209963,3.1407284001868296,,,,
2025-04-30 00:19:17.806549,0.002470816113281149,-0.12473790649414063,-0.23036641221374043,0.0,0.0,-0.00023638634165657683,0.00016719624475901713,3.1406565640548743,-0.0010207427106118671,0.0017839763297072641,-0.00040926150816015573,0.00038283305808982024,3.140675382036074,,,,
2025-04-30 00:19:17.819542,0.04556644599609383,-0.043335050048828094,-0.07006106870229001,0.0,0.0,-0.0002569160877533465,0.00019708942009169058,3.1406406758516843,-0.0015800212149558795,0.0023006544253098013,-0.0004225243608868359,0.0004060128614651565,3.140623140349883,,,,
2025-04-30 00:19:17.831761,0.05514325263671882,-0.00023942016601563587,0.013908396946564927,0.0,0.0,-0.00028390587931632124,0.00022468254134196962,3.1406436420853345,-0.0022087604525043133,0.0022581350743879343,-0.00044183131796694233,0.00043412554490583654,3.1406081984769725,,,,
2025-04-30 00:19:17.844483,-0.035836410449218814,-0.012210428466796874,0.052076335877862645,0.0,0.0,-0.00028390587931632124,0.00022468254134196962,3.140655204519841,-0.0017670083620034507,0.0018065080595103475,-0.00046992962258775013,0.0004628519589101903,3.1406112865384896,,,,
2025-04-30 00:19:17.857683,-0.05259582207031244,-0.17501614135742183,-0.1692977099236641,0.0,0.0,-0.0002977539908495701,0.00027793244718614174,3.140616198882127,-0.0010490389682912848,0.004033851558333954,-0.0004932554756941075,0.0004866992380389728,3.1406232847556637,,,,
2025-04-30 00:19:17.870658,-0.011894393847656115,0.011731588134765603,-0.10059541984732823,0.0,0.0,-0.0002977539908495701,0.00027793244718614174,3.1405934188565174,-0.0008392311746330278,0.003227081246667164,-0.0005068664825868868,0.0005390374094744562,3.1405849469648026,,,,
2025-04-30 00:19:17.884166,-0.16272909843750005,-0.0026336218261718836,-0.06242748091603045,0.0,0.0,-0.00027976499622042023,0.0003210929564287445,3.140578701182382,0.001331744424756807,0.0031952184509722844,-0.0005182026855492874,0.0005826283163594065,3.1405612309572515,,,,
2025-04-30 00:19:17.896805,-0.047807418750000163,-0.0026336218261718836,0.07497709923664125,0.0,0.0,-0.00027976499622042023,0.0003210929564287445,3.140595240290794,0.0010653955398054456,0.0025561747607778275,-0.0005013710243962611,0.0006230120666322746,3.140547460154096,,,,
2025-04-30 00:19:17.910006,-0.007105990527343842,-0.0385466467285156,-0.0013587786259541268,0.0,0.0,-0.00027976499622042023,0.0003210929564287445,3.140594927215688,0.0008523164318443565,0.002044939808622262,-0.0004873062316595955,0.0006567573441989529,3.1405647355681023,,,,
2025-04-30 00:19:17.922623,0.014441824414062499,0.006943184814453107,-0.039526717557251845,0.0,0.0,-0.00027976499622042023,0.0003210929564287445,3.14058622319645,0.0006818531454754852,0.0016359518468978098,-0.00047655266366434016,0.0006825580896223846,3.140564436356935,,,,
2025-04-30 00:19:17.935433,7.661445312479032e-05,-0.019393033447265617,0.03680916030534359,0.0,0.0,-0.00027976499622042023,0.0003210929564287445,3.1405944527077865,0.0005454825163803882,0.001308761477518248,-0.00046781829300353284,0.0007035142293848161,3.1405555992748737,,,,
2025-04-30 00:19:17.947689,0.019230227734374772,-0.019393033447265617,0.19711450381679396,0.0,0.0,-0.00027976499622042023,0.0003210929564287445,3.140636617489468,0.0004363860131043106,0.0010470091820145983,-0.0004611327799274539,0.0007195546004483592,3.1405634731257477,,,,
2025-04-30 00:19:17.962260,0.028807034374999763,0.021308394775390593,0.1513129770992367,0.0,0.0,-0.00027976499622042023,0.0003210929564287445,3.1406750974261715,0.00034910881048344847,0.0008376073456116787,-0.0004547743245544392,0.0007348102707931029,3.140613600707503,,,,
2025-04-30 00:19:17.975508,-0.007105990527343842,0.006943184814453107,-0.039526717557251845,0.0,0.0,-0.00027976499622042023,0.0003210929564287445,3.1406659577043134,0.00027928704838675876,0.000670085876489343,-0.00045014917616725884,0.0007459072644733297,3.1406485886500812,,,,
2025-04-30 00:19:17.989104,0.002470816113281149,0.011731588134765603,0.13604580152671764,0.0,0.0,-0.00027976499622042023,0.0003210929564287445,3.1406982402593875,0.000223429638709407,0.0005360687011914744,-0.000446352039876171,0.0007550176310816644,3.140639209283558,,,,
2025-04-30 00:19:18.004702,-0.06217262871093743,-0.012210428466796874,-0.07769465648854956,0.0,0.0,-0.00026152293549164615,0.0003321851558377987,3.140677088861799,0.0011695084035116092,0.0007111269179064507,-0.00044286697125613643,0.0007633792621503828,3.1406762460498996,,,,
2025-04-30 00:19:18.021037,-0.11723926689453146,-0.007422025146484379,0.15894656488549624,0.0,0.0,-0.00021214064673965474,0.0003454834670713401,3.140722405143884,0.0030230508828961917,0.0008140868422985875,-0.00042376276033899787,0.0007749956973873996,3.1406540950020148,,,,
2025-04-30 00:19:18.036327,0.03120123603515612,0.030885201416015584,-0.26090076335877854,0.0,0.0,-0.00021214064673965474,0.0003454834670713401,3.1406527808466245,0.0024184407063169537,0.00065126947383887,-0.0003775402461456977,0.0007874431030316854,3.140696511676997,,,,
2025-04-30 00:19:18.050189,0.059931655957031094,-0.00023942016601563587,0.10551145038167947,0.0,0.0,-0.00019057294271318507,0.0003543858351422927,3.140678306955279,0.0015559522397880577,0.0006422408023782466,-0.0003440172291625316,0.0007964706212896653,3.1406333926391157,,,,
2025-04-30 00:19:18.062785,0.03838384101562475,0.002154781494140612,-0.0013587786259541268,0.0,0.0,-0.00019057294271318507,0.0003543858351422927,3.140678008241675,0.0012447617918304463,0.0005137926419025973,-0.0003244186228668881,0.0008045602170439181,3.140656588253872,,,,
2025-04-30 00:19:18.076596,0.07669106757812516,0.028490999755859336,-0.09296183206106867,0.0,0.0,-0.00018806601397672556,0.00035602758525874064,3.140655600237625,0.00018151848407559672,0.00011887373902356593,-0.00030722737580531073,0.0008116561419858135,3.140656260726797,,,,
2025-04-30 00:19:18.090046,0.019230227734374772,0.002154781494140612,-0.008992366412213681,0.0,0.0,-0.00018806601397672556,0.00035602758525874064,3.1406534892108176,0.00014521478726047739,9.509899121885276e-05,-0.00030478583918860176,0.0008132550677815483,3.1406344372255544,,,,
2025-04-30 00:19:18.103421,0.03359543769531248,-0.00023942016601563587,0.1665801526717558,0.0,0.0,-0.00018806601397672556,0.00035602758525874064,3.140692374747463,0.00011617182980838192,7.60791929750822e-05,-0.0003028436196604659,0.0008145269982876335,3.140632338097969,,,,
2025-04-30 00:19:18.116282,0.019230227734374772,-0.009816226806640627,-0.08532824427480912,0.0,0.0,-0.00018806601397672556,0.00035602758525874064,3.1406732220800984,9.293746384670553e-05,6.086335438006577e-05,-0.00030134958759419364,0.0008155054175315102,3.1406697284636182,,,,
2025-04-30 00:19:18.130662,0.03359543769531248,-0.009816226806640627,-0.07006106870229001,0.0,0.0,-0.00018806601397672556,0.00035602758525874064,3.14065563800407,7.434997107736444e-05,4.8690683504052615e-05,-0.0003000131267339618,0.0008163806457504075,3.1406483125993945,,,,
2025-04-30 00:19:18.144276,0.016836026074218857,0.016519991455078098,-0.10822900763358778,0.0,0.0,-0.00018806601397672556,0.00035602758525874064,3.1406299205679384,5.947997686189155e-05,3.895254680324209e-05,-0.00029900087756260896,0.000817043552585681,3.140631664649838,,,,
2025-04-30 00:19:18.158075,-0.0023175872070311243,0.0045489831542968595,0.10551145038167947,0.0,0.0,-0.00018806601397672556,0.00035602758525874064,3.140655331205626,4.758398148951325e-05,3.1162037442593674e-05,-0.0002981801303919559,0.0008175810476262848,3.140605599534722,,,,
2025-04-30 00:19:18.172335,0.009653421093749781,0.016519991455078098,-0.039526717557251845,0.0,0.0,-0.00018806601397672556,0.00035602758525874064,3.1406454939319324,3.80671851916106e-05,2.492962995407494e-05,-0.00029750160295357605,0.0008180254050923636,3.140631858862067,,,,
2025-04-30 00:19:18.185174,0.016836026074218857,0.01412578979492185,-0.08532824427480912,0.0,0.0,-0.00018806601397672556,0.00035602758525874064,3.140626373220595,3.045374815328848e-05,1.9943703963259954e-05,-0.0002970128553592783,0.0008183454785783715,3.1406230015491934,,,,
2025-04-30 00:19:18.197573,0.03120123603515612,-0.005027823486328131,-0.22273282442748088,0.0,0.0,-0.00018806601397672556,0.00035602758525874064,3.1405781732483686,2.4362998522630785e-05,1.5954963170607964e-05,-0.0002966352606087042,0.0008185927597302884,3.1406045362914803,,,,
2025-04-30 00:19:18.210724,-0.1411812834960937,-0.009816226806640627,0.3192519083969466,0.0,0.0,-0.00016382018595524576,0.0003578745485546428,3.14065145284934,0.0018435919119269913,0.0001404384536149753,-0.0002963148528935012,0.0008188025899484733,3.140553411232967,,,,
2025-04-30 00:19:18.224247,-0.004711788867187483,-0.024181436767578113,-0.19983206106870222,0.0,0.0,-0.00016382018595524576,0.0003578745485546428,3.140604290451027,0.0014748735295415931,0.00011235076289198025,-0.0002713850904183055,0.0008207016530048661,3.140628757929515,,,,
2025-04-30 00:19:18.238858,-0.045413217089843805,0.002154781494140612,-0.3143358778625953,0.0,0.0,-0.00016382018595524576,0.0003578745485546428,3.1405241263771217,0.0011798988236332746,8.98806103135842e-05,-0.00024983429819985505,0.0008223433177972513,3.140577795397904,,,,
2025-04-30 00:19:18.255149,-0.035836410449218814,0.0045489831542968595,0.03680916030534359,0.0,0.0,-0.00016382018595524576,0.0003578745485546428,3.1405345923218824,0.0009439190589066197,7.190448825086737e-05,-0.00023061268080635234,0.0008238075541096686,3.140488420310106,,,,
2025-04-30 00:19:18.269889,-0.023865402148437465,-0.007422025146484379,0.0597099236641222,0.0,0.0,-0.00016382018595524576,0.0003578745485546428,3.1405499533781276,0.0007551352471252958,5.75235906006939e-05,-0.00021669932309602833,0.0008248674255642942,3.1404978898847946,,,,
2025-04-30 00:19:18.283908,-0.07414363701171878,-0.014604630126953122,-0.008992366412213681,0.0,0.0,-0.00013916383672769048,0.0003614625856453137,3.1405477532194097,0.0017588391474290279,0.0002559494935465384,-0.00020611343274080536,0.0008256738220677759,3.140512499088099,,,,
2025-04-30 00:19:18.297642,-0.16272909843750005,0.030885201416015584,-0.1692977099236641,0.0,0.0,-8.541758095581212e-05,0.0003591657842363971,3.1405071723648565,0.003913411144521432,-0.00016723636095800006,-0.00018195777539014557,0.0008291889975596464,3.140510343607593,,,,
2025-04-30 00:19:18.312810,0.06472005927734381,0.12425906616210936,0.3421526717557253,0.0,0.0,-4.1864955893927724e-05,0.0003286755347131591,3.140597754951048,0.0028712229968809837,-0.0020100810338611677,-0.00012259654553252377,0.0008266522449168075,3.1404655231935874,,,,
2025-04-30 00:19:18.326753,0.0072592194335938665,0.04764461303710943,0.1742137404580153,0.0,0.0,-4.1864955893927724e-05,0.0003286755347131591,3.140640149952905,0.002296978397504787,-0.0016080648270889342,-8.256320696655506e-05,0.0007986257716470505,3.1405487862193184,,,,
2025-04-30 00:19:18.340315,0.01204762275390614,0.006943184814453107,-0.3296030534351144,0.0,0.0,-4.1864955893927724e-05,0.0003286755347131591,3.1405621367197485,0.00183758271800383,-0.0012864518616711475,-5.141331147732197e-05,0.0007768184044736604,3.140590020598102,,,,
2025-04-30 00:19:18.353885,0.12696930244140603,0.062009822998046915,0.23528244274809165,0.0,0.0,-4.035219735782798e-05,0.00030039855274794557,3.140617862558605,0.00011147561718608003,-0.0020837390379954144,-2.6476746759232395e-05,0.0007593608556020005,3.1405119552464,,,,
2025-04-30 00:19:18.366402,0.004865017773437508,0.006943184814453107,0.09024427480916036,0.0,0.0,-4.035219735782798e-05,0.00030039855274794557,3.140637577917983,8.918049374886403e-05,-0.0016669912303963316,-2.5081382623040455e-05,0.0007332782485153904,3.1405633566003797,,,,
2025-04-30 00:19:18.379509,0.03120123603515612,-0.0026336218261718836,0.07497709923664125,0.0,0.0,-4.035219735782798e-05,0.00030039855274794557,3.1406547300944005,7.134439499909123e-05,-0.0013335929843170653,-2.3912467154744034e-05,0.0007114284946868008,3.140584001380425,,,,
2025-04-30 00:19:18.392800,-0.004711788867187483,0.028490999755859336,0.14367938931297713,0.0,0.0,-4.035219735782798e-05,0.00030039855274794557,3.140688058156775,5.7075515999272985e-05,-0.0010668743874536523,-2.2964271231217904e-05,0.000693704503455414,3.1406013931681547,,,,
2025-04-30 00:19:18.405828,-0.15554649345703142,-0.005027823486328131,0.0597099236641222,0.0,0.0,-1.3751388649520394e-05,0.00028759084933361657,3.1407016347424914,0.0020418703262781255,-0.000983115582547012,-2.222071035789249e-05,0.0006798056181387459,3.140634062369939,,,,
2025-04-30 00:19:18.419220,-0.01907699882812519,-0.005027823486328131,-0.238,0.0,0.0,-1.3751388649520394e-05,0.00028759084933361657,3.1406460030799863,0.0016334962610225004,-0.0007864924660376097,5.125419497745334e-06,0.0006666390590103629,3.140648019354483,,,,
2025-04-30 00:19:18.431553,-0.0095001921875002,-0.014604630126953122,-0.19219847328244266,0.0,0.0,-1.3751388649520394e-05,0.00028759084933361657,3.140604631559779,0.0013067970088180003,-0.0006291939728300879,2.5271581551433602e-05,0.0006569391257733683,3.140596788865285,,,,
2025-04-30 00:19:18.445311,-0.06456683037109379,0.02370259643554684,-0.09296183206106867,0.0,0.0,1.5839556541119263e-05,0.00027469904072062375,3.140582309819214,0.002150863367823386,-0.0009370609391499765,4.325011019333316e-05,0.0006482828602742087,3.1405506386941613,,,,
2025-04-30 00:19:18.458305,-0.028653805468750182,-0.01699883178710937,0.06734351145038175,0.0,0.0,1.5839556541119263e-05,0.00027469904072062375,3.1405975825849985,0.001720690694258709,-0.0007496487513199813,7.119853844501505e-05,0.0006361066426598886,3.1405295559757618,,,,
2025-04-30 00:19:18.471309,0.014441824414062499,-0.00023942016601563587,-0.24563358778625943,0.0,0.0,1.5839556541119263e-05,0.00027469904072062375,3.140541831644451,0.0013765525554069674,-0.000599719001055985,9.35749215654677e-05,0.0006263579831702577,3.140544840791397,,,,
2025-04-30 00:19:18.485003,0.016836026074218857,-0.01699883178710937,-0.11586259541984723,0.0,0.0,1.5839556541119263e-05,0.00027469904072062375,3.1405141412093642,0.001101242044325574,-0.00047977520084478806,0.00011242451364731102,0.0006181458313790072,3.1404861359014107,,,,
2025-04-30 00:19:18.497437,0.03838384101562475,-0.012210428466796874,-0.047160305343511344,0.0,0.0,1.5839556541119263e-05,0.00027469904072062375,3.1405039067468574,0.0008809936354604592,-0.0003838201606758305,0.00012611736354461637,0.0006121803037790866,3.1404609920568127,,,,
2025-04-30 00:19:18.514337,0.11739249580078104,0.006943184814453107,-0.22273282442748088,0.0,0.0,-2.4304604056951245e-06,0.0002664365819234003,3.1404382081595816,-0.0010810468386836618,-0.0004888941804758345,0.0001410064211450227,0.0006056936275416211,3.1404470813750596,,,,
2025-04-30 00:19:18.530823,-0.014288595507812474,-0.0026336218261718836,0.10551145038167947,0.0,0.0,-2.4304604056951245e-06,0.0002664365819234003,3.1404685678039037,-0.0008648374709469295,-0.00039111534438066763,0.00012318410144637951,0.0005976336359931919,3.140382992697442,,,,
2025-04-30 00:19:18.547124,-0.05259582207031244,-0.04094084838867185,0.021541984732824482,0.0,0.0,-2.537801289758166e-06,0.0002708346771749332,3.140474696688737,-6.584863677955182e-06,0.00026980267515774826,0.00010908625170454309,0.000591258004106234,3.140413011636552,,,,
2025-04-30 00:19:18.560083,-0.035836410449218814,0.006943184814453107,-0.10822900763358778,0.0,0.0,-2.537801289758166e-06,0.0002708346771749332,3.140450217746395,-5.267890942364146e-06,0.00021584214012619862,0.00010900091843343265,0.0005947543779040141,3.1404178839440204,,,,
2025-04-30 00:19:18.573435,-0.03823061210937517,-0.0026336218261718836,-0.0013587786259541268,0.0,0.0,-2.537801289758166e-06,0.0002708346771749332,3.140449901109184,-4.214312753891317e-06,0.0001726737121009589,0.00010893058324536252,0.0005976362328409017,3.1403926632564887,,,,
2025-04-30 00:19:18.587341,-0.11245086357421874,-0.00023942016601563587,0.12077862595419853,0.0,0.0,1.871456474144384e-05,0.00027320945746048785,3.1404792142459956,0.0015283134822826354,0.00017077669011269464,0.00010887198000836045,0.0006000373926658187,3.1403923334790678,,,,
2025-04-30 00:19:18.599846,-0.1507580901367187,-0.17022773803710933,-0.19983206106870222,0.0,0.0,6.0578888686975065e-05,0.0003013638087396247,3.140435599193121,0.003347728382338514,0.00225139479109052,0.00012798398773579425,0.0006021730051948822,3.1404186944450156,,,,
2025-04-30 00:19:18.613884,-0.031048007128906097,0.011731588134765603,-0.11586259541984723,0.0,0.0,6.0578888686975065e-05,0.0003013638087396247,3.140407212085703,0.0026781827058708113,0.0018011158328724158,0.00017497888830182604,0.0006337777419771036,3.1403697342593526,,,,
2025-04-30 00:19:18.626939,-0.03823061210937517,-0.012210428466796874,-0.09296183206106867,0.0,0.0,6.0578888686975065e-05,0.0003013638087396247,3.1403860307252014,0.002142546164696649,0.0014408926662979327,0.00020994215568603618,0.0006572910348964443,3.140343334958179,,,,
2025-04-30 00:19:18.640060,-0.031048007128906097,0.040462008056640686,0.006274809160305428,0.0,0.0,9.33587790488446e-05,0.0003130586473230297,3.1403874676736008,0.002498297844281628,0.0008913144522328416,0.00023805426751239656,0.0006761968285881687,3.140322046445277,,,,
2025-04-30 00:19:18.653247,-0.0023175872070311243,0.04525041137695318,-0.11586259541984723,0.0,0.0,9.33587790488446e-05,0.0003130586473230297,3.1403608007923967,0.0019986382754253024,0.0007130515617862733,0.0002709997459672394,0.0006879507438187888,3.1403234906524418,,,,
2025-04-30 00:19:18.665593,0.05753745429687518,-0.005027823486328131,-0.0547938931297709,0.0,0.0,0.00010894701967909657,0.00032244805195337143,3.1403489934107265,0.0012625629048648903,0.0007604908255027647,0.0002956759456639946,0.0006967544392893847,3.1402985237481524,,,,
2025-04-30 00:19:18.678882,0.08147947089843743,0.02609679809570309,-0.07769465648854956,0.0,0.0,0.00011128333181662692,0.00032785337838981505,3.1403309741645193,0.00017581776879325536,0.00040677459933042334,0.0003124532091867733,0.0007068600387307692,3.140285815735844,,,,
2025-04-30 00:19:18.691720,0.016836026074218857,0.016519991455078098,-0.4441068702290075,0.0,0.0,0.00011128333181662692,0.00032785337838981505,3.140231466071949,0.00014065421503460428,0.0003254196794643387,0.00031471033780178107,0.0007120821649942794,3.1402684072074285,,,,
2025-04-30 00:19:18.704786,0.016836026074218857,-0.00023942016601563587,-0.0013587786259541268,0.0,0.0,0.00011128333181662692,0.00032785337838981505,3.1402311562027374,0.00011252337202768343,0.000260335743571471,0.0003165481668196006,0.0007163341934865783,3.1401671287186788,,,,
2025-04-30 00:19:18.717227,-0.04062481376953109,0.011731588134765603,-0.10059541984732823,0.0,0.0,0.00011128333181662692,0.00032785337838981505,3.140209313414859,9.001869762214675e-05,0.00020826859485717681,0.00031794806107518546,0.0007195730096132356,3.140166833680263,,,,
2025-04-30 00:19:18.730422,-0.16272909843750005,0.006943184814453107,-0.008992366412213681,0.0,0.0,0.0001402126847377461,0.000329323372783382,3.1402072424637337,0.0021924022165410043,0.00011140307823498571,0.0003191358826589089,0.0007223211712587364,3.1401436664528215,,,,
2025-04-30 00:19:18.743451,-0.05259582207031244,0.03806780639648444,0.10551145038167947,0.0,0.0,0.0001769485706681337,0.00032440066587255157,3.140231236277041,0.002819474707704962,-0.0003778171473754995,0.0003477014298228125,0.0007237726795000235,3.1401416215452773,,,,
2025-04-30 00:19:18.756064,-0.06217262871093743,-0.007422025146484379,-0.24563358778625943,0.0,0.0,0.00022149330389996744,0.0003208740171525682,3.140177163670396,0.003531703012612248,-0.0002796082725193976,0.0003832629558798193,0.0007190073399513263,3.1401648483328044,,,,
2025-04-30 00:19:18.768666,-0.15554649345703142,0.01412578979492185,-0.16166412213740455,0.0,0.0,0.00028931027293386776,0.00031518767757732777,3.1401416079918074,0.005381711592060475,-0.0004512475276381948,0.0004277672719781774,0.0007154838910940808,3.140110824788295,,,,
2025-04-30 00:19:18.780840,0.01204762275390614,-0.014604630126953122,0.021541984732824482,0.0,0.0,0.00028931027293386776,0.00031518767757732777,3.140146185203493,0.004305369273648381,-0.00036099802211055586,0.0004932849257566808,0.0007099903452623382,3.1400764746149856,,,,
2025-04-30 00:19:18.794373,0.016836026074218857,-0.014604630126953122,-0.08532824427480912,0.0,0.0,0.00028931027293386776,0.00031518767757732777,3.1401260308922097,0.003444295418918705,-0.0002887984176884447,0.0005515499849204489,0.0007051049173746507,3.140081562776235,,,,
2025-04-30 00:19:18.807174,0.03838384101562475,0.006943184814453107,0.15894656488549624,0.0,0.0,0.00028931027293386776,0.00031518767757732777,3.1401615431423404,0.002755436335134964,-0.00023103873415075576,0.0005956409973107247,0.0007014079596332643,3.1400624985205456,,,,
2025-04-30 00:19:18.820031,0.03598963935546884,-0.007422025146484379,-0.039526717557251845,0.0,0.0,0.00028931027293386776,0.00031518767757732777,3.1401526736580836,0.0022043490681079715,-0.00018483098732060462,0.0006310668759242331,0.0006984375588852308,3.1400981648784443,,,,
2025-04-30 00:19:18.832644,-0.13160447685546872,0.006943184814453107,0.03680916030534359,0.0,0.0,0.0003370743314479254,0.00031179114674215544,3.1401607768042687,0.0037868737440550806,-0.000269286862145561,0.0006588704587713792,0.0006961062749052852,3.140089463490857,,,,
2025-04-30 00:19:18.846668,0.028807034374999763,0.02370259643554684,-0.016625954198473236,0.0,0.0,0.0003370743314479254,0.00031179114674215544,3.140156707139882,0.0030294989952440645,-0.0002154294897164488,0.0007119803576056782,0.0006923295981601446,3.1400984735559043,,,,
2025-04-30 00:19:18.859862,0.004865017773437508,-0.019393033447265617,-0.253267175572519,0.0,0.0,0.0003370743314479254,0.00031179114674215544,3.1400983868291616,0.0024235991961952517,-0.00017234359177315905,0.0007519503777565342,0.000689487306065454,3.140094645066039,,,,
2025-04-30 00:19:18.872861,-0.15315229179687506,0.018914193115234346,-0.039526717557251845,0.0,0.0,0.0003933069125786884,0.00030642525678405656,3.1400894189869706,0.004325817360876764,-0.00041278311382011176,0.0007834554615497342,0.0006872469606698299,3.140037183677818,,,,
2025-04-30 00:19:18.886221,-0.045413217089843805,-0.007422025146484379,-0.09296183206106867,0.0,0.0,0.0003933069125786884,0.00030642525678405656,3.140067742868633,0.0034606538887014117,-0.00033022649105608943,0.0008412474517861904,0.0006817322669845582,3.1400279671446634,,,,
2025-04-30 00:19:18.898910,-0.03823061210937517,0.002154781494140612,0.04444274809160309,0.0,0.0,0.0003933069125786884,0.00030642525678405656,3.14007758509249,0.0027685231109611293,-0.0002641811928448716,0.0008851584320004737,0.0006775421429844844,3.1400073799577637,,,,
2025-04-30 00:19:18.912530,-0.06456683037109379,0.021308394775390593,0.2581832061068703,0.0,0.0,0.000441993961052319,0.0002990079550885265,3.140138960511857,0.003574574327145055,-0.000544573907204323,0.0009228667593613392,0.0006739438956507571,3.140017944906364,,,,
2025-04-30 00:19:18.925401,-0.026259603808593823,-0.033758243408203104,0.07497709923664125,0.0,0.0,0.000441993961052319,0.0002990079550885265,3.1401558038143174,0.0028596594617160444,-0.0004356591257634584,0.0009688760542587173,0.0006669345403550197,3.1400759447206403,,,,
2025-04-30 00:19:18.938614,0.11499829414062512,-0.014604630126953122,-0.3143358778625953,0.0,0.0,0.00045935162724533525,0.0002958951782583583,3.1400833190733524,0.0013137600827203848,-0.00023559860527432405,0.0010066584583787945,0.0006611785231199057,3.1400932341743717,,,,
2025-04-30 00:19:18.951085,0.01204762275390614,0.009337386474609355,-0.039526717557251845,0.0,0.0,0.00045935162724533525,0.0002958951782583583,3.140074715221308,0.001051008066176308,-0.00018847888421945924,0.0010230432483051095,0.00065824021367884,3.1400248121157626,,,,
2025-04-30 00:19:18.964407,7.661445312479032e-05,-0.007422025146484379,0.08261068702290081,0.0,0.0,0.00045935162724533525,0.0002958951782583583,3.1400939230823686,0.0008408064529410464,-0.0001507831073755674,0.001037044647990413,0.0006557293212555329,3.140015621734634,,,,
2025-04-30 00:19:18.977519,0.1293635041015624,0.021308394775390593,-0.14639694656488544,0.0,0.0,0.00044835479260897914,0.000290401002360108,3.1400604209316567,-0.0008386956541977825,-0.00041902434669942247,0.0010480691590605436,0.0006537522788212889,3.1400345267442806,,,,
2025-04-30 00:19:18.990843,-0.026259603808593823,-0.024181436767578113,-0.06242748091603045,0.0,0.0,0.00044835479260897914,0.000290401002360108,3.1400459038019375,-0.000670956523358226,-0.000335219477359538,0.0010368945594275202,0.0006481692889877073,3.140000483027754,,,,
2025-04-30 00:19:19.004823,-0.004711788867187483,-0.009816226806640627,0.013908396946564927,0.0,0.0,0.00044835479260897914,0.000290401002360108,3.140049297445943,-0.0005367652186865808,-0.0002681755818876304,0.0010275144864380192,0.0006434828703366197,3.139985250744178,,,,
2025-04-30 00:19:19.018240,-0.0095001921875002,0.002154781494140612,0.15894656488549624,0.0,0.0,0.00044835479260897914,0.000290401002360108,3.140086518109656,-0.00042941217494926466,-0.00021454046551010436,0.0010203127045257908,0.0006398847570690248,3.1399885076863203,,,,
2025-04-30 00:19:19.030827,0.02401863105468749,0.021308394775390593,-0.07769465648854956,0.0,0.0,0.00044835479260897914,0.000290401002360108,3.1400694493718166,-0.00034352973995941175,-0.0001716323724080835,0.0010149075608412972,0.0006371842699616035,3.1400234266546145,,,,
2025-04-30 00:19:19.044968,0.002470816113281149,0.02370259643554684,0.03680916030534359,0.0,0.0,0.00044835479260897914,0.000290401002360108,3.1400785340305957,-0.0002748237919675294,-0.0001373058979264668,0.001010049760260621,0.0006347572432988018,3.140004251279863,,,,
2025-04-30 00:19:19.059366,0.06950846259765608,-0.01699883178710937,-0.0547938931297709,0.0,0.0,0.0004303610063330858,0.00029193863689634143,3.140064764642181,-0.0012497335610552186,0.0001067942819318104,0.001006092820373355,0.0006327802995255848,3.140013501208943,,,,
2025-04-30 00:19:19.075508,-0.057384225390625154,0.028490999755859336,-0.16166412213740455,0.0,0.0,0.0004252329691988739,0.0002863298137628974,3.1400192191458487,-0.0003176850210352955,-0.00034747000626103114,0.0009859197568525223,0.0006345041612351584,3.139998064171797,,,,
2025-04-30 00:19:19.091135,0.03598963935546884,0.01412578979492185,0.13604580152671764,0.0,0.0,0.0004252329691988739,0.0002863298137628974,3.1400563249778934,-0.00025414801682823644,-0.00027797600500882493,0.000980955246720744,0.0006290741967975832,3.1399539710671487,,,,
2025-04-30 00:19:19.104622,0.07669106757812516,-0.00023942016601563587,-0.06242748091603045,0.0,0.0,0.00040820318450805596,0.00028271965223617676,3.1400416301637435,-0.0012626943510082786,-0.0002676798708133654,0.000977527587443796,0.0006253251727279547,3.1399859949088924,,,,
2025-04-30 00:19:19.117234,0.047960647656249744,0.011731588134765603,0.04444274809160309,0.0,0.0,0.00040820318450805596,0.00028271965223617676,3.1400514126536976,-0.001010155480806623,-0.00021414389665069236,0.0009616029565431066,0.0006219492938869326,3.1399722537198085,,,,
2025-04-30 00:19:19.130829,-0.0095001921875002,0.02370259643554684,-0.08532824427480912,0.0,0.0,0.00040820318450805596,0.00028271965223617676,3.140031165669935,-0.0008081243846452985,-0.0001713151173205539,0.0009478695466657978,0.0006190379342385351,3.139982799250267,,,,
2025-04-30 00:19:19.145360,0.05753745429687518,-0.019393033447265617,-0.22273282442748088,0.0,0.0,0.00038479647321921557,0.00028431212768130503,3.139974678880063,-0.0016108499784338326,0.00010959416744992835,0.0009361269670276522,0.0006165486127348437,3.139961159338786,,,,
2025-04-30 00:19:19.158588,0.03598963935546884,-0.01699883178710937,0.22001526717557257,0.0,0.0,0.00038479647321921557,0.00028431212768130503,3.140025474046675,-0.001288679982747066,8.767533395994268e-05,0.0009148187407990655,0.0006179983177630097,3.139909736766744,,,,
2025-04-30 00:19:19.171535,-0.014288595507812474,0.02370259643554684,0.18184732824427485,0.0,0.0,0.00038479647321921557,0.00028431212768130503,3.1400665667020244,-0.001030943986197653,7.014026716795414e-05,0.0008981337874759207,0.0006191334784501451,3.139959454360249,,,,
2025-04-30 00:19:19.184087,0.019230227734374772,-0.02657563842773436,0.1665801526717558,0.0,0.0,0.00038479647321921557,0.00028431212768130503,3.140103059410539,-0.0008247551889581224,5.611221373436332e-05,0.00088519360071374,0.0006200138639694885,3.1399992916484094,,,,
2025-04-30 00:19:19.197498,0.02401863105468749,-0.021787235107421865,0.07497709923664125,0.0,0.0,0.00038479647321921557,0.00028431212768130503,3.140120608755186,-0.000659804151166498,4.488977098749066e-05,0.0008741329683361857,0.0006207663740189136,3.1400382818539563,,,,
2025-04-30 00:19:19.210913,0.02401863105468749,-0.17501614135742183,-0.008992366412213681,0.0,0.0,0.00037193161004163866,0.0003157753155765835,3.1401185033037997,-0.0009589838997132141,0.0023453565116661273,0.0008652816308619145,0.0006213685747044512,3.140055836814493,,,,
2025-04-30 00:19:19.224666,0.028807034374999763,0.0045489831542968595,0.11314503816793897,0.0,0.0,0.00037193161004163866,0.0003157753155765835,3.1401456624350086,-0.0007671871197705714,0.0018762852093329018,0.0008520925567616689,0.0006536246749717329,3.140053678303053,,,,
2025-04-30 00:19:19.237512,-0.03823061210937517,0.006943184814453107,0.31161832061068706,0.0,0.0,0.00037193161004163866,0.0003157753155765835,3.1402155287814018,-0.0006137496958164572,0.0015010281674663216,0.0008422372763591901,0.0006777274217156162,3.1400790459721097,,,,
2025-04-30 00:19:19.251865,-0.028653805468750182,-0.005027823486328131,0.04444274809160309,0.0,0.0,0.00037193161004163866,0.0003157753155765835,3.140226662219219,-0.0004909997566531658,0.0012008225339730574,0.0008334279580104147,0.0006992720922349223,3.1401571100735493,,,,
2025-04-30 00:19:19.266751,0.02162442939453113,0.028490999755859336,0.006274809160305428,0.0,0.0,0.00037193161004163866,0.0003157753155765835,3.140228292412673,-0.00039279980532253266,0.000960658027178446,0.000826119217679031,0.0007171468466843074,3.14016865628558,,,,
2025-04-30 00:19:19.280794,0.04556644599609383,0.006943184814453107,0.28108396946564895,0.0,0.0,0.00037193161004163866,0.0003157753155765835,3.1402971890980473,-0.00031423984425802613,0.0007685264217427569,0.000820602812637165,0.0007306381435557118,3.1401701943083755,,,,
2025-04-30 00:19:19.294225,0.0503548493164061,-0.012210428466796874,0.1513129770992367,0.0,0.0,0.00035889770422518446,0.00032805982589275405,3.140332656827774,-0.0009704981945957258,0.0009146985754865151,0.0008163825342722553,0.0007409595445168175,3.1402360803311775,,,,
2025-04-30 00:19:19.307019,0.03359543769531248,-0.012210428466796874,0.1665801526717558,0.0,0.0,0.00035889770422518446,0.00032805982589275405,3.140369854491737,-0.0007763985556765807,0.0007317588603892121,0.0008039657317189376,0.0007526624324468132,3.1402698688058854,,,,
2025-04-30 00:19:19.319234,-0.011894393847656115,-0.00023942016601563587,0.15894656488549624,0.0,0.0,0.00035889770422518446,0.00032805982589275405,3.140403741004126,-0.0006211188445412645,0.0005854070883113697,0.0007944819166207631,0.0007616009675299118,3.1403053827561958,,,,
2025-04-30 00:19:19.332260,-0.1603348967773437,-0.01699883178710937,0.013908396946564927,0.0,0.0,0.0003776331442005678,0.0003383278313409792,3.1404069030304957,0.0014383111710535436,0.000788270089201292,0.0007863912231298974,0.000769226479717367,3.1403415187128725,,,,
2025-04-30 00:19:19.345034,0.12218089912109376,0.0045489831542968595,-0.24563358778625943,0.0,0.0,0.00037609926619494685,0.00034749276079537475,3.140352138443307,-0.00012007597481266878,0.0007174546047945833,0.0008047645394736526,0.000779296022389838,3.1403446196227445,,,,
2025-04-30 00:19:19.358133,-0.023865402148437465,-0.0026336218261718836,0.18184732824427485,0.0,0.0,0.00037609926619494685,0.00034749276079537475,3.14039371160388,-9.606077985013503e-05,0.0005739636838356666,0.0008031916982928016,0.0007886937570288662,3.1402884639195747,,,,
2025-04-30 00:19:19.371236,-0.01907699882812519,0.002154781494140612,-0.23036641221374043,0.0,0.0,0.00037609926619494685,0.00034749276079537475,3.1403410270453076,-7.684862388010802e-05,0.0004591709470685333,0.0008019329672946281,0.0007962146816122078,3.1403300522141704,,,,
2025-04-30 00:19:19.383739,0.01204762275390614,0.02609679809570309,-0.016625954198473236,0.0,0.0,0.00037609926619494685,0.00034749276079537475,3.140337399049924,-6.147889910408643e-05,0.0003673367576548267,0.000800972154288162,0.0008019555445692738,3.140279783323131,,,,
2025-04-30 00:19:19.396997,0.13175770576171875,0.009337386474609355,0.08261068702290081,0.0,0.0,0.0003526021180306358,0.00035068511378540134,3.140356514783653,-0.0017723022323076262,0.00024078727728888989,0.0008001570682521045,0.0008068256880828746,3.1402759361536554,,,,
2025-04-30 00:19:19.411027,-0.0095001921875002,0.02370259643554684,0.11314503816793897,0.0,0.0,0.0003526021180306358,0.00035068511378540134,3.140384221005275,-0.001417841785846101,0.00019262982183111191,0.0007752912813504858,0.0008102039861048157,3.14029616532181,,,,
2025-04-30 00:19:19.424319,0.12218089912109376,0.01412578979492185,-0.26090076335877854,0.0,0.0,0.0003129758932291119,0.0003507754242438093,3.140323695603017,-0.0029812454383844147,6.79443079717169e-06,0.0007564455611640329,0.0008127643900638717,3.140322413420361,,,,
2025-04-30 00:19:19.437258,-0.004711788867187483,-0.02657563842773436,0.23528244274809165,0.0,0.0,0.0003129758932291119,0.0003507754242438093,3.140376828904868,-0.002384996350707532,5.435544637737352e-06,0.0007178712971285404,0.0008128523030428457,3.1402634947911134,,,,
2025-04-30 00:19:19.450053,0.0072592194335938665,0.018914193115234346,-0.14639694656488544,0.0,0.0,0.0003129758932291119,0.0003507754242438093,3.1403441357523585,-0.0019079970805660257,4.348435710189882e-06,0.0006873547682471286,0.0008129218519773229,3.1403160377229438,,,,
2025-04-30 00:19:19.463378,0.0503548493164061,0.002154781494140612,0.08261068702290081,0.0,0.0,0.0002792987239574277,0.0003504680512378537,3.140363347738523,-0.002527417080319605,-2.3067846914750987e-05,0.0006619312079046561,0.0008129797937419091,3.1402819915696756,,,,
2025-04-30 00:19:19.476805,0.03120123603515612,-0.014604630126953122,0.22001526717557257,0.0,0.0,0.0002792987239574277,0.0003504680512378537,3.140414907368639,-0.002021933664255684,-1.845427753180079e-05,0.0006279955304448536,0.0008126700613203446,3.1403013510283224,,,,
2025-04-30 00:19:19.490649,0.01204762275390614,-0.005027823486328131,-0.08532824427480912,0.0,0.0,0.0002792987239574277,0.0003504680512378537,3.140394290050028,-0.0016175469314045473,-1.4763422025440633e-05,0.0006000038540788414,0.0008124145800583374,3.140354511911933,,,,
2025-04-30 00:19:19.503348,0.03120123603515612,0.03327940307617183,0.03680916030534359,0.0,0.0,0.0002792987239574277,0.0003504680512378537,3.1404024481842003,-0.001294037545123638,-1.1810737620352507e-05,0.0005794631911558703,0.0008122271045239176,3.1403356003350407,,,,
2025-04-30 00:19:19.516097,0.028807034374999763,-0.0026336218261718836,0.1665801526717558,0.0,0.0,0.0002792987239574277,0.0003504680512378537,3.140439514838744,-0.0010352300360989104,-9.448590096282007e-06,0.0005629652540278172,0.0008120765271257341,3.1403437909412273,,,,
2025-04-30 00:19:19.528671,0.004865017773437508,0.018914193115234346,0.013908396946564927,0.0,0.0,0.0002792987239574277,0.0003504680512378537,3.14044256713322,-0.0008281840288791283,-7.558872077025606e-06,0.0005499483156099485,0.0008119577209559649,3.1403803481146944,,,,
2025-04-30 00:19:19.541939,-0.15554649345703142,-0.007422025146484379,0.12077862595419853,0.0,0.0,0.000295367046197621,0.00035162013606361553,3.140470536363854,0.0012110371465981185,8.683031738930437e-05,0.0005389597774898808,0.0008118574280849765,3.140383568942543,,,,
2025-04-30 00:19:19.556226,-0.007105990527343842,0.009337386474609355,0.18184732824427485,0.0,0.0,0.000295367046197621,0.00035162013606361553,3.140515881679604,0.0009688297172784949,6.946425391144349e-05,0.000556262147802069,0.0008130979930916031,3.1404136862116974,,,,
2025-04-30 00:19:19.575156,0.01204762275390614,0.009337386474609355,-0.22273282442748088,0.0,0.0,0.000295367046197621,0.00035162013606361553,3.140442294813055,0.000775063773822796,5.5571403129154794e-05,0.0005746015920180923,0.000814412915401372,3.1404737652553236,,,,
2025-04-30 00:19:19.587844,0.004865017773437508,0.016519991455078098,0.1894809160305344,0.0,0.0,0.000295367046197621,0.00035162013606361553,3.1404842561820225,0.0006200510190582368,4.4457122503323835e-05,0.0005844359099356957,0.0008151180275017659,3.1404244401073202,,,,
2025-04-30 00:19:19.601081,-0.031048007128906097,-0.01699883178710937,0.15894656488549624,0.0,0.0,0.000295367046197621,0.00035162013606361553,3.1405209774836553,0.0004960408152465894,3.556569800265907e-05,0.0005926435249722104,0.0008157065064106348,3.1404682157364205,,,,
2025-04-30 00:19:19.614862,-0.01907699882812519,-0.02657563842773436,-0.1845648854961831,0.0,0.0,0.000295367046197621,0.00035162013606361553,3.140476585771816,0.00039683265219727157,2.845255840212726e-05,0.0005994793802564406,0.0008161966313301093,3.1405064457068037,,,,
2025-04-30 00:19:19.628865,-0.016682797167968832,-0.01699883178710937,-0.3677709923664122,0.0,0.0,0.000295367046197621,0.00035162013606361553,3.140386701332542,0.0003174661217578173,2.2762046721701808e-05,0.0006050363377383386,0.0008165950603817924,3.140461337442186,,,,
2025-04-30 00:19:19.643181,-0.12921027519531236,0.009337386474609355,0.3726870229007634,0.0,0.0,0.00032577001699614794,0.0003500352358344662,3.14047982039245,0.0021237289038578506,-0.00011070952403567008,0.0006095811330800563,0.0008169209182822699,3.140369446694813,,,,
2025-04-30 00:19:19.657375,0.03838384101562475,0.006943184814453107,-0.17693129770992355,0.0,0.0,0.00032577001699614794,0.0003500352358344662,3.140435989542336,0.0016989831230862806,-8.856761922853608e-05,0.000639724859627624,0.0008153495323993164,3.140461771734258,,,,
2025-04-30 00:19:19.670364,0.02401863105468749,0.016519991455078098,0.029175572519084036,0.0,0.0,0.00032577001699614794,0.0003500352358344662,3.140442603933761,0.0013591864984690246,-7.085409538282887e-05,0.0006617938366288111,0.0008141990814470705,3.140421659655648,,,,
2025-04-30 00:19:19.683510,-0.06217262871093743,0.03327940307617183,0.021541984732824482,0.0,0.0,0.00035380135926250055,0.00034347486625547927,3.1404475462502837,0.002132438033792179,-0.0004990692729957977,0.0006796606263496062,0.0008132676896001914,3.1404283533245883,,,,
2025-04-30 00:19:19.697246,-0.13399867851562508,0.11707646118164061,-0.24563358778625943,0.0,0.0,0.0004072589455487121,0.00031507811267816123,3.140388657377287,0.003891716735352557,-0.002067286026249858,0.0007089523240612891,0.0008064123502889779,3.140433517859351,,,,
2025-04-30 00:19:19.710392,0.002470816113281149,0.0045489831542968595,0.021541984732824482,0.0,0.0,0.0004072589455487121,0.00031507811267816123,3.140393600142011,0.003113373388282046,-0.0016538288209998865,0.0007601143907086613,0.000779234980339776,3.1403771577306148,,,,
2025-04-30 00:19:19.723649,-0.04062481376953109,0.002154781494140612,-0.48990839694656485,0.0,0.0,0.0004072589455487121,0.00031507811267816123,3.14028024778103,0.002490698710625637,-0.0013230630567999094,0.000801387722472083,0.000757310521851775,3.140382141998786,,,,
2025-04-30 00:19:19.736336,-0.16272909843750005,-0.04094084838867185,-0.19219847328244266,0.0,0.0,0.00046390088760533233,0.0003050515247375634,3.1402376909954404,0.0044647445854400485,-0.0007903357934562638,0.0008329859492794629,0.0007405254942726153,3.140273665972669,,,,
2025-04-30 00:19:19.749958,0.009653421093749781,-0.17501614135742183,0.08261068702290081,0.0,0.0,0.0005217914816616967,0.00032633059619746304,3.1402573319924616,0.004249698092498346,0.0015620781038319601,0.0008938059677220228,0.0007297593156897283,3.1402279700732976,,,,
2025-04-30 00:19:19.762733,-0.007105990527343842,0.02370259643554684,0.18184732824427485,0.0,0.0,0.0005217914816616967,0.00032633059619746304,3.1402978798229912,0.0033997584739986772,0.0012496624830655681,0.0009480986637894809,0.0007497158937522235,3.140246390383179,,,,
2025-04-30 00:19:19.776243,0.01204762275390614,0.018914193115234346,0.13604580152671764,0.0,0.0,0.0005217914816616967,0.00032633059619746304,3.140329956879293,0.002719806779198942,0.0009997299864524546,0.000994026930947444,0.0007665979260549514,3.140289266583113,,,,
2025-04-30 00:19:19.789557,7.661445312479032e-05,-0.012210428466796874,0.052076335877862645,0.0,0.0,0.0005217914816616967,0.00032633059619746304,3.140342058028723,0.0021758454233591538,0.0007997839891619638,0.0010302384621027458,0.0007799083398049954,3.1403208799934244,,,,
2025-04-30 00:19:19.802279,0.0072592194335938665,0.002154781494140612,0.14367938931297713,0.0,0.0,0.0005217914816616967,0.00032633059619746304,3.1403739625456666,0.001740676338687323,0.000639827191329571,0.001057921157331016,0.0007900837760665658,3.140332443728128,,,,
2025-04-30 00:19:19.815388,0.009653421093749781,-0.0026336218261718836,0.09787786259541992,0.0,0.0,0.0005217914816616967,0.00032633059619746304,3.140396356478544,0.0013925410709498586,0.0005118617530636569,0.0010807396290321719,0.0007984712507133425,3.1403653168060113,,,,
2025-04-30 00:19:19.828828,0.0072592194335938665,0.02609679809570309,0.15894656488549624,0.0,0.0,0.0005217914816616967,0.00032633059619746304,3.140433639975897,0.0011140328567598868,0.0004094894024509255,0.0010994549010223385,0.0008053504962377962,3.140388275647768,,,,
2025-04-30 00:19:19.842285,7.661445312479032e-05,-0.009816226806640627,0.1894809160305344,0.0,0.0,0.0005217914816616967,0.00032633059619746304,3.1404781441475276,0.0008912262854079095,0.00032759152196074043,0.0011144467734681496,0.0008108611172685894,3.140425608089219,,,,
2025-04-30 00:19:19.855424,0.06950846259765608,-0.007422025146484379,-0.24563358778625943,0.0,0.0,0.0005215093082142579,0.00033181804961603654,3.1404218167268816,-2.1476395791654732e-05,0.0004176534772326446,0.0011261563915922195,0.000815165267275888,3.140469058870351,,,,
2025-04-30 00:19:19.868323,0.06472005927734381,0.011731588134765603,-0.238,0.0,0.0,0.0005106829874960121,0.00033519759010648226,3.1403682370965753,-0.0008393353227079237,0.0002620066208986614,0.001125879374359152,0.0008205524473114227,3.1404137607324336,,,,
2025-04-30 00:19:19.881984,0.009653421093749781,-0.02657563842773436,0.18184732824427485,0.0,0.0,0.0005106829874960121,0.00033519759010648226,3.140411596828537,-0.000671468258166339,0.00020960529671892913,0.0011144126916088108,0.000824131882989932,3.1403570119404303,,,,
2025-04-30 00:19:19.894901,0.047960647656249744,0.011731588134765603,0.1894809160305344,0.0,0.0,0.0005106829874960121,0.00033519759010648226,3.1404543127594113,-0.0005371746065330712,0.0001676842373751433,0.0011057396282461124,0.0008268392634170647,3.140398006981333,,,,
2025-04-30 00:19:19.908539,0.019230227734374772,0.12425906616210936,0.15894656488549624,0.0,0.0,0.0004999731344671917,0.0003147924479655079,3.1404921472085703,-0.0007852801321293178,-0.0014961692446629953,0.0010984135023817232,0.0008291261843056246,3.1404431095986136,,,,
2025-04-30 00:19:19.921369,0.047960647656249744,0.02370259643554684,0.2581832061068703,0.0,0.0,0.00048235908975610253,0.00029216540990324,3.1405499600860907,-0.0013729030362725826,-0.001763634064014022,0.0010883385305937596,0.0008099306611881288,3.140478701217552,,,,
2025-04-30 00:19:19.934449,-0.0023175872070311243,-0.019393033447265617,0.09024427480916036,0.0,0.0,0.00048235908975610253,0.00029216540990324,3.140570561680933,-0.0010983224290180662,-0.0014109072512112177,0.0010703811213375516,0.0007868625363250112,3.1405376410873513,,,,
2025-04-30 00:19:19.947503,-0.021471200488281106,-0.014604630126953122,-0.253267175572519,0.0,0.0,0.00048235908975610253,0.00029216540990324,3.1405128600051904,-0.000878657943214453,-0.0011287258009689742,0.0010560439985846065,0.0007684450389497458,3.140558201374609,,,,
2025-04-30 00:19:19.960789,0.14133451240234374,-0.03615244506835935,-0.10822900763358778,0.0,0.0,0.0004464738650956911,0.00028374991776016487,3.1404877622663148,-0.002700860273723482,-0.000633382363581476,0.0010443696302366147,0.0007534481213595093,3.1404994700457602,,,,
2025-04-30 00:19:19.973598,0.03598963935546884,-0.0026336218261718836,0.006274809160305428,0.0,0.0,0.0004464738650956911,0.00028374991776016487,3.140489165088071,-0.0021606882189787856,-0.0005067058908651808,0.0010097735639843669,0.0007453349514829867,3.1404752739303636,,,,
2025-04-30 00:19:19.986453,-0.035836410449218814,0.028490999755859336,0.11314503816793897,0.0,0.0,0.0004464738650956911,0.00028374991776016487,3.1405145487649366,-0.0017285505751830285,-0.00040536471269214463,0.0009819998631181391,0.0007388217036592464,3.140476681660925,,,,
2025-04-30 00:19:20.000487,7.661445312479032e-05,0.006943184814453107,0.11314503816793897,0.0,0.0,0.0004464738650956911,0.00028374991776016487,3.140542262990463,-0.001382840460146423,-0.00032429177015371575,0.0009577409154935574,0.0007331327053301051,3.1405043958864516,,,,
2025-04-30 00:19:20.013804,-0.12921027519531236,0.03567360473632819,-0.1845648854961831,0.0,0.0,0.0004508764931489323,0.0002732930963354636,3.140499365056924,0.00033059940658517714,-0.0007852171284895117,0.0009393254795256498,0.0007288140767534197,3.140530693891701,,,,
2025-04-30 00:19:20.028225,-0.0023175872070311243,0.02370259643554684,0.006274809160305428,0.0,0.0,0.0004508764931489323,0.0002732930963354636,3.1405009444129073,0.0002644795252681417,-0.0006281737027916094,0.0009440931278186962,0.0007174902841883255,3.1404842393065895,,,,
2025-04-30 00:19:20.042392,0.04556644599609383,0.0045489831542968595,-0.14639694656488544,0.0,0.0,0.0004508764931489323,0.0002732930963354636,3.140464746007644,0.0002115836202145134,-0.0005025389622332876,0.0009478400278695648,0.0007085909031244875,3.1404857908286004,,,,
2025-04-30 00:19:20.055967,0.059931655957031094,-0.043335050048828094,0.19711450381679396,0.0,0.0,0.0004428766292750023,0.00027444525400007716,3.1405114474855766,-0.0005893155776714599,8.487450166533686e-05,0.0009507122413724853,0.0007017690178027089,3.1404511056398543,,,,
2025-04-30 00:19:20.071743,-0.12681607353515645,0.009337386474609355,-0.1692977099236641,0.0,0.0,0.0004646952778272205,0.0002734450573164275,3.140464831352554,0.0013829932281084279,-6.339830063046469e-05,0.0009414149655693727,0.0007031080315341164,3.1405053811284875,,,,
2025-04-30 00:19:20.086442,0.019230227734374772,0.06679822631835941,-0.0547938931297709,0.0,0.0,0.000480528983156379,0.0002583936288556499,3.140450774674366,0.0010772323373383764,-0.0010240108126318497,0.0009617428990031163,0.0007021761712698465,3.140461949948653,,,,
2025-04-30 00:19:20.103348,0.014441824414062499,-0.012210428466796874,-0.154030534351145,0.0,0.0,0.000480528983156379,0.0002583936288556499,3.1404053255368813,0.0008617858698707012,-0.0008192086501054798,0.0009799546137019858,0.0006848642208931184,3.1404457821466476,,,,
2025-04-30 00:19:20.117381,0.014441824414062499,-0.009816226806640627,-0.0013587786259541268,0.0,0.0,0.000480528983156379,0.0002583936288556499,3.140404992751461,0.000689428695896561,-0.0006553669200843839,0.0009920477120904144,0.0006733685916971283,3.1404080577409315,,,,
2025-04-30 00:19:20.130606,-0.01907699882812519,0.0045489831542968595,-0.30670229007633587,0.0,0.0,0.000480528983156379,0.0002583936288556499,3.140334198095279,0.0005515429567172489,-0.0005242935360675071,0.0010011656251434687,0.0006647011564268186,3.1404077441004117,,,,
2025-04-30 00:19:20.143264,-0.14836388847656234,-0.00023942016601563587,0.1742137404580153,0.0,0.0,0.0005106664772735275,0.00025189908577870216,3.1403726856902856,0.0023809273158451045,-0.0005130829708578497,0.0010081469901363437,0.0006580647113519361,3.140339986910324,,,,
2025-04-30 00:19:20.156838,0.02401863105468749,-0.007422025146484379,-0.19219847328244266,0.0,0.0,0.0005106664772735275,0.00025189908577870216,3.1403271521450793,0.0019047418526760838,-0.0004104663766862798,0.001040465423629245,0.0006511001821285298,3.140381259710733,,,,
2025-04-30 00:19:20.169344,0.1197866974609374,0.002154781494140612,-0.37540458015267175,0.0,0.0,0.0005156503768670975,0.0002465629269510332,3.140245212205032,0.0003985204179072925,-0.0004266876180182098,0.0010642861407590169,0.0006459668862771318,3.1403393083542217,,,,
2025-04-30 00:19:20.183224,0.1293635041015624,-0.012210428466796874,-0.03189312977099229,0.0,0.0,0.0004966503131463151,0.0002430973915239023,3.1402374860320945,-0.0013688792494345688,-0.0002496780855103643,0.0010698176099060573,0.0006400444559863932,3.140248365861948,,,,
2025-04-30 00:19:20.196611,0.016836026074218857,0.03567360473632819,-0.08532824427480912,0.0,0.0,0.0004966503131463151,0.0002430973915239023,3.140217548311662,-0.0010951033995476552,-0.00019974246840829144,0.0010514914924824633,0.0006367018456611574,3.1402409137420726,,,,
2025-04-30 00:19:20.209885,-0.0023175872070311243,0.009337386474609355,-0.17693129770992355,0.0,0.0,0.0004966503131463151,0.0002430973915239023,3.1401765593657265,-0.0008760827196381242,-0.00015979397472663315,0.0010369556620889067,0.0006340505684900952,3.140221146098718,,,,
2025-04-30 00:19:20.222266,0.03598963935546884,-0.16065093139648434,-0.008992366412213681,0.0,0.0,0.00048064766686144915,0.00026530089835872454,3.140174616162856,-0.0012924835516974179,0.0017933076107011642,0.0010261086057683521,0.0006320721089169386,3.140182912180097,,,,
2025-04-30 00:19:20.235018,0.019230227734374772,-0.03615244506835935,-0.047160305343511344,0.0,0.0,0.00048064766686144915,0.00026530089835872454,3.140164120500978,-0.0010339868413579343,0.0014346460885609315,0.0010096277074368451,0.0006549391855387406,3.1401809109030347,,,,
2025-04-30 00:19:20.248551,-0.0095001921875002,-0.01699883178710937,-0.10059541984732823,0.0,0.0,0.00048064766686144915,0.00026530089835872454,3.1401403588664003,-0.0008271894730863474,0.0011477168708487453,0.0009956339046391263,0.0006743554427335365,3.140169771171784,,,,
2025-04-30 00:19:20.261764,0.019230227734374772,0.016519991455078098,-0.08532824427480912,0.0,0.0,0.00048064766686144915,0.00026530089835872454,3.1401206821201897,-0.000661751578469078,0.0009181734966789963,0.000984704711373682,0.0006895195857789203,3.140146573805389,,,,
2025-04-30 00:19:20.275050,0.016836026074218857,0.009337386474609355,0.1665801526717558,0.0,0.0,0.00048064766686144915,0.00026530089835872454,3.140159309797025,-0.0005294012627752625,0.0007345387973431971,0.0009759126046351701,0.0007017185432879453,3.140126787343485,,,,
2025-04-30 00:19:20.288397,0.026412832714843848,0.02609679809570309,0.0597099236641222,0.0,0.0,0.00048064766686144915,0.00026530089835872454,3.1401732190764253,-0.00042352101022021,0.0005876310378745577,0.0009688467333746649,0.0007115223668577365,3.1401655917790614,,,,
2025-04-30 00:19:20.303960,-0.06217262871093743,-0.06727706665039057,-0.29143511450381676,0.0,0.0,0.00048896963679449,0.000290210264987639,3.1400940577842547,0.0005347274921568833,0.0016005492997291848,0.000962255471162118,0.0007206676752636841,3.1401818105340342,,,,
2025-04-30 00:19:20.321638,0.04556644599609383,-0.021787235107421865,0.0597099236641222,0.0,0.0,0.0004842881135970026,0.00032463217644198027,3.1401124806659415,-0.0002648216579674717,0.0019471584946200034,0.0009717083957381516,0.0007489622216120222,3.1400918912324443,,,,
2025-04-30 00:19:20.336345,-0.016682797167968832,0.028490999755859336,-0.13112977099236633,0.0,0.0,0.0004842881135970026,0.00032463217644198027,3.140078820251736,-0.00021185732637397735,0.0015577267956960027,0.0009678135139087236,0.0007776001823359274,3.140107218497546,,,,
2025-04-30 00:19:20.350649,0.04317224433593747,0.03567360473632819,-0.27616793893129765,0.0,0.0,0.0004726505463755458,0.0003393289380423711,3.140009874774925,-0.0008135927118464063,0.0010274637214362167,0.0009647831230987569,0.0007998817859363774,3.140074481878588,,,,
2025-04-30 00:19:20.362740,0.0072592194335938665,-0.04094084838867185,0.14367938931297713,0.0,0.0,0.0004726505463755458,0.0003393289380423711,3.1400401943196137,-0.0006508741694771251,0.0008219709771489734,0.0009549462315422185,0.0008123045240692055,3.140016204305123,,,,
2025-04-30 00:19:20.375931,-0.06935523369140606,-0.005027823486328131,-0.238,0.0,0.0,0.0004760642714857961,0.0003507928154365498,3.139985401494595,0.00025879696498614285,0.0008690848210590551,0.0009463607154946235,0.0008231469347008011,3.1400492824548603,,,,
2025-04-30 00:19:20.388783,-0.13639288017578144,0.11228805786132812,0.03680916030534359,0.0,0.0,0.0005013725194557036,0.00034352760107861537,3.1399936581170005,0.0019692140931856965,-0.0005653003922148594,0.000949686762056241,0.0008343163724142306,3.139995896935708,,,,
2025-04-30 00:19:20.402102,-0.09808565361328148,-0.01699883178710937,-0.16166412213740455,0.0,0.0,0.0005441327855088539,0.00033907624758013093,3.1399560775662634,0.003210467473646579,-0.00033421039997327964,0.0009759147550919689,0.0008267871277265087,3.140004453617909,,,,
2025-04-30 00:19:20.414901,-0.09329725029296876,-0.028969840087890608,-0.12349618320610678,0.0,0.0,0.000599386053117054,0.0003395099869124279,3.1399284908704495,0.004317070923999552,3.388909907251282e-05,0.001017004841771498,0.0008225096402836897,3.1399683409313006,,,,
2025-04-30 00:19:20.428374,-0.06696103203125015,-0.01699883178710937,0.03680916030534359,0.0,0.0,0.0006683065105681327,0.0003429619077407842,3.139937146806733,0.005115256058339633,0.0002562005474599741,0.0010751709432407913,0.0008229662454240863,3.1399392999240017,,,,
2025-04-30 00:19:20.442667,0.002470816113281149,0.01412578979492185,0.06734351145038175,0.0,0.0,0.0006683065105681327,0.0003429619077407842,3.139953946540844,0.004092204846671706,0.00020496043796797928,0.0011482842895069326,0.0008266281695049888,3.139948482458334,,,,
2025-04-30 00:19:20.455229,0.0503548493164061,0.002154781494140612,-0.4135725190839694,0.0,0.0,0.0007108962732864969,0.0003451653317164814,3.1398632729427742,0.0033904193009544063,0.0001754067338855679,0.0011996897405570804,0.0008292028411443494,3.1399632471687733,,,,
2025-04-30 00:19:20.469409,0.02401863105468749,0.02609679809570309,-0.06242748091603045,0.0,0.0,0.0007108962732864969,0.0003451653317164814,3.1398478232295663,0.0027123354407635253,0.00014032538710845432,0.0012477648914056986,0.0008316900571618604,3.1398608951802447,,,,
2025-04-30 00:19:20.482952,0.014441824414062499,0.002154781494140612,-0.07006106870229001,0.0,0.0,0.0007108962732864969,0.0003451653317164814,3.1398312624496807,0.0021698683526108205,0.00011226030968676347,0.001284499046753659,0.0008335905354330338,3.139846138799998,,,,
2025-04-30 00:19:20.496310,0.04556644599609383,0.02370259643554684,0.09787786259541992,0.0,0.0,0.0007313267215017984,0.0003425037801416236,3.1398540824061256,0.001529413529979697,-0.00019924247116015953,0.0013134849175747611,0.0008350901484537971,3.139829804253106,,,,
2025-04-30 00:19:20.508991,-0.1411812834960937,0.018914193115234346,-0.0013587786259541268,0.0,0.0,0.0007725723550938224,0.0003370089519506882,3.1398537816966123,0.003252796441741138,-0.0004333442362468608,0.0013328779632811381,0.0008325637432179864,3.139851465474323,,,,
2025-04-30 00:19:20.521203,0.01204762275390614,0.01412578979492185,0.03680916030534359,0.0,0.0,0.0007725723550938224,0.0003370089519506882,3.1398616273642284,0.0026022371533929107,-0.00034667538899748864,0.0013726020126916874,0.0008272716236031381,3.1398511758582224,,,,
2025-04-30 00:19:20.534601,0.1102098908203124,-0.17980454467773432,-0.008992366412213681,0.0,0.0,0.0007874069111148329,0.0003641219378601141,3.139859524569587,0.0011072075887456094,0.00202363344814308,0.0014074672296793135,0.0008226268076431831,3.139859783392824,,,,
2025-04-30 00:19:20.547656,-0.1411812834960937,0.01412578979492185,0.14367938931297713,0.0,0.0,0.0008251506069682962,0.00038761318211657993,3.1398922631251174,0.0028910576444166093,0.0017993611846647386,0.00142192218409953,0.0008490459990879184,3.1398577344066156,,,,
2025-04-30 00:19:20.561503,-0.03823061210937517,-0.005027823486328131,0.12841221374045808,0.0,0.0,0.0008251506069682962,0.00038761318211657993,3.1399232964258843,0.0023128461155332877,0.0014394889477317909,0.0014619536064320036,0.0008739610981178823,3.1398924573163196,,,,
2025-04-30 00:19:20.574004,-0.011894393847656115,0.01412578979492185,-0.27616793893129765,0.0,0.0,0.0008251506069682962,0.00038761318211657993,3.1398630388031394,0.0018502768924266303,0.0011515911581854328,0.0014908676017141738,0.000891956837810169,3.1399204758283936,,,,
2025-04-30 00:19:20.588891,0.13175770576171875,0.009337386474609355,-0.08532824427480912,0.0,0.0,0.0008235255482742821,0.0004024358581715233,3.139840868776674,-0.00010916238537673901,0.00099570475933236,0.0015184119663778288,0.0009091001350833137,3.139848721738443,,,,
2025-04-30 00:19:20.604258,0.02401863105468749,0.03567360473632819,-0.27616793893129765,0.0,0.0,0.0008235255482742821,0.0004024358581715233,3.1397668013732005,-8.732990830139122e-05,0.0007965638074658881,0.0015167345166597584,0.0009244006862947875,3.1398258369621694,,,,
2025-04-30 00:19:20.619063,0.13175770576171875,0.11228805786132812,-0.07006106870229001,0.0,0.0,0.0007939107015507424,0.00038992461492816437,3.1397486974860547,-0.00200028455138538,-0.0008450506873102746,0.001515441569690321,0.0009361940659153436,3.1397544747450015,,,,
2025-04-30 00:19:20.633541,-0.007105990527343842,0.030885201416015584,0.06734351145038175,0.0,0.0,0.0007939107015507424,0.00038992461492816437,3.139765714117483,-0.0016002276411083039,-0.0006760405498482197,0.0014864819904375234,0.0009239596503993893,3.139736771430192,,,,
2025-04-30 00:19:20.646659,-0.033442208789062455,0.12186486450195311,0.11314503816793897,0.0,0.0,0.0007789409008278937,0.0003606694065803569,3.1397916204022303,-0.0011411001572231604,-0.0022300312117265603,0.0014654890138377484,0.0009150908475622921,3.1397521907557917,,,,
2025-04-30 00:19:20.660521,-0.028653805468750182,0.011731588134765603,0.12841221374045808,0.0,0.0,0.0007789409008278937,0.0003606694065803569,3.1398226862981957,-0.0009128801257785284,-0.0017840249693812484,0.0014496720199001034,0.0008841799849764236,3.1397795631675147,,,,
2025-04-30 00:19:20.673244,0.02162442939453113,0.0045489831542968595,0.006274809160305428,0.0,0.0,0.0007789409008278937,0.0003606694065803569,3.1398240797201113,-0.0007303041006228228,-0.0014272199755049988,0.0014380570390135734,0.0008614810398079284,3.1398080791571275,,,,
2025-04-30 00:19:20.686690,0.06711426093750017,0.0045489831542968595,0.13604580152671764,0.0,0.0,0.0007574247745741337,0.0003410773421633455,3.1398560067566486,-0.0016001768606601532,-0.0014570823652415624,0.001428237302446356,0.0008422905078487392,3.139809551720478,,,,
2025-04-30 00:19:20.700395,0.03120123603515612,0.052433016357421924,0.3345190839694657,0.0,0.0,0.0007301742893513749,0.00031186620442276886,3.1399360215397274,-0.0019883932217347696,-0.0021314566624308774,0.0014063072357882248,0.0008223215193064648,3.1398420929888826,,,,
2025-04-30 00:19:20.716278,0.01204762275390614,-0.00023942016601563587,0.021541984732824482,0.0,0.0,0.0007301742893513749,0.00031186620442276886,3.13994199319552,-0.0015907145773878157,-0.001705165329944702,0.0013747256480812948,0.0007884676594198614,3.139934825058385,,,,
2025-04-30 00:19:20.730066,0.02401863105468749,-0.012210428466796874,-0.06242748091603045,0.0,0.0,0.0007301742893513749,0.00031186620442276886,3.1399269700288546,-0.0012725716619102526,-0.0013641322639557616,0.0013527925203348338,0.0007649564591441155,3.1399400091347274,,,,
2025-04-30 00:19:20.742741,-0.0095001921875002,-0.014604630126953122,0.0597099236641222,0.0,0.0,0.0007301742893513749,0.00031186620442276886,3.1399401791358867,-0.0010180573295282022,-0.0010913058111646093,0.001336662614810071,0.0007476660186923313,3.1399261988461427,,,,
2025-04-30 00:19:20.755521,0.014441824414062499,0.006943184814453107,0.2734503816793894,0.0,0.0,0.0007301742893513749,0.00031186620442276886,3.1400011739897886,-0.0008144458636225618,-0.0008730446489316875,0.001323651649202421,0.0007337189236077434,3.1399395175259266,,,,
2025-04-30 00:19:20.769690,-0.007105990527343842,-0.007422025146484379,0.1665801526717558,0.0,0.0,0.0007301742893513749,0.00031186620442276886,3.1400423677876383,-0.0006515566908980495,-0.00069843571914535,0.001312111978071439,0.0007213489815633155,3.140007139385819,,,,
2025-04-30 00:19:20.784546,-0.05020162041015608,-0.021787235107421865,0.12077862595419853,0.0,0.0,0.0007315535253395619,0.00030639354869970293,3.1400736842191495,9.283970763102808e-05,-0.00036837768275069124,0.001302432386662102,0.0007109729506185709,3.1400503315971977,,,,
2025-04-30 00:19:20.798324,0.028807034374999763,0.018914193115234346,-0.1692977099236641,0.0,0.0,0.0007315535253395619,0.00030639354869970293,3.140032973740313,7.427176610482248e-05,-0.000294702146200553,0.0013037115073516326,0.0007058975413180536,3.140079374847092,,,,
2025-04-30 00:19:20.811503,0.08387367255859379,0.01412578979492185,0.06734351145038175,0.0,0.0,0.0007182321152458153,0.00030020481492445765,3.1400484642441024,-0.0010107826557010275,-0.000469579775470285,0.0013046903574032128,0.0007020135726696976,3.14004043261256,,,,
2025-04-30 00:19:20.823740,-0.01907699882812519,0.040462008056640686,0.4032213740458016,0.0,0.0,0.0007182321152458153,0.00030020481492445765,3.1401345848128406,-0.0008086261245608221,-0.00037566382037622803,0.001292321096288814,0.0006962671791952229,3.140054815931204,,,,
2025-04-30 00:19:20.836934,0.08626787421875015,0.009337386474609355,0.09787786259541992,0.0,0.0,0.0006930595402886042,0.0002937761345341233,3.14015712251849,-0.0019080062135559215,-0.0004872748278860233,0.0012816527863073017,0.0006913109973914387,3.140147663122579,,,,
2025-04-30 00:19:20.849795,0.047960647656249744,-0.012210428466796874,-0.08532824427480912,0.0,0.0,0.0006930595402886042,0.0002937761345341233,3.1401379687859245,-0.0015264049708447374,-0.00038981986230881866,0.001257113437899542,0.0006850440331190627,3.1401696338829077,,,,
2025-04-30 00:19:20.862648,0.014441824414062499,-0.043335050048828094,-0.0547938931297709,0.0,0.0,0.0006930595402886042,0.0002937761345341233,3.140125676659764,-0.00122112397667579,-0.00031185588984705497,0.0012374939686423754,0.0006800335287309852,3.1401504918675522,,,,
2025-04-30 00:19:20.875950,0.07190266425781244,0.006943184814453107,0.021541984732824482,0.0,0.0,0.0006646729633953237,0.0002885253484175273,3.1401306776906663,-0.0021341088548089983,-0.000394755210826012,0.001221251343725645,0.0006758854173650548,3.1401377713148175,,,,
2025-04-30 00:19:20.888268,0.10302728583984377,0.042856209716796934,0.06734351145038175,0.0,0.0,0.0006235809471568221,0.00027740934506030937,3.1401451560069726,-0.0033358961033796313,-0.0009024096571283364,0.0011949631042245117,0.0006710227696593719,3.1401424026692286,,,,
2025-04-30 00:19:21.054692,0.009653421093749781,-0.012210428466796874,-0.06242748091603045,0.0,0.0,0.0006235809471568221,0.00027740934506030937,3.1400361994984016,-0.002668716882703705,-0.0007219277257026692,0.0006397890155970547,0.0005208398972200062,3.1403380121037614,,,,
2025-04-30 00:19:21.066215,-0.05259582207031244,0.042856209716796934,-0.2838015267175572,0.0,0.0,0.0006002789709347662,0.0002636688789326443,3.1399791217336435,-0.0020221710683620427,-0.0011924127294779905,0.0006090367324113735,0.0005125209458901404,3.140325456776412,,,,
2025-04-30 00:19:21.077868,0.09345047919921878,0.02609679809570309,-0.08532824427480912,0.0,0.0,0.000564743421750702,0.00024659868577533734,3.139961767125409,-0.003049428076291854,-0.00146485216851413,0.000585471999071031,0.000498625539887453,3.140267735392896,,,,
2025-04-30 00:19:21.090305,0.08626787421875015,-0.033758243408203104,0.1665801526717558,0.0,0.0,0.0005145081056303049,0.00023388287200626543,3.1399979257252446,-0.004039226043728364,-0.0010224290421530812,0.0005475466683912118,0.0004804073686441738,3.1402492136795352,,,,
2025-04-30 00:19:21.102263,0.06950846259765608,-0.0026336218261718836,-0.02425954198473279,0.0,0.0,0.00045743515483296965,0.00022228616406262075,3.1399928627519595,-0.0047729255058632635,-0.0009698153390529294,0.0004992470356041863,0.00046818152469482114,3.14028397900459,,,,
2025-04-30 00:19:21.114990,-0.03823061210937517,-0.007422025146484379,0.052076335877862645,0.0,0.0,0.00045743515483296965,0.00022228616406262075,3.140004430603953,-0.003818340404690611,-0.0007758522712423435,0.0004385007689163181,0.0004558384321509036,3.1402785901694044,,,,
2025-04-30 00:19:21.127077,-0.08132624199218741,-0.007422025146484379,0.1665801526717558,0.0,0.0,0.00042385113814532004,0.0002141404829828467,3.1400395723211503,-0.0027784992312972264,-0.0006739148812675432,0.00039234808100990976,0.0004464606229613043,3.1402895761832763,,,,
2025-04-30 00:19:21.141450,-0.08611464531250013,0.028490999755859336,-0.11586259541984723,0.0,0.0,0.00040213941661502295,0.0001988526631227299,3.1400105078264477,-0.0015106091245008838,-0.0010636614025374466,0.00035241319606606165,0.0004367745618883986,3.140331363335958,,,,
2025-04-30 00:19:21.154898,0.12696930244140603,0.006943184814453107,0.2429160305343512,0.0,0.0,0.0003597250481267875,0.00018363810480122325,3.1400675241147495,-0.0031538977308740185,-0.0011313421059129993,0.0003320981644716429,0.00042247018979912535,3.1403041685265856,,,,
2025-04-30 00:19:21.168216,0.009653421093749781,-0.01699883178710937,0.15894656488549624,0.0,0.0,0.0003597250481267875,0.00018363810480122325,3.1401044702946703,-0.002523118184699215,-0.0009050736847303995,0.0002900943594907396,0.00040740290568326245,3.140360632907406,,,,
2025-04-30 00:19:21.181664,-0.14596968681640643,-0.007422025146484379,0.0597099236641222,0.0,0.0,0.0003523448158875465,0.00017298754823319025,3.140118484674465,-0.0005488074888656408,-0.0007919947524205203,0.00025616406781665623,0.0003952316905988209,3.140397938892588,,,,
2025-04-30 00:19:21.194925,0.11499829414062512,0.009337386474609355,-0.0013587786259541268,0.0,0.0,0.00032539405924206596,0.00016111564951365475,3.1401181702027876,-0.00203242954441306,-0.0008952920329199652,0.000248886680456148,0.00038472955147392094,3.140411757979451,,,,
2025-04-30 00:19:21.207212,-0.023865402148437465,-0.028969840087890608,0.13604580152671764,0.0,0.0,0.00032539405924206596,0.00016111564951365475,3.1401473464995595,-0.001625943635530448,-0.0007162336263359722,0.0002239129651842077,0.0003737285461122139,3.1404114665766443,,,,
2025-04-30 00:19:21.224231,0.09823888251953106,-0.019393033447265617,-0.06242748091603045,0.0,0.0,0.00027039920528432415,0.00015471546465803136,3.140128803414712,-0.0032314187881310728,-0.000376065687998104,0.00019624136374772754,0.00036153911284387804,3.140451876806303,,,,
2025-04-30 00:19:21.237765,0.0072592194335938665,0.011731588134765603,-0.07006106870229001,0.0,0.0,0.00027039920528432415,0.00015471546465803136,3.1401122540047837,-0.0025851350305048583,-0.0003008525503984832,0.00015250711870324615,0.0003564494138509342,3.1404371305571863,,,,
2025-04-30 00:19:21.252972,0.03120123603515612,-0.031364041748046856,0.19711450381679396,0.0,0.0,0.00027039920528432415,0.00015471546465803136,3.1401645707823973,-0.002068108024403887,-0.00024068204031878657,0.00011319483527059764,0.0003518743334032446,3.140418535429584,,,,
2025-04-30 00:19:21.266895,-0.007105990527343842,0.002154781494140612,0.013908396946564927,0.0,0.0,0.00027039920528432415,0.00015471546465803136,3.1401679505362896,-0.0016544864195231095,-0.00019254563225502928,8.440071250288367e-05,0.0003485233342604795,3.140466434444405,,,,
2025-04-30 00:19:21.280912,0.12457510078125011,-0.17022773803710933,-0.008992366412213681,0.0,0.0,0.00022373061874661842,0.00018488306724653576,3.140165750564666,-0.0033293459967929048,0.002152162607918874,6.120920800940342e-05,0.00034582435598966987,3.1404698371169837,,,,
2025-04-30 00:19:21.294708,-0.021471200488281106,0.021308394775390593,0.03680916030534359,0.0,0.0,0.00022373061874661842,0.00018488306724653576,3.1401746134334583,-0.002663476797434324,0.0017217300863350993,1.527883495765804e-05,0.000375514761115767,3.1404676719449727,,,,
2025-04-30 00:19:21.308517,0.03120123603515612,-0.0026336218261718836,0.23528244274809165,0.0,0.0,0.00022373061874661842,0.00018488306724653576,3.1402313193061304,-0.002130781437947459,0.0013773840690680795,-2.1501024735535068e-05,0.00039929007279332845,3.1404765433912782,,,,
2025-04-30 00:19:21.324266,0.11739249580078104,-0.02657563842773436,0.19711450381679396,0.0,0.0,0.00016231941412020234,0.00021263811758744046,3.140285499647997,-0.003899436245695185,0.0017623664925449688,-5.5058145984643245e-05,0.0004209821353339292,3.1405412148534815,,,,
2025-04-30 00:19:21.337447,-0.15794069511718734,-0.031364041748046856,-0.16166412213740455,0.0,0.0,0.00013884785988712,0.0002407090234805712,3.1402483065810998,-0.001780618467045909,0.002129538288076649,-0.0001064592917175218,0.0004442130977629344,3.1405865637709156,,,,
2025-04-30 00:19:21.349856,-0.043019015429687446,-0.014604630126953122,0.15894656488549624,0.0,0.0,0.00013884785988712,0.0002407090234805712,3.14028272883294,-0.0014244947736367273,0.0017036306304613195,-0.0001285536624400391,0.0004706369551334686,3.140551552991477,,,,
2025-04-30 00:19:21.363388,-0.014288595507812474,0.02370259643554684,-0.13112977099236633,0.0,0.0,0.00013884785988712,0.0002407090234805712,3.1402517585017655,-0.001139595818909382,0.0013629045043690557,-0.00014783015607571106,0.000493690760323489,3.1405890931146407,,,,
2025-04-30 00:19:21.376194,0.002470816113281149,-0.0026336218261718836,0.029175572519084036,0.0,0.0,0.00013884785988712,0.0002407090234805712,3.140258279289876,-0.0009116766551275056,0.0010903236034952447,-0.0001624234785982182,0.0005111437069468541,3.14055978539665,,,,
2025-04-30 00:19:21.389003,0.11499829414062512,0.009337386474609355,0.19711450381679396,0.0,0.0,0.00010890940903979749,0.0002529186007935869,3.140302347827117,-0.002337204089986938,0.0009531646837212403,-0.00017410161438666737,0.000525110223500015,3.1405663081272417,,,,
2025-04-30 00:19:21.401909,0.11260409248046876,0.02370259643554684,0.1894809160305344,0.0,0.0,6.096154638449189e-05,0.00026112809570810855,3.1403450298539557,-0.0037150705138565914,0.0006360836709208412,-0.00020426630178254113,0.000537412065193865,3.1406107096781652,,,,
2025-04-30 00:19:21.414932,0.016836026074218857,0.02609679809570309,-0.0013587786259541268,0.0,0.0,6.096154638449189e-05,0.00026112809570810855,3.1403447210081423,-0.0029720564110852733,0.000508866936736673,-0.0002526481779361029,0.0005456958706492418,3.1406537780533155,,,,
2025-04-30 00:19:21.428212,0.047960647656249744,-0.05530605834960933,0.2581832061068703,0.0,0.0,1.4005625747560551e-05,0.000277318521620893,3.140404561182546,-0.003535923548917641,0.0012191882828721434,-0.00029211612542895,0.0005524534589187845,3.140653463123653,,,,
2025-04-30 00:19:21.440889,0.07190266425781244,0.021308394775390593,-0.19219847328244266,0.0,0.0,-4.125076904332739e-05,0.00028912306011554147,3.1403620363879248,-0.004358806825092635,0.000931180963800909,-0.0003369408665587059,0.0005679090530265542,3.140710587343356,,,,
2025-04-30 00:19:21.454463,0.07908526923828108,-0.00023942016601563587,-0.154030534351145,0.0,0.0,-0.00011351490545929406,0.00030157155359580824,3.1403255445294365,-0.005323668746724886,0.000917075315246721,-0.0003961078482032944,0.0005805490183206866,3.1406650529983757,,,,
2025-04-30 00:19:21.467402,0.07908526923828108,-0.021787235107421865,-0.19983206106870222,0.0,0.0,-0.0001939873494948859,0.00031679118425410755,3.1402804185701716,-0.006219611813743994,0.0011763057003874725,-0.0004649881333584158,0.0005924145967832418,3.1406302699131112,,,,
2025-04-30 00:19:21.481053,0.0742968659179688,0.01412578979492185,-0.10822900763358778,0.0,0.0,-0.0002907640780088962,0.0003299661617226857,3.1402546326791105,-0.0070894058179619196,0.0009651365917347902,-0.0005498913959754617,0.0006084722214049634,3.1405826593152693,,,,
2025-04-30 00:19:21.494667,-0.13878708183593735,0.011731588134765603,-0.07769465648854956,0.0,0.0,-0.00036014473198170264,0.0003406779548885219,3.1402361711555407,-0.005096116744842792,0.0007867978376379412,-0.0006464095168420177,0.0006216119925798309,3.140556942329499,,,,
2025-04-30 00:19:21.507391,-0.014288595507812474,0.028490999755859336,0.006274809160305428,0.0,0.0,-0.00036014473198170264,0.0003406779548885219,3.1402375646296776,-0.004076893395874233,0.000629438270110353,-0.0007112521125238686,0.0006316231474696677,3.1405396883395182,,,,
2025-04-30 00:19:21.521014,0.014441824414062499,-0.1582567297363281,0.22764885496183213,0.0,0.0,-0.0004171626074456889,0.0003778675333027402,3.1402916918305532,-0.004185412820142102,0.00272991122527642,-0.0007667916279588151,0.0006401979845143443,3.1405411802769847,,,,
2025-04-30 00:19:21.533895,0.019230227734374772,-0.014604630126953122,0.19711450381679396,0.0,0.0,-0.0004171626074456889,0.0003778675333027402,3.1403360080774796,-0.003348330256113682,0.0021839289802211364,-0.0008207060960706777,0.0006753633834912568,3.140592361406093,,,,
2025-04-30 00:19:21.546676,-0.016682797167968832,0.002154781494140612,0.08261068702290081,0.0,0.0,-0.0004171626074456889,0.0003778675333027402,3.1403544356062936,-0.0026786642048909457,0.0017471431841769092,-0.000863499987908091,0.0007032754511224381,3.140636330695414,,,,
2025-04-30 00:19:21.559264,-0.021471200488281106,0.01412578979492185,0.3497862595419848,0.0,0.0,-0.0004171626074456889,0.0003778675333027402,3.140431284510631,-0.0021429313639127565,0.0013977145473415276,-0.0008972190775806165,0.0007252685316998527,3.140654480467199,,,,
2025-04-30 00:19:21.572195,-0.028653805468750182,0.002154781494140612,-0.17693129770992355,0.0,0.0,-0.0004171626074456889,0.0003778675333027402,3.1403913535481935,-0.0017143450911302053,0.0011181716378732222,-0.0009249290445866256,0.0007433421968871198,3.1407334224190846,,,,
2025-04-30 00:19:21.585721,0.016836026074218857,-0.031364041748046856,0.029175572519084036,0.0,0.0,-0.0004171626074456889,0.0003778675333027402,3.1403982408582323,-0.0013714760729041644,0.0008945373102985778,-0.0009481163951029012,0.0007584660117123084,3.1406916552626005,,,,
2025-04-30 00:19:21.599803,-0.031048007128906097,0.0045489831542968595,0.3039847328244275,0.0,0.0,-0.0004171626074456889,0.0003778675333027402,3.140472958215318,-0.0010971808583233316,0.0007156298482388622,-0.0009674307673263507,0.0007710636989197012,3.1406988264177103,,,,
2025-04-30 00:19:21.612581,0.07190266425781244,0.009337386474609355,0.4719236641221375,0.0,0.0,-0.0004424075233037742,0.0003853463427557678,3.140578202200929,-0.00197572167192041,0.000585307790272453,-0.0009814500691557179,0.0007802077071882162,3.140766618239311,,,,
2025-04-30 00:19:21.628694,-0.06456683037109379,-0.0026336218261718836,0.762,0.0,0.0,-0.00045717693210180156,0.000395245913605813,3.1407924993169964,-0.0009165984611624244,0.0006143733666937149,-0.0010132854281270916,0.0007896389362306922,3.1408993372422316,,,,
2025-04-30 00:19:21.645696,0.05514325263671882,0.0045489831542968595,0.4261221374045802,0.0,0.0,-0.0004880704552402623,0.00040420426878208775,3.1409189444146537,-0.001817091960086084,0.000526911582516757,-0.0010288690949918425,0.000800084284202353,3.141125448856619,,,,
2025-04-30 00:19:21.660928,-0.06456683037109379,0.018914193115234346,-0.008992366412213681,0.0,0.0,-0.000500517020007298,0.0004077591751582331,3.140916553868379,-0.0008171536234642471,0.00023339007032983325,-0.0010565463298708735,0.0008081099955863313,3.141238729904283,,,,
2025-04-30 00:19:21.672771,-0.11723926689453146,-0.02657563842773436,0.06734351145038175,0.0,0.0,-0.0004938834962299738,0.000414110295701244,3.1409304739683326,0.0005601122380586698,0.000536267067239059,-0.00106622404734008,0.000810874081917118,3.1412368711559555,,,,
2025-04-30 00:19:21.684831,0.04317224433593747,0.04764461303710943,-0.047160305343511344,0.0,0.0,-0.0004934220520802788,0.00041366106897820727,3.140920546822291,3.826032979169117e-05,-3.7247330117818434e-05,-0.0010594687340212466,0.0008173418071614864,3.141251046824842,,,,
2025-04-30 00:19:21.698859,0.07908526923828108,-0.024181436767578113,-0.19983206106870222,0.0,0.0,-0.0005081433620215525,0.0004178231223966143,3.1408716223928055,-0.0010494535517697363,0.00029670469272278995,-0.0010589320335904662,0.0008168193166803929,3.1412395006744345,,,,
2025-04-30 00:19:21.710881,0.09345047919921878,-0.02657563842773436,0.09024427480916036,0.0,0.0,-0.0005337403363877502,0.0004250919745827095,3.1408905574143464,-0.002129216666442713,0.0006046402593964654,-0.001071548333324793,0.000820386235225439,3.141197571982682,,,,
2025-04-30 00:19:21.724792,0.02162442939453113,-0.012210428466796874,-0.06242748091603045,0.0,0.0,-0.0005337403363877502,0.0004250919745827095,3.1408754007245854,-0.0017033733331541703,0.00048371220751717236,-0.0011011673775381515,0.0008287972470583311,3.1412194822769295,,,,
2025-04-30 00:19:21.738086,0.009653421093749781,-0.00023942016601563587,-0.06242748091603045,0.0,0.0,-0.0005337403363877502,0.0004250919745827095,3.1408609158066634,-0.0013626986665233364,0.00038696976601373793,-0.0011238123973213328,0.0008352278235475788,3.1412049973590075,,,,
2025-04-30 00:19:21.751094,0.04317224433593747,0.0045489831542968595,-0.21509923664122133,0.0,0.0,-0.0005337403363877502,0.0004250919745827095,3.140812079072557,-0.0010901589332186692,0.00030957581281099036,-0.001141539191717458,0.0008402617563224186,3.141190823648612,,,,
2025-04-30 00:19:21.764328,0.009653421093749781,0.021308394775390593,-0.40593893129770986,0.0,0.0,-0.0005337403363877502,0.0004250919745827095,3.1407183172754918,-0.0008721271465749353,0.0002476606502487923,-0.0011559662461002995,0.0008443586516933072,3.1411411410746584,,,,
2025-04-30 00:19:21.776578,0.019230227734374772,0.021308394775390593,0.09024427480916036,0.0,0.0,-0.0005337403363877502,0.0004250919745827095,3.140737610921977,-0.0006977017172599483,0.00019812852019903383,-0.0011666493412065978,0.0008473923633385486,3.1410543539377276,,,,
2025-04-30 00:19:21.789530,-0.014288595507812474,0.016519991455078098,-0.047160305343511344,0.0,0.0,-0.0005337403363877502,0.0004250919745827095,3.1407269500235326,-0.0005581613738079586,0.00015850281615922707,-0.0011756860361600743,0.0008499585416269636,3.141074754251973,,,,
2025-04-30 00:19:21.803314,-0.035836410449218814,-0.00023942016601563587,0.006274809160305428,0.0,0.0,-0.0005337403363877502,0.0004250919745827095,3.1407284595857,-0.0004465290990463669,0.00012680225292738167,-0.0011833796944321817,0.0008521433336242604,3.1410634086618643,,,,
2025-04-30 00:19:21.816291,-0.043019015429687446,0.021308394775390593,-0.08532824427480912,0.0,0.0,-0.0005337403363877502,0.0004250919745827095,3.1407091332905877,-0.00035722327923709356,0.00010144180234190534,-0.0011891743575899055,0.0008537888620902079,3.1410648298655306,,,,
2025-04-30 00:19:21.829009,-0.043019015429687446,-0.014604630126953122,-0.20746564885496177,0.0,0.0,-0.0005337403363877502,0.0004250919745827095,3.1406630829383246,-0.0002857786233896749,8.115344187352428e-05,-0.001193717424606761,0.000855078970918877,3.1410458898832805,,,,
2025-04-30 00:19:21.841563,0.02401863105468749,0.02609679809570309,-0.10822900763358778,0.0,0.0,-0.0005337403363877502,0.0004250919745827095,3.1406393673585185,-0.00022862289871173992,6.492275349881942e-05,-0.0011973053420607836,0.0008560978429643029,3.141000429167525,,,,
2025-04-30 00:19:21.854561,0.07190266425781244,0.009337386474609355,0.07497709923664125,0.0,0.0,-0.0005485580752697573,0.0004243841922992385,3.140656376017744,-0.0011400341452740062,-5.445473003689559e-05,-0.001200276897280951,0.0008569416847148631,3.14097587726664,,,,
2025-04-30 00:19:21.867559,0.03598963935546884,0.002154781494140612,-0.016625954198473236,0.0,0.0,-0.0005485580752697573,0.0004243841922992385,3.140652604396914,-0.000912027316219205,-4.3563784029516477e-05,-0.0012150946361629581,0.0008562339024313922,3.1409928859258653,,,,
2025-04-30 00:19:21.880930,7.661445312479032e-05,-0.00023942016601563587,-0.06242748091603045,0.0,0.0,-0.0005485580752697573,0.0004243841922992385,3.140638035832228,-0.0007296218529753641,-3.4851027223613184e-05,-0.0012272893449747672,0.0008556514114779602,3.1409890059632968,,,,
2025-04-30 00:19:21.895328,0.009653421093749781,-0.00023942016601563587,0.18184732824427485,0.0,0.0,-0.0005485580752697573,0.0004243841922992385,3.14068373452741,-0.0005836974823802913,-2.788082177889055e-05,-0.0012377948598217808,0.00085514960635461,3.140973317778879,,,,
2025-04-30 00:19:21.909044,0.04317224433593747,0.02370259643554684,-0.10059541984732823,0.0,0.0,-0.0005485580752697573,0.0004243841922992385,3.140659653085049,-0.0004669579859042331,-2.230465742311244e-05,-0.001245800844238708,0.0008547671934927579,3.1410168500387003,,,,
