timestamp,imu_accel_x,imu_accel_y,imu_gyro_z,gps_lat,gps_lng,odom_x,odom_y,odom_heading,odom_vx,odom_vy,ekf_x,ekf_y,ekf_heading,map_matched_lat,map_matched_lng,distance_to_path,progress
2025-04-30 00:01:00.913939,-0.013534421984862988,0.0316465575439453,-0.15870992366412218,,,0.0,0.0,3.141592653589793,0.0,0.0,0.0,0.0,3.141592653589793,,,,
2025-04-30 00:01:00.926416,-0.006351817004394356,0.005310339282226573,-0.4487862595419847,,,0.0,0.0,3.1414949206539933,0.0,0.0,0.0,0.0,3.141592653589793,,,,
2025-04-30 00:01:00.939586,0.005619191296386994,0.026858154223632802,0.32983969465648855,,,0.0,0.0,3.141570736210724,0.0,0.0,0.0,0.0,3.141489497478896,,,,
2025-04-30 00:01:00.952886,0.0008307879760747205,-0.016237475659179768,-0.006038167938931305,,,0.0,0.0,3.141569334559088,0.0,0.0,0.0,0.0,3.1415660638070078,,,,
2025-04-30 00:01:00.969948,-0.01832282530517526,-0.006660669018554777,0.07029770992366413,,,0.0,0.0,3.141590268316094,0.0,0.0,0.0,0.0,3.141564265717987,,,,
2025-04-30 00:01:00.984559,-0.006351817004394356,0.005310339282226573,0.16953435114503818,,,0.0,0.0,3.1416335005922917,0.0,0.0,0.0,0.0,3.1415821920555755,,,,
2025-04-30 00:01:00.997538,0.012801796276855626,-0.04736209724121099,0.07029770992366413,,,0.0,0.0,3.1416494252013445,0.0,0.0,0.0,0.0,3.141620596838121,,,,
2025-04-30 00:01:01.011516,-0.015928623645019346,0.043617565844726536,0.1237328244274809,,,0.0,0.0,3.141679611848355,0.0,0.0,0.0,0.0,3.1416377471146535,,,,
2025-04-30 00:01:01.025429,-0.00874601866455027,0.012492944262695316,-0.07474045801526719,,,0.0,0.0,3.1416614629072512,0.0,0.0,0.0,0.0,3.141667792685724,,,,
2025-04-30 00:01:01.038723,0.010407594616699711,-0.04496789558105474,0.19243511450381678,,,0.0,0.0,3.141706114025434,0.0,0.0,0.0,0.0,3.141650450502451,,,,
2025-04-30 00:01:01.051966,-0.006351817004394356,-0.018631677319336015,0.17716793893129773,,,0.0,0.0,3.1417470619532573,0.0,0.0,0.0,0.0,3.1416949270551893,,,,
2025-04-30 00:01:01.064991,-0.03268803526611297,0.01728134758300781,0.07793129770992369,,,0.0,0.0,3.141764777420931,0.0,0.0,0.0,0.0,3.1417352011554187,,,,
2025-04-30 00:01:01.078562,0.012801796276855626,-0.011449072338867272,0.05503053435114502,,,0.0,0.0,3.1417778119010533,0.0,0.0,0.0,0.0,3.141753659888609,,,,
2025-04-30 00:01:01.092267,-0.0015634136840816382,0.0005219359619140773,0.03976335877862597,,,0.0,0.0,3.1417873235335163,0.0,0.0,0.0,0.0,3.141766823520482,,,,
2025-04-30 00:01:01.105344,0.005619191296386994,-0.004266467358398418,0.24587022900763358,,,0.0,0.0,3.1418434381871263,0.0,0.0,0.0,0.0,3.1417758986619226,,,,
2025-04-30 00:01:01.118911,0.019984401257324702,0.005310339282226573,0.009229007633587805,,,0.0,0.0,3.1418456235466543,0.0,0.0,0.0,0.0,3.1418341188811447,,,,
2025-04-30 00:01:01.131896,-0.0015634136840816382,0.010098742602539068,0.1008320610687023,,,0.0,0.0,3.14186847604128,0.0,0.0,0.0,0.0,3.141836210535774,,,,
2025-04-30 00:01:01.145585,0.034349611218261966,-0.004266467358398418,0.04739694656488552,,,0.0,0.0,3.141879799473056,0.0,0.0,0.0,0.0,3.1418602999560243,,,,
2025-04-30 00:01:01.158925,-0.013534421984862988,-0.01384327399902352,0.20006870229007634,,,0.0,0.0,3.1419263825055017,0.0,0.0,0.0,0.0,3.1418713356326413,,,,
2025-04-30 00:01:01.172307,-0.013534421984862988,0.0316465575439453,0.05503053435114502,,,0.0,0.0,3.141939235394599,0.0,0.0,0.0,0.0,3.141918063524215,,,,
2025-04-30 00:01:01.185394,-0.03268803526611297,-0.028208483959961006,-0.25794656488549617,,,0.0,0.0,3.141880318419345,0.0,0.0,0.0,0.0,3.1419306329206407,,,,
2025-04-30 00:01:01.198109,0.012801796276855626,-0.037785290600586,-0.19687786259541984,,,0.0,0.0,3.141836626389743,0.0,0.0,0.0,0.0,3.1418733882472165,,,,
2025-04-30 00:01:01.211447,0.015195997937011985,-0.006660669018554777,-0.34191603053435116,,,0.0,0.0,3.1417570305367692,0.0,0.0,0.0,0.0,3.1418275563469678,,,,
2025-04-30 00:01:01.224615,0.03195540955810561,0.024463952563476554,-0.006038167938931305,,,0.0,0.0,3.1417556428300406,0.0,0.0,0.0,0.0,3.1417489763569826,,,,
2025-04-30 00:01:01.237668,0.008013392956543353,-0.011449072338867272,-0.006038167938931305,,,0.0,0.0,3.1417542672340244,0.0,0.0,0.0,0.0,3.1417476007609664,,,,
2025-04-30 00:01:01.250554,-0.013534421984862988,0.026858154223632802,0.07793129770992369,,,0.0,0.0,3.141771793966737,0.0,0.0,0.0,0.0,3.1417462427782477,,,,
2025-04-30 00:01:01.264941,0.0008307879760747205,0.053194372485351527,0.04739694656488552,,,-1.6645266151409008e-07,-1.0789781385278904e-05,3.1417836950783364,-1.1569935766119686e-05,-0.000749985469878374,0.0,0.0,3.1417658108968363,,,,
2025-04-30 00:01:01.278930,-0.015928623645019346,-0.006660669018554777,-0.05947328244274808,,,-1.6645266151409008e-07,-1.0789781385278904e-05,3.141769173718975,-9.25594861289575e-06,-0.0005999883759026992,-1.6185977958407518e-07,-1.0492061952603663e-05,3.141777383624378,,,,
2025-04-30 00:01:01.291968,-0.025505430285644337,0.03882916252441404,-0.32664885496183205,,,-1.6645266151409008e-07,-1.0789781385278904e-05,3.141694843259128,-7.4047588903166e-06,-0.0004799907007221594,-2.825380971061728e-07,-1.8314662397454373e-05,3.141763850203503,,,,
2025-04-30 00:01:01.305376,-0.013534421984862988,-0.016237475659179768,-0.15870992366412218,,,-1.6645266151409008e-07,-1.0789781385278904e-05,3.1416577031059445,-5.92380711225328e-06,-0.00038399256057772757,-3.818207017325267e-07,-2.4750351617051256e-05,3.1416874101912433,,,,
2025-04-30 00:01:01.319107,-0.00874601866455027,0.02925235588378905,0.3374732824427481,,,-1.6645266151409008e-07,-1.0789781385278904e-05,3.1417385775816595,-4.739045689802625e-06,-0.0003071940484621821,-4.631591014769846e-07,-3.0022862993487468e-05,3.1416493758266433,,,,
2025-04-30 00:01:01.332866,-0.003957615344237997,0.022069750903320307,0.10846564885496185,,,-1.6645266151409008e-07,-1.0789781385278904e-05,3.141764624312991,-3.7912365518420998e-06,-0.0002457552387697457,-5.283631467042307e-07,-3.424951450532449e-05,3.1417304160085995,,,,
2025-04-30 00:01:01.346512,-0.00874601866455027,-0.037785290600586,-0.19687786259541984,0.0,0.0,-1.6645266151409008e-07,-1.0789781385278904e-05,3.1417177347661096,-3.03298924147368e-06,-0.00019660419101579657,-5.800979337021886e-07,-3.760306281536267e-05,3.1417562488018853,,,,
2025-04-30 00:01:01.359802,0.036743812878418325,-0.016237475659179768,-0.14344274809160307,0.0,0.0,-1.6645266151409008e-07,-1.0789781385278904e-05,3.1416844627891325,-2.4263913931789444e-06,-0.00015728335281263726,-6.204061436693789e-07,-4.0215918444235196e-05,3.141710582389336,,,,
2025-04-30 00:01:01.373042,0.039138014538574684,-0.011449072338867272,-0.03657251908396941,0.0,0.0,-1.6645266151409008e-07,-1.0789781385278904e-05,3.141676011337816,-1.9411131145431555e-06,-0.0001258266822501098,-6.525323843111634e-07,-4.2298403098446475e-05,3.1416774345659815,,,,
2025-04-30 00:01:01.386438,-0.02311122862548798,0.00770454094238282,0.1008320610687023,0.0,0.0,-1.6645266151409008e-07,-1.0789781385278904e-05,3.141699587190575,-1.5528904916345246e-06,-0.00010066134580008785,-6.785365091416634e-07,-4.3984040441126316e-05,3.1416688834333772,,,,
2025-04-30 00:01:01.399366,0.039138014538574684,-0.037785290600586,-0.06710687022900763,0.0,0.0,-6.597139713943449e-06,-5.876812553356954e-06,3.1416844454431043,-0.0004974228464656365,0.00038002517010190243,-6.986122914450899e-07,-4.5285391228924234e-05,3.1416916348089132,,,,
2025-04-30 00:01:01.412639,-0.02071702696533162,0.00770454094238282,0.23823664122137406,0.0,0.0,-6.597139713943449e-06,-5.876812553356954e-06,3.141739634763097,-0.0003979382771725092,0.000304020136081522,-7.300906089316786e-06,-4.024131687362166e-05,3.1416760889948194,,,,
2025-04-30 00:01:01.425841,-0.003957615344237997,0.024463952563476554,-0.01367175572519086,0.0,0.0,-6.597139713943449e-06,-5.876812553356954e-06,3.141736484664697,-0.0003183506217380074,0.0002432161088652176,-1.2554278364030066e-05,-3.6227802604038444e-05,3.1417309809104905,,,,
2025-04-30 00:01:01.439516,0.022378602917480617,-0.004266467358398418,0.15426717557251907,0.0,0.0,-6.597139713943449e-06,-5.876812553356954e-06,3.1417733054089365,-0.0002546804973904059,0.00019457288709217408,-1.6907866781147748e-05,-3.2901712557060444e-05,3.141727717713255,,,,
2025-04-30 00:01:01.452198,0.0008307879760747205,-0.02581428229980476,0.1237328244274809,0.0,0.0,-6.597139713943449e-06,-5.876812553356954e-06,3.141800692161928,-0.00020374439791232473,0.00015565830967373927,-2.0137654211122562e-05,-3.043419316950059e-05,3.1417618628728086,,,,
2025-04-30 00:01:01.466879,-0.025505430285644337,-0.02581428229980476,-0.03657251908396941,0.0,0.0,-6.597139713943449e-06,-5.876812553356954e-06,3.14179132105562,-0.0001629955183298598,0.00012452664773899142,-2.3128846263545852e-05,-2.8148957827765743e-05,3.1417935673733624,,,,
2025-04-30 00:01:01.485795,-0.006351817004394356,0.012492944262695316,-0.08237404580152674,0.0,0.0,-6.597139713943449e-06,-5.876812553356954e-06,3.141764125367252,-0.00013039641466388785,9.962131819119315e-05,-2.6212090688435195e-05,-2.5793395562462233e-05,3.1417814930018517,,,,
2025-04-30 00:01:01.500108,-0.013534421984862988,-0.006660669018554777,-0.17397709923664118,0.0,0.0,-6.597139713943449e-06,-5.876812553356954e-06,3.1417206651031826,-0.00010431713173111028,7.969705455295453e-05,-2.8078421208374262e-05,-2.4367541124239895e-05,3.141760915593683,,,,
2025-04-30 00:01:01.513326,0.06068582947998058,0.04122336418457029,2.291671755725191,0.0,0.0,-1.8334366460590817e-05,-1.1909508704108884e-05,3.1422493453654825,-0.0008879779417815663,-0.0004564026261883733,-2.9457277338777008e-05,-2.331411135271742e-05,3.141720779715485,,,,
2025-04-30 00:01:01.527731,-0.06620685850830066,-0.0329968872802735,0.02449618320610686,0.0,0.0,-1.7411113081373617e-05,-1.1633638872779114e-05,3.142255503968767,6.409357048336951e-05,1.9151278377731453e-05,-4.224839865152846e-05,-2.9888487904595664e-05,3.1422969305828663,,,,
2025-04-30 00:01:01.544920,0.008013392956543353,0.00770454094238282,0.1160992366412214,0.0,0.0,-1.7411113081373617e-05,-1.1633638872779114e-05,3.1422903348146045,5.127485638669561e-05,1.5321022702185165e-05,-4.1146677328720314e-05,-2.955929151892612e-05,3.1423042796646135,,,,
2025-04-30 00:01:01.560699,0.034349611218261966,0.01728134758300781,-0.05183969465648852,0.0,0.0,-1.7411113081373617e-05,-1.1633638872779114e-05,3.1422760581634717,4.101988510935649e-05,1.2256818161748133e-05,-4.0337598201351223e-05,-2.9317537166952894e-05,3.1423362533926475,,,,
2025-04-30 00:01:01.574417,0.015195997937011985,-0.028208483959961006,0.16953435114503818,0.0,0.0,-1.7411113081373617e-05,-1.1633638872779114e-05,3.142316647769609,3.2815908087485195e-05,9.805454529398506e-06,-3.977490171829898e-05,-2.914940240853902e-05,3.1423238420271975,,,,
2025-04-30 00:01:01.588202,0.034349611218261966,0.010098742602539068,0.02449618320610686,0.0,0.0,-1.7411113081373617e-05,-1.1633638872779114e-05,3.1423225416522356,2.625272646998816e-05,7.844363623518806e-06,-3.932251471403642e-05,-2.9014228328085064e-05,3.142364632690721,,,,
2025-04-30 00:01:01.600860,0.019984401257324702,-0.006660669018554777,0.06266412213740458,0.0,0.0,-1.7411113081373617e-05,-1.1633638872779114e-05,3.142336385516376,2.1002181175990527e-05,6.275490898815045e-06,-3.8990210832148477e-05,-2.8914935308519424e-05,3.14237004442906,,,,
2025-04-30 00:01:01.614307,-0.02071702696533162,-0.004266467358398418,-0.01367175572519086,0.0,0.0,-1.7411113081373617e-05,-1.1633638872779114e-05,3.1423331768204905,1.6801744940792423e-05,5.020392719052036e-06,-3.8707793529895934e-05,-2.8830548491973923e-05,3.142384751399759,,,,
2025-04-30 00:01:01.627285,-0.027899631945800696,0.03643496086425779,0.08556488549618319,0.0,0.0,-1.7411113081373617e-05,-1.1633638872779114e-05,3.1423525574254114,1.3441395952633938e-05,4.016314175241629e-06,-3.848974720311151e-05,-2.876539584293288e-05,3.142381654721785,,,,
2025-04-30 00:01:01.640498,-0.013534421984862988,-0.006660669018554777,0.23823664122137406,0.0,0.0,-1.7411113081373617e-05,-1.1633638872779114e-05,3.1424074959344264,1.0753116762107151e-05,3.2130513401933034e-06,-3.8312150328659136e-05,-2.8712329565676025e-05,3.14240138639366,,,,
2025-04-30 00:01:01.653860,0.010407594616699711,0.005310339282226573,-0.02130534351145036,0.0,0.0,-1.7411113081373617e-05,-1.1633638872779114e-05,3.1424025271446085,8.602493409685722e-06,2.5704410721546427e-06,-3.81684627986067e-05,-2.866939546375769e-05,3.1424569474690554,,,,
2025-04-30 00:01:01.667163,0.027167006237793334,0.024463952563476554,0.139,0.0,0.0,-1.7411113081373617e-05,-1.1633638872779114e-05,3.1424347998466855,6.881994727748578e-06,2.056352857723714e-06,-3.805402552312862e-05,-2.8635201392450045e-05,3.1424520008431287,,,,
2025-04-30 00:01:01.680737,0.008013392956543353,0.005310339282226573,0.16953435114503818,0.0,0.0,-1.7411113081373617e-05,-1.1633638872779114e-05,3.142474966174116,5.505595782198863e-06,1.6450822861789713e-06,-3.7960605195985166e-05,-2.8607287224495753e-05,3.142484932927247,,,,
2025-04-30 00:01:01.693975,0.012801796276855626,-0.01384327399902352,-0.0900076335877863,0.0,0.0,-1.7411113081373617e-05,-1.1633638872779114e-05,3.142454170656707,4.40447662575909e-06,1.3160658289431772e-06,-3.788772368939551e-05,-2.858551009442232e-05,3.1425241024333226,,,,
2025-04-30 00:01:01.707325,-0.013534421984862988,-0.011449072338867272,0.10846564885496185,0.0,0.0,-1.7411113081373617e-05,-1.1633638872779114e-05,3.1424794433294987,3.523581300607272e-06,1.0528526631545418e-06,-3.782892388275709e-05,-2.8567940602552907e-05,3.142503130508142,,,,
2025-04-30 00:01:01.720702,-0.013534421984862988,-0.02342008063964851,0.15426717557251907,0.0,0.0,-1.7411113081373617e-05,-1.1633638872779114e-05,3.1425154597293017,2.818865040485818e-06,8.422821305236335e-07,-3.7781789947674686e-05,-2.855385689485815e-05,3.1425284537316958,,,,
2025-04-30 00:01:01.734188,-0.003957615344237997,-0.011449072338867272,-0.2884809160305344,0.0,0.0,-1.7411113081373617e-05,-1.1633638872779114e-05,3.1424475565638073,2.2550920323886544e-06,6.738257044189068e-07,-3.774377364750185e-05,-2.8542497553476314e-05,3.142564765421555,,,,
2025-04-30 00:01:01.748218,-0.00874601866455027,0.0316465575439453,-0.006038167938931305,0.0,0.0,-1.7411113081373617e-05,-1.1633638872779114e-05,3.14244607800161,1.8040736259109235e-06,5.390605635351255e-07,-3.7712134752052704e-05,-2.8533043792518063e-05,3.142494125290086,,,,
2025-04-30 00:01:01.761244,0.0415322161987306,0.00770454094238282,0.06266412213740458,0.0,0.0,-1.7411113081373617e-05,-1.1633638872779114e-05,3.1424603236927013,1.4432589007287389e-06,4.3124845082810043e-07,-3.7688636181054806e-05,-2.8526022375685365e-05,3.142492752608681,,,,
2025-04-30 00:01:01.774795,0.024772804577636975,0.034040759204101545,0.15426717557251907,0.0,0.0,-1.7411113081373617e-05,-1.1633638872779114e-05,3.142496809988855,1.154607120582991e-06,3.449987606624804e-07,-3.766907824023802e-05,-2.8520178426499e-05,3.142507573530306,,,,
2025-04-30 00:01:01.788011,-0.006351817004394356,0.002916137622070325,-0.07474045801526719,0.0,0.0,-1.7411113081373617e-05,-1.1633638872779114e-05,3.1424795701276045,9.236856964663929e-07,2.759990085299843e-07,-3.7653818930968076e-05,-2.8515618916434627e-05,3.1425431572659828,,,,
2025-04-30 00:01:01.800916,-0.015928623645019346,-0.004266467358398418,-0.2732137404580153,0.0,0.0,-1.7411113081373617e-05,-1.1633638872779114e-05,3.1424180323255473,7.389485571731144e-07,2.2079920682398745e-07,-3.764189865542812e-05,-2.8512057115875174e-05,3.142526322960712,,,,
2025-04-30 00:01:01.814231,-0.01832282530517526,-0.004266467358398418,0.09319847328244274,0.0,0.0,-1.7411113081373617e-05,-1.1633638872779114e-05,3.1424396914881827,5.911588457384916e-07,1.7663936545918998e-07,-3.763205923082524e-05,-2.850911707745595e-05,3.1424628285639655,,,,
2025-04-30 00:01:01.827197,0.0008307879760747205,0.01967554924316406,0.05503053435114502,0.0,0.0,-1.7411113081373617e-05,-1.1633638872779114e-05,3.1424521445564357,4.7292707659079327e-07,1.41311492367352e-07,-3.762439445489366e-05,-2.8506826828114843e-05,3.1424839187998233,,,,
2025-04-30 00:01:01.840454,-0.015928623645019346,-0.028208483959961006,0.17716793893129773,0.0,0.0,-1.7411113081373617e-05,-1.1633638872779114e-05,3.1424931359807884,3.7834166127263463e-07,1.130491938938816e-07,-3.761812507353441e-05,-2.8504953525273988e-05,3.142496651238884,,,,
2025-04-30 00:01:01.852891,-0.0015634136840816382,0.02925235588378905,-0.05183969465648852,0.0,0.0,-1.7411113081373617e-05,-1.1633638872779114e-05,3.142481882572265,3.026733290181077e-07,9.043935511510529e-08,-3.761341932788859e-05,-2.8503547439700062e-05,3.1425351110177706,,,,
2025-04-30 00:01:01.866106,0.027167006237793334,-0.006660669018554777,-0.18161068702290073,0.0,0.0,-1.7411113081373617e-05,-1.1633638872779114e-05,3.1424399954776976,2.421386632144862e-07,7.235148409208424e-08,-3.7609419552334055e-05,-2.850235229930586e-05,3.142523154594787,,,,
2025-04-30 00:01:01.879159,0.005619191296386994,0.16093344719238278,0.139,0.0,0.0,-1.832264093020768e-05,-3.8504853695356034e-05,3.142471662011021,-6.983314280843307e-05,-0.00205863307911145,-3.760625893080217e-05,-2.8501407899698424e-05,3.1424817806316754,,,,
2025-04-30 00:01:01.892857,-0.00874601866455027,-0.028208483959961006,0.16953435114503818,0.0,0.0,-1.832264093020768e-05,-3.8504853695356034e-05,3.142512193063604,-5.586651424674646e-05,-0.00164690646328916,-3.856282372767262e-05,-5.670028101289912e-05,3.142515011751333,,,,
2025-04-30 00:01:01.906634,-0.03747643858642569,0.0316465575439453,-0.15107633587786262,0.0,0.0,-1.832264093020768e-05,-3.8504853695356034e-05,3.1424758673635926,-4.4693211397397174e-05,-0.001317525170631328,-3.933247103810118e-05,-7.938895502609356e-05,3.142555775607205,,,,
2025-04-30 00:01:01.919709,-0.02071702696533162,-0.021025878979492263,0.17716793893129773,0.0,0.0,-1.832264093020768e-05,-3.8504853695356034e-05,3.142516297756437,-3.575456911791774e-05,-0.0010540201365050624,-3.9916839840706963e-05,-9.661574590310025e-05,3.1425212994167278,,,,
2025-04-30 00:01:01.932871,0.0008307879760747205,0.012492944262695316,-1.4029847328244274,0.0,0.0,-1.832264093020768e-05,-3.8504853695356034e-05,3.142193994602118,-2.8603655294334194e-05,-0.0008432161092040499,-4.038745486939656e-05,-0.00011048915366658974,3.142561999635501,,,,
2025-04-30 00:01:01.946794,0.003224989636230635,0.00770454094238282,0.04739694656488552,0.0,0.0,-1.832264093020768e-05,-3.8504853695356034e-05,3.1422055119086862,-2.2882924235467356e-05,-0.00067457288736324,-4.0785694733404496e-05,-0.0001222289912923507,3.142221078828364,,,,
2025-04-30 00:01:01.961444,-0.0015634136840816382,-0.01384327399902352,-0.028938931297709913,0.0,0.0,-1.832264093020768e-05,-3.8504853695356034e-05,3.1421981121974643,-1.8306339388373884e-05,-0.000539658309890592,-4.112094292031351e-05,-0.0001321118775484694,3.1422331982709855,,,,
2025-04-30 00:01:01.977030,0.09659885438232463,0.0005219359619140773,-0.07474045801526719,0.0,0.0,-4.159797312717952e-05,-4.688527120120407e-05,3.142177781215905,-0.0014933811466106956,-0.0005377004890004504,-4.140625931897164e-05,-0.00014052280898688157,3.1422253262710784,,,,
2025-04-30 00:01:01.994146,-0.03029383360595661,-0.011449072338867272,-0.09764122137404585,0.0,0.0,-4.159797312717952e-05,-4.688527120120407e-05,3.1421486126807356,-0.0011947049172885565,-0.0004301603912003603,-6.696707525295778e-05,-0.00014972612808472055,3.142202998921548,,,,
2025-04-30 00:01:02.010366,-0.03029383360595661,0.005310339282226573,-0.12817557251908396,0.0,0.0,-4.159797312717952e-05,-4.688527120120407e-05,3.1421123280088743,-0.0009557639338308452,-0.0003441283129602883,-8.634473016856249e-05,-0.00015670316442099004,3.1421753580879,,,,
2025-04-30 00:01:02.024721,0.0415322161987306,0.012492944262695316,0.16190076335877862,0.0,0.0,-4.159797312717952e-05,-4.688527120120407e-05,3.142152891468322,-0.0007646111470646762,-0.0002753026503682306,-0.00010006489600679339,-0.0001616431892077816,3.142143244313201,,,,
2025-04-30 00:01:02.037360,-0.0638126568481443,0.014887145922851563,-0.05183969465648852,0.0,0.0,-4.107706752851479e-05,-5.262065512602856e-05,3.142141455565097,4.121244267744108e-05,-0.0004537658682126813,-0.00010972921584400279,-0.0001651228832658712,3.142178959829547,,,,
2025-04-30 00:01:02.051647,0.012801796276855626,-0.016237475659179768,0.09319847328244274,0.0,0.0,-4.107706752851479e-05,-5.262065512602856e-05,3.142164693916442,3.296995414195287e-05,-0.00036301269457014506,-0.00010914044336168512,-0.00017160550936764447,3.1421660339843522,,,,
2025-04-30 00:01:02.066947,0.005619191296386994,-0.004266467358398418,-0.11290839694656485,0.0,0.0,-4.107706752851479e-05,-5.262065512602856e-05,3.1421345428405156,2.6375963313562295e-05,-0.00029041015565611604,-0.00010863599403299896,-0.0001771597030220254,3.14219092171919,,,,
2025-04-30 00:01:02.080855,0.022378602917480617,0.014887145922851563,0.01686259541984736,0.0,0.0,-4.107706752851479e-05,-5.262065512602856e-05,3.142138636187215,2.1100770650849838e-05,-0.00023232812452489285,-0.00010826914694803325,-0.0001811988396321412,3.142163513529499,,,,
2025-04-30 00:01:02.094150,0.005619191296386994,-0.02581428229980476,0.16190076335877862,0.0,0.0,-4.107706752851479e-05,-5.262065512602856e-05,3.1421762037040595,1.688061652067987e-05,-0.0001858624996199143,-0.00010798861356900223,-0.00018428762699898002,3.1421674263327763,,,,
2025-04-30 00:01:02.107327,-0.0015634136840816382,0.026858154223632802,0.15426717557251907,0.0,0.0,-4.107706752851479e-05,-5.262065512602856e-05,3.1422116815204766,1.3504493216543897e-05,-0.00014868999969593145,-0.0001077661830934696,-0.00018673667760820954,3.142204659694565,,,,
2025-04-30 00:01:02.120268,0.03195540955810561,0.00770454094238282,0.04739694656488552,0.0,0.0,-4.107706752851479e-05,-5.262065512602856e-05,3.1422223866435317,1.0803594573235118e-05,-0.00011895199975674517,-0.00010759142301818474,-0.00018866085759218203,3.142239502637361,,,,
2025-04-30 00:01:02.134388,-0.006351817004394356,0.010098742602539068,-0.3495496183206107,0.0,0.0,-4.107706752851479e-05,-5.262065512602856e-05,3.142136242842334,8.642875658588094e-06,-9.516159980539614e-05,-0.0001074388751616142,-0.00019034047195337126,3.1422511832484337,,,,
2025-04-30 00:01:02.148920,0.015195997937011985,-0.018631677319336015,-0.05183969465648852,0.0,0.0,-4.107706752851479e-05,-5.262065512602856e-05,3.142123094810918,6.914300526870476e-06,-7.612927984431691e-05,-0.00010731327818193256,-0.00019172334612504283,3.1421625274530336,,,,
2025-04-30 00:01:02.163011,0.022378602917480617,-0.03539108894042975,-0.0900076335877863,0.0,0.0,-4.107706752851479e-05,-5.262065512602856e-05,3.1421009588191686,5.531440421496381e-06,-6.090342387545353e-05,-0.00010721584867044767,-0.00019279608493876708,3.1421497782782417,,,,
2025-04-30 00:01:02.176592,-0.04944744688720659,-0.030602685620117254,-0.24267938931297706,0.0,0.0,-3.206803443135238e-05,-4.78956061806817e-05,3.1420434355963427,0.0006633538183656178,0.00034791516759412447,-0.00010714072597053615,-0.00019362321662359905,3.1421284434249706,,,,
2025-04-30 00:01:02.189850,0.0008307879760747205,-0.016237475659179768,-0.08237404580152674,0.0,0.0,-3.206803443135238e-05,-4.78956061806817e-05,3.142024373934758,0.0005306830546924942,0.0002783321340752996,-9.834567777200023e-05,-0.00018901039827044457,3.1420722865087027,,,,
2025-04-30 00:01:02.202711,-0.013534421984862988,0.002916137622070325,-0.44115267175572515,0.0,0.0,-3.206803443135238e-05,-4.78956061806817e-05,3.141925351540829,0.0004245464437539954,0.00022266570726023967,-9.152068241252641e-05,-0.00018543083132053112,3.142053796594133,,,,
2025-04-30 00:01:02.216222,0.024772804577636975,-0.030602685620117254,-0.006038167938931305,0.0,0.0,-3.206803443135238e-05,-4.78956061806817e-05,3.1419239276527193,0.0003396371550031963,0.00017813256580819176,-8.578455861998803e-05,-0.00018242235467448025,3.141949766356768,,,,
2025-04-30 00:01:02.229234,0.029561207897949693,0.010098742602539068,-0.15107633587786262,0.0,0.0,-3.206803443135238e-05,-4.78956061806817e-05,3.1418896186850622,0.00027170972400255704,0.0001425060526465534,-8.13653039035203e-05,-0.00018010454824485996,3.141948395107543,,,,
2025-04-30 00:01:02.242471,-0.006351817004394356,0.005310339282226573,0.20006870229007634,0.0,0.0,-3.206803443135238e-05,-4.78956061806817e-05,3.141935840402212,0.00021736777920204565,0.00011400484211724273,-7.776868241956922e-05,-0.00017821819569556057,3.1419134920588148,,,,
2025-04-30 00:01:02.257025,0.0008307879760747205,0.0316465575439453,-0.07474045801526719,0.0,0.0,-3.206803443135238e-05,-4.78956061806817e-05,3.141916854535386,0.00017389422336163655,9.120387369379419e-05,-7.460500295113582e-05,-0.00017655891215486127,3.141964314302063,,,,
2025-04-30 00:01:02.270293,-0.00874601866455027,-0.009054870678711024,0.1008320610687023,0.0,0.0,-3.206803443135238e-05,-4.78956061806817e-05,3.141940202975089,0.00013911537868930925,7.296309895503535e-05,-7.229789983047385e-05,-0.0001753488849466669,3.141947007573837,,,,
2025-04-30 00:01:02.286793,-0.015928623645019346,-0.016237475659179768,0.42144274809160304,0.0,0.0,-3.206803443135238e-05,-4.78956061806817e-05,3.142061567992114,0.00011129230295144741,5.8370479164028285e-05,-7.000252978047422e-05,-0.00017414501148799933,3.1419760446965865,,,,
2025-04-30 00:01:02.299633,-0.03029383360595661,-0.006660669018554777,-0.06710687022900763,0.0,0.0,-3.206803443135238e-05,-4.78956061806817e-05,3.1420465290065764,8.903384236115793e-05,4.669638333122263e-05,-6.857350645079827e-05,-0.00017339551871736137,3.1420704921260625,,,,
2025-04-30 00:01:02.313098,-0.03029383360595661,0.01967554924316406,0.2077022900763359,0.0,0.0,-3.206803443135238e-05,-4.78956061806817e-05,3.1420953414297133,7.122707388892635e-05,3.735710666497811e-05,-6.737465097560355e-05,-0.00017276674415991455,3.1420547212409953,,,,
2025-04-30 00:01:02.326396,-0.03029383360595661,0.0316465575439453,-0.2197786259541985,0.0,0.0,-3.206803443135238e-05,-4.78956061806817e-05,3.14204433293637,5.698165911114108e-05,2.9885685331982488e-05,-6.642748785958839e-05,-0.00017226997696701696,3.1421029269335863,,,,
2025-04-30 00:01:02.338954,0.003224989636230635,-0.011449072338867272,-0.1358091603053435,0.0,0.0,-3.206803443135238e-05,-4.78956061806817e-05,3.1420145665348134,4.558532728891287e-05,2.3908548265585993e-05,-6.571191313045525e-05,-0.00017189467302676699,3.142054756259245,,,,
2025-04-30 00:01:02.351623,-0.011140220324706629,-0.016237475659179768,0.15426717557251907,0.0,0.0,-3.206803443135238e-05,-4.78956061806817e-05,3.142048677671817,3.6468261831130294e-05,1.9126838612468794e-05,-6.513438867789334e-05,-0.00017159177356174568,3.1420247265082217,,,,
2025-04-30 00:01:02.365220,-0.013534421984862988,0.01728134758300781,-0.12817557251908396,0.0,0.0,-3.206803443135238e-05,-4.78956061806817e-05,3.1420182589241232,2.9174609464904236e-05,1.5301470889975035e-05,-6.46385119105553e-05,-0.00017133169659552046,3.142061337339747,,,,
2025-04-30 00:01:02.378225,-0.02071702696533162,0.03643496086425779,-0.16634351145038162,0.0,0.0,-3.206803443135238e-05,-4.78956061806817e-05,3.1419805042860016,2.333968757192339e-05,1.2241176711980029e-05,-6.425911644979381e-05,-0.0001711327116320503,3.142032245598721,,,,
2025-04-30 00:01:02.391047,0.017590199597168343,0.010098742602539068,-0.1052748091603053,0.0,0.0,-3.206803443135238e-05,-4.78956061806817e-05,3.1419569445294213,1.8671750057538714e-05,9.792941369584024e-06,-6.395984588254222e-05,-0.00017097575049505428,3.141995019099146,,,,
2025-04-30 00:01:02.403380,0.015195997937011985,0.026858154223632802,-0.03657251908396941,0.0,0.0,-3.206803443135238e-05,-4.78956061806817e-05,3.141949071990497,1.4937400046030972e-05,7.834353095667219e-06,-6.372955984927509e-05,-0.00017085497029956808,3.1419723578208525,,,,
2025-04-30 00:01:02.416565,-0.04705324522705068,0.024463952563476554,0.07029770992366413,0.0,0.0,-2.3857398779109247e-05,-5.195911390267009e-05,3.141965248753576,0.0006227356098216305,-0.00030819671782367013,-6.353261342861852e-05,-0.0001707516760317841,3.141963941828681,,,,
2025-04-30 00:01:02.429338,0.034349611218261966,0.15853924553222654,-0.2045114503816794,0.0,0.0,-2.154604122286445e-05,-8.116722223259228e-05,3.1419196566988727,0.00018095599065942006,-0.0022867003695939444,-5.5578388470059474e-05,-0.00017468828409850632,3.141979613406142,,,,
2025-04-30 00:01:02.442016,0.055897426159668306,0.01728134758300781,-0.18161068702290073,0.0,0.0,-2.810195827763829e-05,-0.00011230321682712613,3.1418794707219893,-0.0005171037521909532,-0.002455879093422441,-5.328420193534351e-05,-0.00020367940607095457,3.141934360053753,,,,
2025-04-30 00:01:02.454889,-0.02071702696533162,-0.028208483959961006,0.31457251908396944,0.0,0.0,-2.810195827763829e-05,-0.00011230321682712613,3.14195014471261,-0.00041368300175276257,-0.001964703274737953,-5.994059801072139e-05,-0.0002352926053366661,3.141893558167979,,,,
2025-04-30 00:01:02.467554,0.06068582947998058,0.00770454094238282,-0.006038167938931305,0.0,0.0,-4.277647023197929e-05,-0.00013790411107322516,3.1419488099462773,-0.001158619885701867,-0.0020213077789279616,-6.518010427972622e-05,-0.0002601765746588479,3.1419630959502713,,,,
2025-04-30 00:01:02.480909,0.034349611218261966,-0.0018722656982421704,0.3603740458015267,0.0,0.0,-4.277647023197929e-05,-0.00013790411107322516,3.142032806177834,-0.0009268959085614936,-0.0016170462231423694,-8.065293973891532e-05,-0.00028717020998454007,3.141961688569917,,,,
2025-04-30 00:01:02.495102,-0.003957615344237997,-0.06890991218261722,-0.05947328244274808,0.0,0.0,-5.4893727478573635e-05,-0.00014679165168402788,3.142018073223431,-0.0008537166656322593,-0.000626168231103479,-9.380886912040098e-05,-0.00031012181190850924,3.1420509618396406,,,,
2025-04-30 00:01:02.510105,0.06068582947998058,-0.02342008063964851,0.22296946564885498,0.0,0.0,-8.083360933436396e-05,-0.00015083848693600685,3.142076456179457,-0.0017290385415537357,-0.0002697442556172648,-0.00010661674408247096,-0.0003195158939641224,3.14203538918702,,,,
2025-04-30 00:01:02.522528,0.07026263612060557,-0.01384327399902352,-0.1358091603053435,0.0,0.0,-0.0001125125753392347,-0.00015203359138505772,3.1420470090750015,-0.0025499685998060413,-9.619880958550336e-05,-0.00012809706865711803,-0.00032286700154417593,3.142083735006482,,,,
2025-04-30 00:01:02.536998,-0.015928623645019346,0.04840596916503903,-0.04420610687022897,0.0,0.0,-0.00014539952932549914,-0.0001633286759249081,3.1420358449670913,-0.0022727897489315525,-0.0007805937991766926,-0.00016499476236049012,-0.0003242589850419276,3.1420494368466083,,,,
2025-04-30 00:01:02.550277,0.09420465272216827,-0.0018722656982421704,0.13136641221374046,0.0,0.0,-0.00019125643653610745,-0.00017317118723105617,3.1420662912028066,-0.0034532884956296264,-0.000741197632573065,-0.0001951755910858855,-0.00033462464590788875,3.1420391913848715,,,,
2025-04-30 00:01:02.564854,-0.011140220324706629,-0.0018722656982421704,-0.18924427480916028,0.0,0.0,-0.00019125643653610745,-0.00017317118723105617,3.1420181453876954,-0.0027626307965037014,-0.000592958106058452,-0.00024551305001454203,-0.0003454288418025794,3.142072612438167,,,,
2025-04-30 00:01:02.578099,-0.04944744688720659,-0.01384327399902352,0.2764045801526718,0.0,0.0,-0.00021861658029054826,-0.0001784838560973635,3.1420820443296975,-0.0020656051621755728,-0.0004010898602604273,-0.00028210570436924777,-0.0003532829173631929,3.1420288631307804,,,,
2025-04-30 00:01:02.591660,-0.03029383360595661,0.005310339282226573,-0.006038167938931305,0.0,0.0,-0.00021861658029054826,-0.0001784838560973635,3.1420806151902623,-0.0016524841297404582,-0.00032087188820834186,-0.00031011739737466285,-0.0003587221011137634,3.142094283750014,,,,
2025-04-30 00:01:02.604181,-0.0398706402465816,0.005310339282226573,-0.03657251908396941,0.0,0.0,-0.00021861658029054826,-0.0001784838560973635,3.1420726233381635,-0.0013219873037923666,-0.0002566975105666735,-0.00033080701634104925,-0.00036273951767140276,3.1420929642853905,,,,
2025-04-30 00:01:02.617354,-0.03747643858642569,0.00770454094238282,0.07793129770992369,0.0,0.0,-0.00021861658029054826,-0.0001784838560973635,3.1420905411608473,-0.0010575898430338934,-0.0002053580084533388,-0.00034822200688451957,-0.0003661210817047538,3.142084555598107,,,,
2025-04-30 00:01:02.630237,0.010407594616699711,-0.01384327399902352,-0.18161068702290073,0.0,0.0,-0.00021861658029054826,-0.0001784838560973635,3.142049705267834,-0.0008460718744271148,-0.00016428640676267105,-0.0003618471339039677,-0.00036876674719413764,3.1421020787636644,,,,
2025-04-30 00:01:02.643038,-0.03029383360595661,0.024463952563476554,-0.06710687022900763,0.0,0.0,-0.00021861658029054826,-0.0001784838560973635,3.14203471235762,-0.0006768574995416919,-0.00013142912541013686,-0.0003726776423768553,-0.0003708697663042199,3.1420615035928194,,,,
2025-04-30 00:01:02.656715,0.0008307879760747205,-0.016237475659179768,0.03976335877862597,0.0,0.0,-0.00021861658029054826,-0.0001784838560973635,3.1420442038036147,-0.0005414859996333535,-0.00010514330032810949,-0.00038193461963606447,-0.00037266724424594793,3.142045485297228,,,,
2025-04-30 00:01:02.670506,0.0008307879760747205,-0.006660669018554777,-0.03657251908396941,0.0,0.0,-0.00021861658029054826,-0.0001784838560973635,3.142035400956737,-0.0004331887997066828,-8.41146402624876e-05,-0.00038940216959829706,-0.0003741172592951382,3.142055056165395,,,,
2025-04-30 00:01:02.685169,-0.00874601866455027,0.01967554924316406,-0.04420610687022897,0.0,0.0,-0.00021861658029054826,-0.0001784838560973635,3.1420240874814476,-0.00034655103976534624,-6.729171220999008e-05,-0.0003957542153127613,-0.000375350670778918,3.1420456963207894,,,,
2025-04-30 00:01:02.698364,0.039138014538574684,0.01728134758300781,-0.3342824427480916,0.0,0.0,-0.00021861658029054826,-0.0001784838560973635,3.1419471018951,-0.000277240831812277,-5.383336976799207e-05,-0.00040032705202078554,-0.00037623860351156254,3.142035515609444,,,,
2025-04-30 00:01:02.711571,-0.027899631945800696,0.0316465575439453,0.17716793893129773,0.0,0.0,-0.00021861658029054826,-0.0001784838560973635,3.1419879407129847,-0.0002217926654498216,-4.3066695814393656e-05,-0.00040398862635546444,-0.0003769495914414546,3.141958460472472,,,,
2025-04-30 00:01:02.726782,0.012801796276855626,-0.030602685620117254,0.16953435114503818,0.0,0.0,-0.00021861658029054826,-0.0001784838560973635,3.142032947232429,-0.0001774341323598573,-3.4453356651514925e-05,-0.0004073621793162661,-0.00037760465268471945,3.1420054934910584,,,,
2025-04-30 00:01:02.740241,0.1013872577026369,-0.004266467358398418,0.2077022900763359,0.0,0.0,-0.00023895630577249431,-0.00017818968567851157,3.142081738048353,-0.001511212923330054,2.1856447326442606e-05,-0.00040975030178902407,-0.0003780683674964478,3.142045318373665,,,,
2025-04-30 00:01:02.753389,0.003224989636230635,0.005310339282226573,-0.21214503816793895,0.0,0.0,-0.00023895630577249431,-0.00017818968567851157,3.1420330573855555,-0.0012089703386640432,1.7485157861154087e-05,-0.00042961911355303444,-0.0003777810078325282,3.142092979564484,,,,
2025-04-30 00:01:02.767350,-0.02071702696533162,-0.018631677319336015,-0.2884809160305344,0.0,0.0,-0.00023895630577249431,-0.00017818968567851157,3.1419627629761044,-0.0009671762709312346,1.398812628892327e-05,-0.00044649792946420565,-0.00037753689203309316,3.1420412859884195,,,,
2025-04-30 00:01:02.780602,-0.006351817004394356,0.01728134758300781,-0.1205419847328244,0.0,0.0,-0.00023895630577249431,-0.00017818968567851157,3.141934883657366,-0.0007737410167449878,1.1190501031138617e-05,-0.000459314507450596,-0.000377351527775456,3.1419745652402433,,,,
2025-04-30 00:01:02.794067,0.024772804577636975,0.002916137622070325,-0.35718320610687027,0.0,0.0,-0.00023895630577249431,-0.00017818968567851157,3.1418509385299136,-0.0006189928133959903,8.952400824910894e-06,-0.00046973342770166506,-0.0003772008404843732,3.141946235486496,,,,
2025-04-30 00:01:02.806612,0.012801796276855626,0.012492944262695316,-0.028938931297709913,0.0,0.0,-0.00023895630577249431,-0.00017818968567851157,3.141844602491806,-0.0004951942507167923,7.161920659928715e-06,-0.00047749846473036956,-0.0003770885359108841,3.1418680319626016,,,,
2025-04-30 00:01:02.819714,-0.006351817004394356,0.010098742602539068,-0.14344274809160307,0.0,0.0,-0.00023895630577249431,-0.00017818968567851157,3.141811801462944,-0.00039615540057343383,5.729536527942973e-06,-0.00048398640877535053,-0.00037699470174292084,3.141861414502093,,,,
2025-04-30 00:01:02.832938,0.015195997937011985,0.034040759204101545,0.139,0.0,0.0,-0.00023895630577249431,-0.00017818968567851157,3.141843884448083,-0.0003169243204587471,4.583629222354379e-06,-0.000489225406177305,-0.0003769189309041519,3.141828306073638,,,,
2025-04-30 00:01:02.846252,0.015195997937011985,-0.004266467358398418,2.406175572519084,0.0,0.0,-0.00023895630577249431,-0.00017818968567851157,3.1424030053664516,-0.0002535394563669977,3.6669033778835035e-06,-0.0004934448637805348,-0.00037685790551757176,3.141860605382359,,,,
2025-04-30 00:01:02.859512,0.012801796276855626,0.0316465575439453,-0.15870992366412218,0.0,0.0,-0.00023895630577249431,-0.00017818968567851157,3.142366275335343,-0.00020283156509359816,2.933522702306803e-06,-0.0004968067684982918,-0.0003768092827905915,3.142417463464018,,,,
2025-04-30 00:01:02.872405,-0.02311122862548798,-0.016237475659179768,-0.2045114503816794,0.0,0.0,-0.00023895630577249431,-0.00017818968567851157,3.142320254371177,-0.00016226525207487853,2.3468181618454425e-06,-0.0004994219164172628,-0.00037677146029591887,3.142381749161977,,,,
2025-04-30 00:01:02.885588,-0.00874601866455027,-0.0329968872802735,-0.14344274809160307,0.0,0.0,-0.00023895630577249431,-0.00017818968567851157,3.1422872509957864,-0.00012981220165990282,1.8774545294763541e-06,-0.000501561000832156,-0.00037674052303676817,3.1423346950706526,,,,
2025-04-30 00:01:02.898799,0.029561207897949693,0.026858154223632802,-0.3800839694656488,0.0,0.0,-0.00023895630577249431,-0.00017818968567851157,3.1421996097223914,-0.00010384976132792226,1.5019636235810833e-06,-0.0005032760132705916,-0.00037671571906742264,3.14230161947128,,,,
2025-04-30 00:01:02.911627,-0.025505430285644337,-0.004266467358398418,0.14663358778625957,0.0,0.0,-0.00023895630577249431,-0.00017818968567851157,3.142232439924747,-8.30798090623378e-05,1.2015708988648668e-06,-0.0005046082096035825,-0.0003766964517103673,3.1422165214127915,,,,
2025-04-30 00:01:02.925239,-0.18112853819580055,-0.016237475659179768,-0.09764122137404585,0.0,0.0,-0.00020718017364315772,-0.000175205263060286,3.1422092440524416,0.002334537714041076,0.00021926039105472008,-0.0005057390351945193,-0.00037668009674834827,3.1422513560239334,,,,
2025-04-30 00:01:02.937854,0.036743812878418325,0.00770454094238282,0.14663358778625957,0.0,0.0,-0.00020718017364315772,-0.000175205263060286,3.1422415305932363,0.001867630171232861,0.00017540831284377608,-0.00047628725282472225,-0.00037391397766583313,3.142229856875445,,,,
2025-04-30 00:01:02.951049,-0.03508223692626933,0.00770454094238282,-0.0900076335877863,0.0,0.0,-0.00020718017364315772,-0.000175205263060286,3.1422208021182714,0.0014941041369862889,0.00014032665027502087,-0.0004516438020408231,-0.00037159945834009376,3.1422636261295884,,,,
2025-04-30 00:01:02.963915,-0.025505430285644337,0.00770454094238282,-0.15107633587786262,0.0,0.0,-0.00020718017364315772,-0.000175205263060286,3.1421868778888316,0.0011952833095890312,0.0001122613202200167,-0.00043242098425169977,-0.00036979404627916757,3.1422434148926968,,,,
2025-04-30 00:01:02.977097,0.0008307879760747205,-0.021025878979492263,-0.028938931297709913,0.0,0.0,-0.00020718017364315772,-0.000175205263060286,3.1421802200874995,0.0009562266476712249,8.980905617601337e-05,-0.00041666513450390886,-0.0003683142527610238,3.1422086576924433,,,,
2025-04-30 00:01:02.990833,-0.02071702696533162,-0.021025878979492263,-0.15107633587786262,0.0,0.0,-0.00020718017364315772,-0.000175205263060286,3.142144000630558,0.00076498131813698,7.18472449408107e-05,-0.00040353016811164687,-0.0003670806132912751,3.1422017197933343,,,,
2025-04-30 00:01:03.003114,-0.025505430285644337,-0.04257369392089849,0.19243511450381678,0.0,0.0,-0.00020718017364315772,-0.000175205263060286,3.1421852485233273,0.000611985054509584,5.747779595264856e-05,-0.0003941352952844617,-0.00036619824438474235,3.142169337031392,,,,
2025-04-30 00:01:03.016977,0.019984401257324702,0.022069750903320307,-0.07474045801526719,0.0,0.0,-0.00020718017364315772,-0.000175205263060286,3.142167165516171,0.0004895880436076673,4.598223676211885e-05,-0.00038565173114024355,-0.00036540146582742395,3.142215895557324,,,,
2025-04-30 00:01:03.030987,-0.02311122862548798,0.0005219359619140773,-0.05183969465648852,0.0,0.0,-0.00020718017364315772,-0.000175205263060286,3.142154489468689,0.00039167043488613383,3.6785789409695084e-05,-0.00037879250915573377,-0.0003647572459094465,3.142197619724472,,,,
2025-04-30 00:01:03.048545,0.005619191296386994,-0.028208483959961006,-0.18161068702290073,0.0,0.0,-0.00020718017364315772,-0.000175205263060286,3.1420988354879156,0.0003133363479089071,2.9428631527756068e-05,-0.0003719155213392201,-0.00036411135741989313,3.142181733625383,,,,
2025-04-30 00:01:03.064256,-0.02311122862548798,0.022069750903320307,-0.12817557251908396,0.0,0.0,-0.00020718017364315772,-0.000175205263060286,3.1420636890122875,0.0002506690783271257,2.3542905222204855e-05,-0.0003669927470286777,-0.000363649009172567,3.1421319349355095,,,,
2025-04-30 00:01:03.075981,-0.015928623645019346,-0.02342008063964851,0.20006870229007634,0.0,0.0,-0.00020718017364315772,-0.000175205263060286,3.1421046325290276,0.00020053526266170055,1.8834324177763887e-05,-0.0003640535453703983,-0.000363372958586146,3.142105704152588,,,,
2025-04-30 00:01:03.087856,-0.0015634136840816382,0.005310339282226573,-0.24267938931297706,0.0,0.0,-0.00020718017364315772,-0.000175205263060286,3.1420543366942564,0.00016042821012936045,1.506745934221111e-05,-0.00036167225414970264,-0.0003631493070935509,3.1421471688291795,,,,
2025-04-30 00:01:03.100390,-0.00874601866455027,0.03643496086425779,0.06266412213740458,0.0,0.0,-0.00020718017364315772,-0.000175205263060286,3.142068045225374,0.00012834256810348836,1.2053967473768888e-05,-0.00035966142425684775,-0.0003629604494254995,3.1420940797912005,,,,
2025-04-30 00:01:03.113947,-0.02311122862548798,-0.004266467358398418,0.1237328244274809,0.0,0.0,-0.00020718017364315772,-0.000175205263060286,3.1420973231167864,0.0001026740544827907,9.643173979015111e-06,-0.0003579214283498661,-0.0003627970285560469,3.142108907492515,,,,
2025-04-30 00:01:03.127291,-0.02071702696533162,0.022069750903320307,-0.2350458015267175,0.0,0.0,-0.00020718017364315772,-0.000175205263060286,3.1420425844482796,8.213924358623257e-05,7.714539183212089e-06,-0.00035655141412743876,-0.00036266835646291546,3.1421377230255545,,,,
2025-04-30 00:01:03.139943,0.005619191296386994,0.04601176750488278,0.009229007633587805,0.0,0.0,-0.00020718017364315772,-0.000175205263060286,3.1420446223762073,6.571139486898606e-05,6.1716313465696715e-06,-0.00035551219496255537,-0.0003625707527278747,3.1420858207601974,,,,
2025-04-30 00:01:03.153064,-0.0015634136840816382,0.00770454094238282,0.01686259541984736,0.0,0.0,-0.00020718017364315772,-0.000175205263060286,3.14204848423719,5.256911589518885e-05,4.937305077255738e-06,-0.0003546499403335622,-0.00036248976954820507,3.142087934381713,,,,
2025-04-30 00:01:03.166059,0.0008307879760747205,0.03643496086425779,-0.04420610687022897,0.0,0.0,-0.00020718017364315772,-0.000175205263060286,3.1420384587796226,4.2055292716151085e-05,3.94984406180459e-06,-0.00035396685456166686,-0.0003624256139543293,3.1420917586324064,,,,
2025-04-30 00:01:03.179223,-0.00874601866455027,0.012492944262695316,0.09319847328244274,0.0,0.0,-0.00020718017364315772,-0.000175205263060286,3.1420598728422418,3.364423417292087e-05,3.1598752494436724e-06,-0.0003534132067817473,-0.0003623736152104231,3.1420816014666575,,,,
2025-04-30 00:01:03.192213,-0.04944744688720659,0.00770454094238282,0.26113740458015267,0.0,0.0,-0.00019857493329675338,-0.00017643470410239347,3.1421190752797763,0.0006624755700210171,-9.464868177885388e-05,-0.0003529761842945339,-0.000362332569944429,3.1421027304841633,,,,
2025-04-30 00:01:03.204741,0.008013392956543353,0.014887145922851563,0.009229007633587805,0.0,0.0,-0.00019857493329675338,-0.00017643470410239347,3.1421210933530186,0.0005299804560168137,-7.57189454230831e-05,-0.0003446762545018831,-0.0003635183909003723,3.142159832442425,,,,
2025-04-30 00:01:03.217888,0.039138014538574684,0.022069750903320307,0.139,0.0,0.0,-0.00019857493329675338,-0.00017643470410239347,3.14215298777803,0.000423984364813451,-6.057515633846649e-05,-0.00033770866648115806,-0.0003645138585842883,3.1421619500963236,,,,
2025-04-30 00:01:03.231650,-0.00874601866455027,-0.01384327399902352,0.2687709923664122,0.0,0.0,-0.00019857493329675338,-0.00017643470410239347,3.142217542227275,0.0003391874918507608,-4.846012507077319e-05,-0.0003318739970015418,-0.00036534746483310964,3.1421953356501966,,,,
2025-04-30 00:01:03.247021,0.017590199597168343,0.0005219359619140773,-0.15107633587786262,0.0,0.0,-0.00019857493329675338,-0.00017643470410239347,3.1421770114391343,0.00027134999348060865,-3.8768100056618554e-05,-0.00032666023663162054,-0.0003660923610503516,3.142267441583179,,,,
2025-04-30 00:01:03.259098,0.022378602917480617,0.01728134758300781,-0.028938931297709913,0.0,0.0,-0.00019857493329675338,-0.00017643470410239347,3.14217091178621,0.00021707999478448692,-3.101448004529485e-05,-0.00032338324688081246,-0.0003665605485189204,3.1422355982091297,,,,
2025-04-30 00:01:03.271577,0.0008307879760747205,0.005310339282226573,-0.1052748091603053,0.0,0.0,-0.00019857493329675338,-0.00017643470410239347,3.142147982848125,0.00017366399582758956,-2.481158403623588e-05,-0.0003206742911143695,-0.000366947580288685,3.1422292952866235,,,,
2025-04-30 00:01:03.283464,-0.011140220324706629,-0.006660669018554777,-0.2732137404580153,0.0,0.0,-0.00019857493329675338,-0.00017643470410239347,3.142091300720628,0.00013893119666207165,-1.9849267228988706e-05,-0.0003186099758334609,-0.00036724251149665053,3.142207454510442,,,,
2025-04-30 00:01:03.295242,-0.20028215147705053,0.005310339282226573,-0.15870992366412218,0.0,0.0,-0.0001697427123444109,-0.0001773730644904591,3.1420586752123785,0.0024479484154023992,-7.96698190138908e-05,-0.0003169736280517305,-0.0003674762984730784,3.14215129080664,,,,
2025-04-30 00:01:03.307656,0.003224989636230635,-0.009054870678711024,0.03212977099236641,0.0,0.0,-0.0001697427123444109,-0.0001773730644904591,3.1420656364690682,0.0019583587323219196,-6.373585521111265e-05,-0.00028658543250253884,-0.00036846529890475815,3.1421169046132826,,,,
2025-04-30 00:01:03.321671,-0.013534421984862988,0.0005219359619140773,0.03976335877862597,0.0,0.0,-0.0001697427123444109,-0.0001773730644904591,3.1420753632032485,0.0015666869858575357,-5.098868416889012e-05,-0.00025913818068685167,-0.00036935858471536827,3.1421247640535137,,,,
2025-04-30 00:01:03.336302,0.008013392956543353,0.012492944262695316,0.16190076335877862,0.0,0.0,-0.0001697427123444109,-0.0001773730644904591,3.1421167047858596,0.0012533495886860287,-4.07909473351121e-05,-0.00023621667883883405,-0.00037010457751990126,3.1421349176818705,,,,
2025-04-30 00:01:03.349652,0.022378602917480617,0.0005219359619140773,0.13136641221374046,0.0,0.0,-0.0001697427123444109,-0.0001773730644904591,3.142147313920443,0.001002679670948823,-3.263275786808968e-05,-0.00021948415057705946,-0.00037064914679671803,3.142172641497047,,,,
2025-04-30 00:01:03.363743,0.017590199597168343,-0.0018722656982421704,-0.14344274809160307,0.0,0.0,-0.0001697427123444109,-0.0001773730644904591,3.1421120351911678,0.0008021437367590584,-2.6106206294471743e-05,-0.00020535489831690875,-0.0003711089910333388,3.1422049501369327,,,,
2025-04-30 00:01:03.376799,-0.02071702696533162,0.002916137622070325,0.16190076335877862,0.0,0.0,-0.0001697427123444109,-0.0001773730644904591,3.1421489263135047,0.0006417149894072468,-2.0884965035577395e-05,-0.0001948824602482353,-0.00037144982225360303,3.142172264905199,,,,
2025-04-30 00:01:03.389394,0.029561207897949693,-0.021025878979492263,0.07793129770992369,0.0,0.0,-0.0001697427123444109,-0.0001773730644904591,3.1421660570919436,0.0005133719915257974,-1.6707972028461916e-05,-0.00018680025256123236,-0.00037171286211980475,3.1422078537659996,,,,
2025-04-30 00:01:03.403169,-0.025505430285644337,0.026858154223632802,0.23823664122137406,0.0,0.0,-0.0001697427123444109,-0.0001773730644904591,3.142223335181623,0.000410697593220638,-1.3366377622769534e-05,-0.00017972837438397636,-0.000371943020259954,3.142226590413042,,,,
2025-04-30 00:01:03.416259,-0.00874601866455027,0.014887145922851563,0.15426717557251907,0.0,0.0,-0.0001697427123444109,-0.0001773730644904591,3.1422585799756693,0.0003285580745765104,-1.0693102098215628e-05,-0.00017435228799200623,-0.0003721179879296795,3.1422810193693187,,,,
2025-04-30 00:01:03.429429,-0.02311122862548798,0.01728134758300781,0.26113740458015267,0.0,0.0,-0.0001697427123444109,-0.0001773730644904591,3.1423186060879527,0.0002628464596612083,-8.554481678572503e-06,-0.00017002509853706772,-0.000372258818675354,3.1423164798534935,,,,
2025-04-30 00:01:03.442060,-0.006351817004394356,-0.0018722656982421704,0.06266412213740458,0.0,0.0,-0.0001697427123444109,-0.0001773730644904591,3.1423324202257645,0.00021027716772896665,-6.8435853428580024e-06,-0.00016670516347907672,-0.0003723668677762026,3.1423740468945947,,,,
2025-04-30 00:01:03.454380,0.005619191296386994,-0.004266467358398418,0.08556488549618319,0.0,0.0,-0.0001697427123444109,-0.0001773730644904591,3.1423508188401583,0.00016822173418317332,-5.474868274286402e-06,-0.00016411454001324626,-0.0003724511810327064,3.1423875212656855,,,,
2025-04-30 00:01:03.467182,-0.003957615344237997,0.010098742602539068,0.1160992366412214,0.0,0.0,-0.0001697427123444109,-0.0001773730644904591,3.1423767589962868,0.00013457738734653867,-4.3798946194291216e-06,-0.00016196102472316922,-0.00037252126836474515,3.1424066391044683,,,,
2025-04-30 00:01:03.481256,-0.02311122862548798,-0.016237475659179768,-0.34191603053435116,0.0,0.0,-0.0001697427123444109,-0.0001773730644904591,3.1422927724525818,0.00010766190987723094,-3.5039156955432974e-06,-0.00016006700293193373,-0.0003725829103390477,3.142435157140306,,,,
2025-04-30 00:01:03.494778,0.024772804577636975,0.043617565844726536,-0.6167251908396947,0.0,0.0,-0.00017275074984195266,-0.00018523785585198972,3.142147221602967,-0.0002224526360831049,-0.0005816229259262516,-0.00015861118263836487,-0.00037263029080612597,3.142354462903261,,,,
2025-04-30 00:01:03.507569,-0.013534421984862988,-0.009054870678711024,0.01686259541984736,0.0,0.0,-0.00017275074984195266,-0.00018523785585198972,3.1421509861403094,-0.00017796210886648393,-0.00046529834074100134,-0.0001614566091801364,-0.0003800699208319761,3.1422167803607364,,,,
2025-04-30 00:01:03.520077,-0.00874601866455027,-0.011449072338867272,-0.006038167938931305,0.0,0.0,-0.00017275074984195266,-0.00018523785585198972,3.14214966795711,-0.00014236968709318716,-0.0003722386725928011,-0.0001636825866289485,-0.00038588994409454727,3.1422204616081286,,,,
2025-04-30 00:01:03.534817,-0.03268803526611297,-0.018631677319336015,0.10846564885496185,0.0,0.0,-0.00017275074984195266,-0.00018523785585198972,3.1421775719775886,-0.00011389574967454974,-0.00029779093807424093,-0.0001657811144263731,-0.0003913767384934219,3.142218908220825,,,,
2025-04-30 00:01:03.549694,0.008013392956543353,-0.01384327399902352,-0.07474045801526719,0.0,0.0,-0.00017275074984195266,-0.00018523785585198972,3.1421581650043238,-9.11165997396398e-05,-0.00023823275045939277,-0.00016747557786528738,-0.00039580706937450075,3.14224707221665,,,,
2025-04-30 00:01:03.564507,0.1013872577026369,-0.0018722656982421704,0.01686259541984736,0.0,0.0,-0.0001958740406786737,-0.00018830594179746198,3.1421625244297853,-0.0015610692642548016,-0.0002071285918336023,-0.00016882523971827284,-0.0003993358847203939,3.1422277498378834,,,,
2025-04-30 00:01:03.579616,-0.006351817004394356,0.026858154223632802,-0.028938931297709913,0.0,0.0,-0.0001958740406786737,-0.00018830594179746198,3.142154893150195,-0.0012488554114038414,-0.00016570287346688185,-0.00019241153232232714,-0.00040246540349673414,3.142232196552897,,,,
2025-04-30 00:01:03.594151,-0.003957615344237997,0.010098742602539068,-0.24267938931297706,0.0,0.0,-0.0001958740406786737,-0.00018830594179746198,3.1420933285682806,-0.000999084329123073,-0.0001325622987735055,-0.00021056388135478525,-0.0004048739260265528,3.142224855125133,,,,
2025-04-30 00:01:03.607085,-0.02071702696533162,0.05798277580566402,-0.2197786259541985,0.0,0.0,-0.0002051368338674515,-0.00019948971325594103,3.142043717492738,-0.00071618652686533,-0.0008647139447966617,-0.00022348553119274153,-0.0004065884195448019,3.142170074613772,,,,
2025-04-30 00:01:03.620473,0.022378602917480617,-0.018631677319336015,-0.35718320610687027,0.0,0.0,-0.0002051368338674515,-0.00019948971325594103,3.1419602524424146,-0.000572949221492264,-0.0006917711558373295,-0.00023307429028188945,-0.00041816575783120205,3.142118717680519,,,,
2025-04-30 00:01:03.633597,0.015195997937011985,-0.0018722656982421704,0.322206106870229,0.0,0.0,-0.0002051368338674515,-0.00019948971325594103,3.142034053267402,-0.0004583593771938112,-0.0005534169246698636,-0.00024059339641912227,-0.0004272442250815277,3.1420369054034696,,,,
2025-04-30 00:01:03.648920,0.008013392956543353,-0.016237475659179768,0.05503053435114502,0.0,0.0,-0.0002051368338674515,-0.00019948971325594103,3.142048770842145,-0.000366687501755049,-0.0004427335397358909,-0.0002476170207276186,-0.0004357244542603037,3.142123077426265,,,,
2025-04-30 00:01:03.661590,0.034349611218261966,0.01967554924316406,-0.18924427480916028,0.0,0.0,-0.0002051368338674515,-0.00019948971325594103,3.1420069240894177,-0.0002933500014040392,-0.00035418683178871276,-0.00025226279124002386,-0.00044133369486412384,3.1421352460858762,,,,
2025-04-30 00:01:03.674092,0.017590199597168343,-0.004266467358398418,-0.15870992366412218,0.0,0.0,-0.0002051368338674515,-0.00019948971325594103,3.141972292879491,-0.0002346800011232314,-0.0002833494654309702,-0.0002559303097064071,-0.0004457618071529175,3.1420939521449744,,,,
2025-04-30 00:01:03.687194,0.034349611218261966,0.014887145922851563,-0.028938931297709913,0.0,0.0,-0.0002051368338674515,-0.00019948971325594103,3.1419656751781417,-0.00018774400089858513,-0.00022667957234477618,-0.00025900515584577306,-0.0004494743348745035,3.1420576586528215,,,,
2025-04-30 00:01:03.700050,-0.03268803526611297,0.002916137622070325,0.10846564885496185,0.0,0.0,-0.0002051368338674515,-0.00019948971325594103,3.1419900131131877,-0.00015019520071886812,-0.00018134365787582095,-0.000261418838726283,-0.0004523885830023329,3.1420511652252925,,,,
2025-04-30 00:01:03.713312,0.005619191296386994,0.0005219359619140773,0.28403816793893133,0.0,0.0,-0.0002051368338674515,-0.00019948971325594103,3.142055755970339,-0.0001201561605750945,-0.00014507492630065676,-0.0002634106608854745,-0.00045479348218990416,3.1420762704486864,,,,
2025-04-30 00:01:03.726773,0.017590199597168343,0.010098742602539068,0.08556488549618319,0.0,0.0,-0.0002051368338674515,-0.00019948971325594103,3.1420758579359584,-9.61249284600756e-05,-0.0001160599410405254,-0.000265028039242825,-0.00045674628298571733,3.1421430002228634,,,,
2025-04-30 00:01:03.738829,-0.003957615344237997,-0.01384327399902352,0.17716793893129773,0.0,0.0,-0.0002051368338674515,-0.00019948971325594103,3.1421131381479412,-7.689994276806049e-05,-9.284795283242033e-05,-0.00026618695509212183,-0.00045814554233805264,3.1421610050441013,,,,
2025-04-30 00:01:03.751492,-0.015928623645019346,0.014887145922851563,0.07029770992366413,0.0,0.0,-0.0002051368338674515,-0.00019948971325594103,3.142128674287683,-6.151995421444839e-05,-7.427836226593627e-05,-0.00026716071208740744,-0.0004593212433894983,3.142200160030231,,,,
2025-04-30 00:01:03.764561,-0.02071702696533162,0.01967554924316406,0.2916717557251909,0.0,0.0,-0.0002051368338674515,-0.00019948971325594103,3.1421952057551787,-4.921596337155871e-05,-5.942268981274902e-05,-0.0002679647404387557,-0.00046029201636740635,3.1422161952126273,,,,
2025-04-30 00:01:03.776993,-0.02311122862548798,-0.021025878979492263,-0.06710687022900763,0.0,0.0,-0.0002051368338674515,-0.00019948971325594103,3.1421806445567824,-3.937277069724697e-05,-4.7538151850199215e-05,-0.00026857660987168427,-0.00046103077926115124,3.142279483670087,,,,
2025-04-30 00:01:03.789638,0.008013392956543353,0.022069750903320307,-0.15107633587786262,0.0,0.0,-0.0002051368338674515,-0.00019948971325594103,3.1421473043498978,-3.1498216557797576e-05,-3.8030521480159375e-05,-0.00026907445063886705,-0.0004616318654831379,3.142264674223433,,,,
2025-04-30 00:01:03.802675,-0.00874601866455027,0.00770454094238282,0.139,0.0,0.0,-0.0002051368338674515,-0.00019948971325594103,3.1421789327084713,-2.519857324623806e-05,-3.04244171841275e-05,-0.0002694850993371525,-0.00046212767717813616,3.1422302979894536,,,,
2025-04-30 00:01:03.815788,-0.003957615344237997,0.04122336418457029,0.02449618320610686,0.0,0.0,-0.0002051368338674515,-0.00019948971325594103,3.1421845389354575,-2.015885859699045e-05,-2.4339533747302e-05,-0.000269815522770926,-0.0004625266259717166,3.142262109702507,,,,
2025-04-30 00:01:03.828868,0.003224989636230635,0.014887145922851563,0.07029770992366413,0.0,0.0,-0.0002051368338674515,-0.00019948971325594103,3.142200588158913,-1.612708687759236e-05,-1.9471626997841603e-05,-0.0002700792174809241,-0.000462845007404976,3.1422677022704373,,,,
2025-04-30 00:01:03.841223,0.015195997937011985,0.012492944262695316,0.05503053435114502,0.0,0.0,-0.0002051368338674515,-0.00019948971325594103,3.1422124545484698,-1.2901669502073888e-05,-1.5577301598273282e-05,-0.00027027846523263615,-0.00046308557645076485,3.142282860764185,,,,
2025-04-30 00:01:03.854343,0.03195540955810561,0.0005219359619140773,0.07029770992366413,0.0,0.0,-0.0002051368338674515,-0.00019948971325594103,3.142228551745545,-1.0321335601659112e-05,-1.2461841278618627e-05,-0.0002704477343106595,-0.00046328994965062146,3.142295461990563,,,,
2025-04-30 00:01:03.867208,-0.03508223692626933,0.06277117912597652,0.03976335877862597,0.0,0.0,-0.00019957069531623145,-0.00020982348623803604,3.1422374796250407,0.0004326793037036263,-0.0008032875318103874,-0.0002705805115974414,-0.00046345026315433276,3.1423112456039775,,,,
2025-04-30 00:01:03.880197,-0.011140220324706629,-0.009054870678711024,-0.08237404580152674,0.0,0.0,-0.00019957069531623145,-0.00020982348623803604,3.1422188042697425,0.0003461434429629011,-0.00064263002544831,-0.0002649601115254188,-0.00047388477495787044,3.142320260516937,,,,
2025-04-30 00:01:03.892712,-0.011140220324706629,-0.01384327399902352,-0.2045114503816794,0.0,0.0,-0.00019957069531623145,-0.00020982348623803604,3.1421741347107894,0.0002769147543703209,-0.000514104020358648,-0.00026062826783427895,-0.0004819270270301527,3.142302268310201,,,,
2025-04-30 00:01:03.905406,0.012801796276855626,-0.021025878979492263,0.00159541984732825,0.0,0.0,-0.00019957069531623145,-0.00020982348623803604,3.1421744881827522,0.00022153180349625672,-0.0004112832162869184,-0.00025711307859979833,-0.0004884531253663618,3.142256957940086,,,,
2025-04-30 00:01:03.919588,-0.01832282530517526,-0.0018722656982421704,0.009229007633587805,0.0,0.0,-0.00019957069531623145,-0.00020982348623803604,3.1421767725084786,0.00017722544279700537,-0.00032902657302953474,-0.00025397140009114367,-0.0004942857851523904,3.1422573528317956,,,,
2025-04-30 00:01:03.933412,-0.015928623645019346,0.005310339282226573,0.05503053435114502,0.0,0.0,-0.00019957069531623145,-0.00020982348623803604,3.142190050636584,0.0001417803542376043,-0.0002632212584236278,-0.0002515213112800836,-0.0004988344792473148,3.1422595796672623,,,,
2025-04-30 00:01:03.945509,-0.025505430285644337,0.005310339282226573,0.1008320610687023,0.0,0.0,-0.00019957069531623145,-0.00020982348623803604,3.142211338512602,0.00011342428339008344,-0.00021057700673890228,-0.0002498062786900284,-0.0005020185102015282,3.1422711978289866,,,,
2025-04-30 00:01:03.957322,0.024772804577636975,0.014887145922851563,0.02449618320610686,0.0,0.0,-0.00019957069531623145,-0.00020982348623803604,3.142216389305292,9.073942671206676e-05,-0.00016846160539112185,-0.00024846632497137124,-0.0005045061912766034,3.142291988081602,,,,
2025-04-30 00:01:03.969025,0.022378602917480617,0.010098742602539068,0.05503053435114502,0.0,0.0,-0.00019957069531623145,-0.00020982348623803604,3.1422276294004554,7.259154136965341e-05,-0.0001347692843128975,-0.0002474044217902566,-0.0005064776597015491,3.1422969914753294,,,,
2025-04-30 00:01:03.981456,0.005619191296386994,-0.006660669018554777,-0.006038167938931305,0.0,0.0,-0.00019957069531623145,-0.00020982348623803604,3.142226319332941,5.807323309572273e-05,-0.000107815427450318,-0.0002465020258344523,-0.0005081529961778929,3.142308931142475,,,,
2025-04-30 00:01:03.994729,0.027167006237793334,0.012492944262695316,-0.19687786259541984,0.0,0.0,-0.00019957069531623145,-0.00020982348623803604,3.1421807110868603,4.6458586476578186e-05,-8.625234196025441e-05,-0.0002457312197699248,-0.0005095840304237622,3.1423075323551983,,,,
2025-04-30 00:01:04.007495,-0.02311122862548798,0.034040759204101545,0.10846564885496185,0.0,0.0,-0.00019957069531623145,-0.00020982348623803604,3.142204877059047,3.716686918126255e-05,-6.900187356820353e-05,-0.000245138156978785,-0.000510685076722084,3.1422636682839284,,,,
2025-04-30 00:01:04.020815,0.0008307879760747205,0.024463952563476554,0.2535038167938931,0.0,0.0,-0.00019957069531623145,-0.00020982348623803604,3.1422638130563363,2.973349534501004e-05,-5.520149885456283e-05,-0.0002446430777043316,-0.000511604212453842,3.1422888849898056,,,,
2025-04-30 00:01:04.034272,-0.015928623645019346,0.014887145922851563,-0.03657251908396941,0.0,0.0,-0.00019957069531623145,-0.00020982348623803604,3.142255223573069,2.3786796276008034e-05,-4.416119908365027e-05,-0.00024424296645565534,-0.0005123470360061764,3.142348423322059,,,,
2025-04-30 00:01:04.047954,0.015195997937011985,0.00770454094238282,-0.06710687022900763,0.0,0.0,-0.00019957069531623145,-0.00020982348623803604,3.1422391985756124,1.9029437020806428e-05,-3.5328959266920215e-05,-0.00024391751248811002,-0.0005129512551404627,3.142339689871619,,,,
2025-04-30 00:01:04.062293,0.010407594616699711,-0.006660669018554777,-0.14344274809160307,0.0,0.0,-0.00019957069531623145,-0.00020982348623803604,3.1422033008689034,1.5223549616645144e-05,-2.8263167413536173e-05,-0.0002436446544950155,-0.0005134578276109541,3.1423228958351292,,,,
2025-04-30 00:01:04.075289,-0.00874601866455027,0.010098742602539068,-0.11290839694656485,0.0,0.0,-0.00019957069531623145,-0.00020982348623803604,3.142177689791211,1.2178839693316116e-05,-2.261053393082894e-05,-0.00024344680261943543,-0.0005138251480338132,3.1422903586327147,,,,
2025-04-30 00:01:04.089098,-0.015928623645019346,-0.02581428229980476,-0.2732137404580153,0.0,0.0,-0.00019957069531623145,-0.00020982348623803604,3.1421118431606403,9.743071754652894e-06,-1.8088427144663153e-05,-0.00024327862834371352,-0.0005141373707301665,3.142263146833302,,,,
2025-04-30 00:01:04.103759,-0.015928623645019346,-0.016237475659179768,0.04739694656488552,0.0,0.0,-0.00019957069531623145,-0.00020982348623803604,3.1421239714785067,7.794457403722315e-06,-1.4470741715730524e-05,-0.00024313578212787398,-0.0005144025708059917,3.1421932346695476,,,,
2025-04-30 00:01:04.117097,0.010407594616699711,0.012492944262695316,0.07793129770992369,0.0,0.0,-0.00019957069531623145,-0.00020982348623803604,3.1421421133834206,6.235565922977853e-06,-1.157659337258442e-05,-0.00024303181896140016,-0.0005145955828467368,3.142204268373888,,,,
2025-04-30 00:01:04.130790,-0.013534421984862988,-0.018631677319336015,-0.03657251908396941,0.0,0.0,-0.00019957069531623145,-0.00020982348623803604,3.142133372780278,4.988452738382283e-06,-9.261274698067536e-06,-0.0002429464332828179,-0.0005147541049909974,3.1422228934662453,,,,
2025-04-30 00:01:04.143487,-0.011140220324706629,-0.02342008063964851,0.04739694656488552,0.0,0.0,-0.00019957069531623145,-0.00020982348623803604,3.1421438755477515,3.990762190705827e-06,-7.409019758454029e-06,-0.0002428830985590534,-0.0005148716885996776,3.14221478930149,,,,
2025-04-30 00:01:04.156501,0.015195997937011985,0.002916137622070325,-0.2045114503816794,0.0,0.0,-0.00019957069531623145,-0.00020982348623803604,3.14209742312109,3.1926097525646618e-06,-5.927215806763223e-06,-0.00024283116246806436,-0.0005149681101617569,3.1422255549734373,,,,
2025-04-30 00:01:04.169354,0.010407594616699711,-0.0018722656982421704,-0.15870992366412218,0.0,0.0,-0.00019957069531623145,-0.00020982348623803604,3.1420618191095264,2.5540878020517294e-06,-4.741772645410579e-06,-0.00024279012662889522,-0.0005150442949426784,3.1421796761280816,,,,
2025-04-30 00:01:04.182504,-0.03268803526611297,0.005310339282226573,0.2916717557251909,0.0,0.0,-0.00019957069531623145,-0.00020982348623803604,3.1421287595943808,2.0432702416413834e-06,-3.7934181163284633e-06,-0.00024275654104267296,-0.0005151066480120995,3.1421432512119463,,,,
2025-04-30 00:01:04.195226,-0.025505430285644337,0.002916137622070325,0.1008320610687023,0.0,0.0,-0.00019957069531623145,-0.00020982348623803604,3.1421511480321063,1.6346161933131068e-06,-3.0347344930627707e-06,-0.00024273054701438512,-0.0005151549070313001,3.142208013102858,,,,
2025-04-30 00:01:04.207891,-0.03508223692626933,-0.0018722656982421704,-0.18161068702290073,0.0,0.0,-0.00019957069531623145,-0.00020982348623803604,3.14211100286391,1.3076929546504856e-06,-2.4277875944502166e-06,-0.0002427098441560751,-0.0005151933427683712,3.1422303020998195,,,,
2025-04-30 00:01:04.221575,0.019984401257324702,0.002916137622070325,0.1008320610687023,0.0,0.0,-0.00019957069531623145,-0.00020982348623803604,3.1421350838925344,1.0461543637203886e-06,-1.9422300755601735e-06,-0.00024269195026432422,-0.0005152265635395429,3.1421869292667504,,,,
2025-04-30 00:01:04.234902,0.008013392956543353,0.0316465575439453,0.17716793893129773,0.0,0.0,-0.00019957069531623145,-0.00020982348623803604,3.1421762942739937,8.369234909763109e-07,-1.553784060448139e-06,-0.00024267800778834307,-0.0005152524483392603,3.1422103834409367,,,,
2025-04-30 00:01:04.248471,-0.015928623645019346,0.01967554924316406,-0.1205419847328244,0.0,0.0,-0.00019957069531623145,-0.00020982348623803604,3.142147747829908,6.695387927810488e-07,-1.2430272483585113e-06,-0.00024266665187499132,-0.000515273531075434,3.1422523398984623,,,,
2025-04-30 00:01:04.262432,-0.011140220324706629,-0.0018722656982421704,-0.2045114503816794,0.0,0.0,-0.00019957069531623145,-0.00020982348623803604,3.142097914337182,5.35631034224839e-07,-9.94421798686809e-07,-0.0002426573042328968,-0.0005152908853705946,3.1422229673224615,,,,
2025-04-30 00:01:04.275643,0.012801796276855626,0.026858154223632802,0.10846564885496185,0.0,0.0,-0.00019957069531623145,-0.00020982348623803604,3.1421229238752053,4.2850482737987124e-07,-7.955374389494473e-07,-0.0002426502280049368,-0.0005153040226887973,3.142175811960847,,,,
2025-04-30 00:01:04.289249,0.022378602917480617,0.022069750903320307,0.3374732824427481,0.0,0.0,-0.00019957069531623145,-0.00020982348623803604,3.1422030639071568,3.42803861903897e-07,-6.364299511595579e-07,-0.0002426443977376293,-0.0005153148468280504,3.142201569379336,,,,
2025-04-30 00:01:04.301939,-0.006351817004394356,-0.016237475659179768,0.07029770992366413,0.0,0.0,-0.00019957069531623145,-0.00020982348623803604,3.142218633394415,2.7424308952311763e-07,-5.091439609276464e-07,-0.00024264004761528484,-0.00051532292301522,3.1422763127241287,,,,
2025-04-30 00:01:04.314935,0.005619191296386994,0.01728134758300781,0.17716793893129773,0.0,0.0,-0.00019957069531623145,-0.00020982348623803604,3.1422588190271266,2.1939447161849411e-07,-4.0731516874211714e-07,-0.0002426364835635216,-0.0005153295398289193,3.1422922578097268,,,,
2025-04-30 00:01:04.328029,0.010407594616699711,0.00770454094238282,0.09319847328244274,0.0,0.0,-0.00019957069531623145,-0.00020982348623803604,3.1422801182960676,1.755155772947953e-07,-3.258521349936937e-07,-0.0002426336107713311,-0.0005153348732898183,3.1423327471809164,,,,
2025-04-30 00:01:04.340760,0.0008307879760747205,0.014887145922851563,-0.02130534351145036,0.0,0.0,-0.00019957069531623145,-0.00020982348623803604,3.142275384266187,1.4041246183583626e-07,-2.60681707994955e-07,-0.00024263137626930254,-0.0005153390217378813,3.142353455805357,,,,
2025-04-30 00:01:04.353946,0.012801796276855626,0.02925235588378905,0.00159541984732825,0.0,0.0,-0.00019957069531623145,-0.00020982348623803604,3.1422757514473623,1.1232996946866901e-07,-2.08545366395964e-07,-0.00024262952472672497,-0.0005153424592054339,3.1423485524433463,,,,
2025-04-30 00:01:04.366910,0.0008307879760747205,0.014887145922851563,-0.32664885496183205,0.0,0.0,-0.00019957069531623145,-0.00020982348623803604,3.1422018437135466,8.986397557493521e-08,-1.668362931167712e-07,-0.00024262806850663222,-0.000515345162739978,3.1423489134238416,,,,
2025-04-30 00:01:04.379601,0.012801796276855626,0.01967554924316406,-0.028938931297709913,0.0,0.0,-0.00019957069531623145,-0.00020982348623803604,3.1421954336169127,7.189118045994818e-08,-1.3346903449341697e-07,-0.0002426269280196089,-0.0005153472801026486,3.142276559310134,,,,
2025-04-30 00:01:04.392023,0.017590199597168343,-0.040179492260742244,-0.31138167938931294,0.0,0.0,-0.00019957069531623145,-0.00020982348623803604,3.1421279292962576,5.7512944367958546e-08,-1.0677522759473359e-07,-0.00024262603504982902,-0.0005153489379390284,3.1422702856497775,,,,
2025-04-30 00:01:04.404960,-0.0015634136840816382,-0.018631677319336015,0.01686259541984736,0.0,0.0,-0.00019957069531623145,-0.00020982348623803604,3.14213173684686,4.601035549436684e-08,-8.542018207578688e-08,-0.00024262529098719067,-0.000515350319322966,3.1421999760994743,,,,
2025-04-30 00:01:04.417848,-0.006351817004394356,0.01728134758300781,-0.03657251908396941,0.0,0.0,-0.00019957069531623145,-0.00020982348623803604,3.142123510477412,3.680828439549347e-08,-6.83361456606295e-08,-0.00024262469801878252,-0.0005153514201940384,3.142203769055039,,,,
2025-04-30 00:01:04.431921,0.005619191296386994,0.04601176750488278,-0.12817557251908396,0.0,0.0,-0.00019957069531623145,-0.00020982348623803604,3.14209202660419,2.944662751639478e-08,-5.46689165285036e-08,-0.0002426241799933319,-0.0005153523819303222,3.1421947857165478,,,,
2025-04-30 00:01:04.445527,-0.0015634136840816382,-0.016237475659179768,-0.4029847328244275,0.0,0.0,-0.00019957069531623145,-0.00020982348623803604,3.1419963311961765,2.3557302013115826e-08,-4.373513322280288e-08,-0.00024262377934743394,-0.0005153531257464736,3.1421643483011557,,,,
2025-04-30 00:01:04.458787,0.005619191296386994,0.005310339282226573,-0.3495496183206107,0.0,0.0,-0.00019957069531623145,-0.00020982348623803604,3.14191543683741,1.884584161049266e-08,-3.4988106578242304e-08,-0.00024262346698587136,-0.0005153537056590013,3.1420710877457267,,,,
2025-04-30 00:01:04.473060,0.008013392956543353,0.012492944262695316,-0.2197786259541985,0.0,0.0,-0.00019957069531623145,-0.00020982348623803604,3.1418606860445637,1.507667328839413e-08,-2.7990485262593846e-08,-0.00024262319799154007,-0.0005153542050584192,3.1419840086739605,,,,
2025-04-30 00:01:04.486432,0.003224989636230635,-0.011449072338867272,0.05503053435114502,0.0,0.0,-0.00019957069531623145,-0.00020982348623803604,3.141873528857993,1.2061338630715304e-08,-2.2392388210075077e-08,-0.00024262299639429182,-0.0005153545793322858,3.1419327175876193,,,,
2025-04-30 00:01:04.501212,0.003224989636230635,0.053194372485351527,0.19243511450381678,0.0,0.0,-0.00020025716481012924,-0.0002212119278547992,3.141923169505011,-4.644569854390108e-05,-0.0007705282331100175,-0.00024262281812716945,-0.0005153549102927812,3.1419469132885336,,,,
2025-04-30 00:01:04.514537,0.010407594616699711,-0.004266467358398418,0.009229007633587805,0.0,0.0,-0.00020025716481012924,-0.0002212119278547992,3.141925315961645,-3.7156558835120867e-05,-0.0006164225864880141,-0.00024324173916460872,-0.0005256227316059205,3.141991669306135,,,,
2025-04-30 00:01:04.528016,0.005619191296386994,0.014887145922851563,-0.006038167938931305,0.0,0.0,-0.00020025716481012924,-0.0002212119278547992,3.1419238955409177,-2.9725247068096695e-05,-0.0004931380691904113,-0.0002437425456354957,-0.0005339310472786377,3.1419938403411027,,,,
2025-04-30 00:01:04.541647,-0.025505430285644337,-0.016237475659179768,0.02449618320610686,0.0,0.0,-0.00020025716481012924,-0.0002212119278547992,3.1419297235746626,-2.378019765447736e-05,-0.000394510455352329,-0.0002441477477861072,-0.0005406532994344093,3.1419924037643834,,,,
2025-04-30 00:01:04.557790,-0.02311122862548798,-0.006660669018554777,0.03212977099236641,0.0,0.0,-0.00020025716481012924,-0.0002212119278547992,3.141938776002649,-1.902415812358189e-05,-0.00031560836428186324,-0.0002445316278345704,-0.0005470218206267205,3.141999305461083,,,,
2025-04-30 00:01:04.572321,-0.0015634136840816382,-0.004266467358398418,-0.21214503816793895,0.0,0.0,-0.00020025716481012924,-0.0002212119278547992,3.1418849725927993,-1.5219326498865512e-05,-0.0002524866914254906,-0.00024480807045516157,-0.0005516079685516804,3.1420074540902094,,,,
2025-04-30 00:01:04.586980,0.027167006237793334,-0.02342008063964851,0.23823664122137406,0.0,0.0,-0.00020025716481012924,-0.0002212119278547992,3.1419459246172003,-1.217546119909241e-05,-0.0002019893531403925,-0.00024503116946526104,-0.0005553091527614099,3.1419531775126153,,,,
2025-04-30 00:01:04.602225,-0.0015634136840816382,0.02925235588378905,0.18480152671755723,0.0,0.0,-0.00020025716481012924,-0.0002212119278547992,3.1419950941010875,-9.740368959273928e-06,-0.000161591482512314,-0.0002452167780880671,-0.0005583883762129758,3.142016564287064,,,,
2025-04-30 00:01:04.617821,0.022378602917480617,0.024463952563476554,-0.02130534351145036,0.0,0.0,-0.00020025716481012924,-0.0002212119278547992,3.1419892946972774,-7.792295167419143e-06,-0.00012927318600985122,-0.00024536869035657956,-0.0005609085814314203,3.1420668680372748,,,,
2025-04-30 00:01:04.630710,0.003224989636230635,-0.006660669018554777,-0.0900076335877863,0.0,0.0,-0.00020025716481012924,-0.0002212119278547992,3.141969046006506,-6.233836133935315e-06,-0.00010341854880788098,-0.0002454691301085947,-0.0005625748641460853,3.142062075051443,,,,
2025-04-30 00:01:04.644347,0.005619191296386994,-0.021025878979492263,0.26113740458015267,0.0,0.0,-0.00020025716481012924,-0.0002212119278547992,3.142031197590832,-4.987068907148252e-06,-8.273483904630479e-05,-0.00024555413837016004,-0.0005639851403963561,3.1420406529306333,,,,
2025-04-30 00:01:04.657095,0.019984401257324702,0.024463952563476554,0.2306030534351145,0.0,0.0,-0.00020025716481012924,-0.0002212119278547992,3.142082507450013,-3.989655125718601e-06,-6.618787123704383e-05,-0.0002456177159175992,-0.0005650398838242634,3.1420987567729557,,,,
2025-04-30 00:01:04.670653,-0.02311122862548798,-0.021025878979492263,0.03212977099236641,0.0,0.0,-0.00020025716481012924,-0.0002212119278547992,3.1420901103236742,-3.1917241005748813e-06,-5.295029698963507e-05,-0.00024567180730639197,-0.000565937253086426,3.142153324416205,,,,
2025-04-30 00:01:04.684309,-0.06141845518798794,0.014887145922851563,-0.08237404580152674,0.0,0.0,-0.00018907450566917357,-0.00022463576421637269,3.142070477600622,0.0008189027160686306,-0.00025072649184114013,-0.0002457153924136194,-0.0005666603244733303,3.1421609821060694,,,,
2025-04-30 00:01:04.696809,0.008013392956543353,-0.0018722656982421704,-0.02130534351145036,0.0,0.0,-0.00018907450566917357,-0.00022463576421637269,3.1420658293893284,0.0006551221728549046,-0.0002005811934729121,-0.00023547887417281515,-0.0005697944773547693,3.1421430104657726,,,,
2025-04-30 00:01:04.709248,-0.00874601866455027,0.014887145922851563,-0.06710687022900763,0.0,0.0,-0.00018907450566917357,-0.00022463576421637269,3.1420512612098226,0.0005240977382839237,-0.0001604649547783297,-0.00022733026983754514,-0.0005722893658663035,3.1421383853049263,,,,
2025-04-30 00:01:04.721953,-0.04465904356689432,0.005310339282226573,-0.12817557251908396,0.0,0.0,-0.00018907450566917357,-0.00022463576421637269,3.1420228383057585,0.000419278190627139,-0.00012837196382266375,-0.0002206714371746885,-0.0005743281254412263,3.1421235043717104,,,,
2025-04-30 00:01:04.734901,-0.006351817004394356,-0.0018722656982421704,-0.05947328244274808,0.0,0.0,-0.00018907450566917357,-0.00022463576421637269,3.1420093976897263,0.0003354225525017112,-0.00010269757105813101,-0.00021524240805973643,-0.0005759903514876,3.1420945374375813,,,,
2025-04-30 00:01:04.747530,-0.00874601866455027,0.02925235588378905,-0.05947328244274808,0.0,0.0,-0.00018907450566917357,-0.00022463576421637269,3.1419962886963324,0.000268338042001369,-8.215805684650481e-05,-0.00021100634586538531,-0.0005772873224126805,3.1420814284441874,,,,
2025-04-30 00:01:04.759831,0.008013392956543353,-0.028208483959961006,0.21533587786259545,0.0,0.0,-0.00018907450566917357,-0.00022463576421637269,3.142042516983682,0.0002146704336010952,-6.572644547720385e-05,-0.0002077057200822059,-0.0005782978872908506,3.142068660725135,,,,
2025-04-30 00:01:04.772582,0.012801796276855626,0.002916137622070325,0.06266412213740458,0.0,0.0,-0.00018907450566917357,-0.00022463576421637269,3.1420564630646717,0.00017173634688087615,-5.258115638176308e-05,-0.00020496838420948723,-0.0005791359876010468,3.1421165843453855,,,,
2025-04-30 00:01:04.785429,-0.01832282530517526,0.010098742602539068,-0.14344274809160307,0.0,0.0,-0.00018907450566917357,-0.00022463576421637269,3.1420242995169088,0.00013738907750470092,-4.2064925105410465e-05,-0.00020276205556671932,-0.0005798115074516898,3.142130635250797,,,,
2025-04-30 00:01:04.798610,-0.011140220324706629,0.005310339282226573,-0.24267938931297706,0.0,0.0,-0.00018907450566917357,-0.00022463576421637269,3.141968470796969,0.00010991126200376074,-3.3651940084328376e-05,-0.00020095113410040515,-0.0005803659640157472,3.1420976360536534,,,,
2025-04-30 00:01:04.811371,0.005619191296386994,-0.016237475659179768,0.2077022900763359,0.0,0.0,-0.00018907450566917357,-0.00022463576421637269,3.1420147309760855,8.792900960300859e-05,-2.6921552067462703e-05,-0.0001995485437332097,-0.000580795400327725,3.1420435856528925,,,,
2025-04-30 00:01:04.824384,0.003224989636230635,-0.037785290600586,0.1160992366412214,0.0,0.0,-0.00018907450566917357,-0.00022463576421637269,3.1420410991684626,7.034320768240688e-05,-2.1537241653970164e-05,-0.00019840433355098824,-0.0005811457274169971,3.142090758520694,,,,
2025-04-30 00:01:04.837513,-0.03029383360595661,-0.011449072338867272,0.02449618320610686,0.0,0.0,-0.00018907450566917357,-0.00022463576421637269,3.1420467122249764,5.6274566145925507e-05,-1.722979332317613e-05,-0.00019748081463718528,-0.0005814284846393915,3.1421173615049636,,,,
2025-04-30 00:01:04.850183,-0.00874601866455027,0.005310339282226573,0.10846564885496185,0.0,0.0,-0.00018907450566917357,-0.00022463576421637269,3.1420706981100746,4.5019652916740405e-05,-1.3783834658540904e-05,-0.00019676780020888134,-0.0005816467909201411,3.1421227785438317,,,,
2025-04-30 00:01:04.862966,0.005619191296386994,-0.01384327399902352,-0.028938931297709913,0.0,0.0,-0.00018907450566917357,-0.00022463576421637269,3.1420642416515987,3.6015722333392326e-05,-1.1027067726832724e-05,-0.00019619231171048352,-0.0005818229903751765,3.142146977915629,,,,
2025-04-30 00:01:04.875874,-0.003957615344237997,-0.0018722656982421704,0.15426717557251907,0.0,0.0,-0.00018907450566917357,-0.00022463576421637269,3.142098995365443,2.8812577866713862e-05,-8.82165418146618e-06,-0.00019572743000629433,-0.0005819653249364441,3.1421404584773,,,,
2025-04-30 00:01:04.889229,-0.015928623645019346,-0.037785290600586,-0.0900076335877863,0.0,0.0,-0.00018907450566917357,-0.00022463576421637269,3.1420780152004086,2.3050062293371092e-05,-7.057323345172944e-06,-0.00019534263067801916,-0.0005820831403786793,3.1421764171029616,,,,
2025-04-30 00:01:04.901879,-0.03268803526611297,-0.0018722656982421704,-0.028938931297709913,0.0,0.0,-0.00018907450566917357,-0.00022463576421637269,3.142071626056919,1.8440049834696875e-05,-5.645858676138356e-06,-0.0001950510525866125,-0.000582172413927932,3.1421565451982163,,,,
2025-04-30 00:01:04.914813,0.0008307879760747205,0.0316465575439453,0.05503053435114502,0.0,0.0,-0.00018907450566917357,-0.00022463576421637269,3.1420840486691737,1.4752039867757501e-05,-4.516686940910685e-06,-0.0001948125495445148,-0.0005822454372918374,3.142150012513647,,,,
2025-04-30 00:01:04.927420,-0.04465904356689432,-0.004266467358398418,-0.2197786259541985,0.0,0.0,-0.00018907450566917357,-0.00022463576421637269,3.1420356914285814,1.1801631894206001e-05,-3.6133495527285482e-06,-0.00019462657617204407,-0.0005823023774513222,3.142162120719247,,,,
2025-04-30 00:01:04.941510,-0.013534421984862988,0.043617565844726536,-0.04420610687022897,0.0,0.0,-0.00018907450566917357,-0.00022463576421637269,3.142024819801131,9.441305515364802e-06,-2.8906796421828386e-06,-0.00019446028201535454,-0.0005823532923520819,3.142108070464382,,,,
2025-04-30 00:01:04.954115,0.017590199597168343,0.00770454094238282,0.2993053435114504,0.0,0.0,-0.00018907450566917357,-0.00022463576421637269,3.142090663860818,7.553044412291842e-06,-2.312543713746271e-06,-0.00019434127931581709,-0.0005823897278514265,3.1420983455810734,,,,
2025-04-30 00:01:04.967162,0.012801796276855626,-0.009054870678711024,0.07793129770992369,0.0,0.0,-0.00018907450566917357,-0.00022463576421637269,3.142108409811458,6.042435529833474e-06,-1.850034970997017e-06,-0.00019424273489715457,-0.0005824198995627873,3.1421665012259603,,,,
2025-04-30 00:01:04.979718,-0.011140220324706629,-0.05215050056152348,0.04739694656488552,0.0,0.0,-0.0001872831410123172,-0.0002165999649799065,3.142118796806294,0.0001426664377805239,0.0006399807249730772,-0.00019416686417648705,-0.0005824431291836606,3.1421835797942124,,,,
2025-04-30 00:01:04.992084,-0.0015634136840816382,-0.0018722656982421704,-0.006038167938931305,0.0,0.0,-0.0001872831410123172,-0.0002165999649799065,3.142117493648418,0.00011413315022441911,0.0005119845799784618,-0.00019240271098313558,-0.0005745293965832747,3.142193809006918,,,,
2025-04-30 00:01:05.004950,-0.0015634136840816382,-0.009054870678711024,0.05503053435114502,0.0,0.0,-0.0001872831410123172,-0.0002165999649799065,3.1421298509978204,9.130652017953529e-05,0.0004095876639827695,-0.00019093427156655762,-0.0005679421926338334,3.142192453109654,,,,
2025-04-30 00:01:05.018185,-0.011140220324706629,0.010098742602539068,0.19243511450381678,0.0,0.0,-0.0001872831410123172,-0.0002165999649799065,3.1421743027270317,7.304521614362824e-05,0.0003276701311862156,-0.0001897258213568908,-0.0005625212621521583,3.1422051649393925,,,,
2025-04-30 00:01:05.031251,0.015195997937011985,-0.0018722656982421704,-0.09764122137404585,0.0,0.0,-0.0001872831410123172,-0.0002165999649799065,3.1421520360710504,5.843617291490259e-05,0.00026213610494897247,-0.00018877140866283733,-0.0005582399067236061,3.142249048930529,,,,
2025-04-30 00:01:05.043581,0.003224989636230635,-0.030602685620117254,0.01686259541984736,0.0,0.0,-0.0001872831410123172,-0.0002165999649799065,3.1421556648324422,4.674893833192208e-05,0.00020970888395917798,-0.00018805090135523775,-0.0005550078165681391,3.142228036940053,,,,
2025-04-30 00:01:05.056754,0.017590199597168343,0.0005219359619140773,0.16953435114503818,0.0,0.0,-0.0001872831410123172,-0.0002165999649799065,3.1421946445685642,3.739915066553766e-05,0.0001677671071673424,-0.00018743505046827486,-0.0005522451997730093,3.1422319140275894,,,,
2025-04-30 00:01:05.069217,-0.027899631945800696,0.0316465575439453,-0.0900076335877863,0.0,0.0,-0.0001872831410123172,-0.0002165999649799065,3.1421750663022325,2.991932053243013e-05,0.00013421368573387392,-0.00018696895029939354,-0.000550154342745727,3.1422687907740023,,,,
2025-04-30 00:01:05.083334,0.012801796276855626,0.022069750903320307,0.2535038167938931,0.0,0.0,-0.0001872831410123172,-0.0002165999649799065,3.14223752769961,2.3935456425944105e-05,0.00010737094858709914,-0.00018654657204370052,-0.0005482596158113717,3.1422466135829854,,,,
2025-04-30 00:01:05.098623,0.024772804577636975,0.005310339282226573,0.02449618320610686,0.0,0.0,-0.0001872831410123172,-0.0002165999649799065,3.14224406406753,1.9148365140755285e-05,8.589675886967931e-05,-0.000186180638337451,-0.0005466180908510447,3.1423142565378837,,,,
2025-04-30 00:01:05.112013,0.008013392956543353,0.005310339282226573,0.06266412213740458,0.0,0.0,-0.0001872831410123172,-0.0002165999649799065,3.1422587084564846,1.531869211260423e-05,6.871740709574345e-05,-0.00018592424506346086,-0.0005454679482111979,3.1423199812113096,,,,
2025-04-30 00:01:05.125050,0.058291627819824665,0.04601176750488278,-0.2732137404580153,0.0,0.0,-0.00019679309267131814,-0.00022339254021532356,3.1421965385413264,-0.0007294204572297992,-0.0005209956382161282,-0.00018572452483348094,-0.0005445720325385086,3.1423342404617784,,,,
2025-04-30 00:01:05.137560,0.019984401257324702,0.01728134758300781,0.3756412213740458,0.0,0.0,-0.00019679309267131814,-0.00022339254021532356,3.142278555143121,-0.0005835363657838394,-0.00041679651057290257,-0.0001948494455332794,-0.0005510895956758492,3.142274587630084,,,,
2025-04-30 00:01:05.151211,-0.04465904356689432,0.034040759204101545,0.09319847328244274,0.0,0.0,-0.00019643953672181076,-0.00023517913829054473,3.1423007599635446,2.5899838152203333e-05,-0.0008634304780860066,-0.00020281523870404613,-0.0005567792407300374,3.1423640852964145,,,,
2025-04-30 00:01:05.164058,-0.011140220324706629,0.012492944262695316,-0.07474045801526719,0.0,0.0,-0.00019643953672181076,-0.00023517913829054473,3.1422840015445157,2.071987052176267e-05,-0.0006907443824688054,-0.00020248250486334376,-0.0005678716860752452,3.142384982399665,,,,
2025-04-30 00:01:05.175877,0.010407594616699711,0.002916137622070325,-0.02130534351145036,0.0,0.0,-0.00019643953672181076,-0.00023517913829054473,3.1422796066221728,1.6575896417410136e-05,-0.0005525955059750443,-0.0002022376141397874,-0.0005760356797371557,3.142369564741241,,,,
2025-04-30 00:01:05.187884,-0.00874601866455027,0.010098742602539068,-0.37245038167938926,0.0,0.0,-0.00019643953672181076,-0.00023517913829054473,3.1422015584055174,1.326071713392811e-05,-0.00044207640478003546,-0.00020203859528762877,-0.0005826704294084712,3.142365100135623,,,,
2025-04-30 00:01:05.200603,0.039138014538574684,0.024463952563476554,0.14663358778625957,0.0,0.0,-0.00019643953672181076,-0.00023517913829054473,3.1422341109804766,1.0608573707142488e-05,-0.0003536611238240284,-0.00020186992385630307,-0.000588293478237315,3.1422824163579754,,,,
2025-04-30 00:01:05.213884,0.022378602917480617,0.05080017082519528,0.09319847328244274,0.0,0.0,-0.00020016400391794023,-0.00024856609215970134,3.1422557142975385,-0.0002804334917618641,-0.0010079697363112644,-0.00020172903025432372,-0.0005929904894464733,3.1423164058835256,,,,
2025-04-30 00:01:05.226294,-0.013534421984862988,-0.021025878979492263,0.02449618320610686,0.0,0.0,-0.00020016400391794023,-0.00024856609215970134,3.142261019821428,-0.0002243467934094913,-0.0008063757890490116,-0.0002052090552626954,-0.0006054988381034293,3.142336591343534,,,,
2025-04-30 00:01:05.239385,0.019984401257324702,-0.0018722656982421704,-0.16634351145038162,0.0,0.0,-0.00020016400391794023,-0.00024856609215970134,3.1422230139194895,-0.00017947743472759305,-0.0006451006312392094,-0.00020814594524151784,-0.0006160549817328167,3.1423421881926608,,,,
2025-04-30 00:01:05.252334,0.024772804577636975,0.024463952563476554,0.1160992366412214,0.0,0.0,-0.00020016400391794023,-0.00024856609215970134,3.142249253121259,-0.00014358194778207444,-0.0005160805049913675,-0.00021047003951612449,-0.0006244085370746553,3.1423045934496954,,,,
2025-04-30 00:01:05.265095,-0.006351817004394356,0.024463952563476554,-0.05947328244274808,0.0,0.0,-0.00020016400391794023,-0.00024856609215970134,3.142236006776698,-0.00011486555822565956,-0.00041286440399309406,-0.00021230233964387763,-0.000630994423321733,3.1423304519600834,,,,
2025-04-30 00:01:05.277476,0.022378602917480617,0.026858154223632802,0.02449618320610686,0.0,0.0,-0.00020016400391794023,-0.00024856609215970134,3.142241300068597,-9.189244658052765e-05,-0.0003302915231944753,-0.00021372447155732508,-0.0006361060307862748,3.142317600592933,,,,
2025-04-30 00:01:05.294496,0.0008307879760747205,0.002916137622070325,-0.17397709923664118,0.0,0.0,-0.00020016400391794023,-0.00024856609215970134,3.1421896207817066,-7.351395726442212e-05,-0.00026423321855558027,-0.00021528843599556105,-0.0006417274307571014,3.1423248770982037,,,,
2025-04-30 00:01:05.310539,0.012801796276855626,0.0005219359619140773,0.16190076335877862,0.0,0.0,-0.00020016400391794023,-0.00024856609215970134,3.142234953361391,-5.88111658115377e-05,-0.00021138657484446422,-0.0002164678165722588,-0.000645966510481267,3.1422761631171774,,,,
2025-04-30 00:01:05.326819,0.019984401257324702,-0.0329968872802735,0.05503053435114502,0.0,0.0,-0.00020016400391794023,-0.00024856609215970134,3.1422505903408826,-4.7048932649230165e-05,-0.0001691092598755714,-0.00021742530064318134,-0.0006494080215519545,3.142322167375471,,,,
2025-04-30 00:01:05.340959,-0.03268803526611297,-0.004266467358398418,-0.07474045801526719,0.0,0.0,-0.00020016400391794023,-0.00024856609215970134,3.1422321453190327,-3.763914611938413e-05,-0.0001352874079004571,-0.00021809056740701817,-0.0006517992079980111,3.142335748231616,,,,
2025-04-30 00:01:05.354097,-0.013534421984862988,-0.02581428229980476,-0.25794656488549617,0.0,0.0,-0.00020016400391794023,-0.00024856609215970134,3.142172996497055,-3.011131689550731e-05,-0.00010822992632036569,-0.00021858508158292312,-0.0006535766537672645,3.1423186097593603,,,,
2025-04-30 00:01:05.367206,0.008013392956543353,0.026858154223632802,0.28403816793893133,0.0,0.0,-0.00020016400391794023,-0.00024856609215970134,3.142237980550936,-2.4089053516405848e-05,-8.658394105629256e-05,-0.00021897979553647343,-0.000654995384879511,3.14225959510794,,,,
2025-04-30 00:01:05.380029,0.0008307879760747205,-0.01384327399902352,0.04739694656488552,0.0,0.0,-0.00020016400391794023,-0.00024856609215970134,3.1422485880462983,-1.927124281312468e-05,-6.926715284503406e-05,-0.00021928868625237596,-0.000656105639191509,3.1423231632018247,,,,
2025-04-30 00:01:05.394061,0.017590199597168343,0.012492944262695316,0.01686259541984736,0.0,0.0,-0.00020016400391794023,-0.00024856609215970134,3.1422527177402544,-1.5416994250499747e-05,-5.541372227602725e-05,-0.00021955909815492847,-0.0006570775880568134,3.1423347708386626,,,,
2025-04-30 00:01:05.407829,-0.025505430285644337,-0.004266467358398418,-0.2045114503816794,0.0,0.0,-0.00020016400391794023,-0.00024856609215970134,3.142203574417319,-1.2333595400399799e-05,-4.43309778208218e-05,-0.0002197713586794359,-0.0006578405218404098,3.1423388228561446,,,,
2025-04-30 00:01:05.421120,-0.01832282530517526,-0.009054870678711024,0.14663358778625957,0.0,0.0,-0.00020016400391794023,-0.00024856609215970134,3.1422375901801836,-9.86687632031984e-06,-3.5464782256657445e-05,-0.000219935288923019,-0.0006584297407791313,3.142291380703877,,,,
2025-04-30 00:01:05.434277,-0.027899631945800696,0.01967554924316406,-0.2503129770992366,0.0,0.0,-0.00020016400391794023,-0.00024856609215970134,3.1421801084614716,-7.893501056255872e-06,-2.8371825805325956e-05,-0.00022006511104287802,-0.0006588963639599059,3.142325053551144,,,,
2025-04-30 00:01:05.445937,-0.006351817004394356,0.002916137622070325,-0.2503129770992366,0.0,0.0,-0.00020016400391794023,-0.00024856609215970134,3.1421291679886103,-6.314800845004698e-06,-2.2697460644260766e-05,-0.00022015715004688376,-0.0006592271822584448,3.1422741130782827,,,,
2025-04-30 00:01:05.457485,0.022378602917480617,-0.030602685620117254,0.07793129770992369,0.0,0.0,-0.00020016400391794023,-0.00024856609215970134,3.142144874499096,-5.0518406760037585e-06,-1.8157968515408612e-05,-0.0002202300706230096,-0.0006594892826710149,3.14222366424046,,,,
2025-04-30 00:01:05.469110,-0.006351817004394356,-0.0018722656982421704,0.00159541984732825,0.0,0.0,-0.00020016400391794023,-0.00024856609215970134,3.1421451982157604,-4.041472540803007e-06,-1.452637481232689e-05,-0.00022028880093993527,-0.0006597003786485072,3.1422394767927537,,,,
2025-04-30 00:01:05.480662,-0.0015634136840816382,0.0316465575439453,-0.25794656488549617,0.0,0.0,-0.00020016400391794023,-0.00024856609215970134,3.142093191560905,-3.2331780326424056e-06,-1.1621099849861512e-05,-0.00022033548745277435,-0.0006598681852529896,3.1422397984580157,,,,
2025-04-30 00:01:05.492245,0.03195540955810561,0.014887145922851563,-0.006038167938931305,0.0,0.0,-0.00020016400391794023,-0.00024856609215970134,3.1420919708915536,-2.5865424261139248e-06,-9.296879879889211e-06,-0.00022037293687350823,-0.0006600027907257703,3.1421876522657803,,,,
2025-04-30 00:01:05.504093,-0.07099526182861293,-0.006660669018554777,-0.028938931297709913,0.0,0.0,-0.000190427493880074,-0.0002477528973136093,3.1420859866013426,0.0008217704597617961,6.863439774108931e-05,-0.00022040358277467938,-0.0006601129421229105,3.142186403631236,,,,
2025-04-30 00:01:05.515963,-0.03508223692626933,-0.02581428229980476,-0.01367175572519086,0.0,0.0,-0.000190427493880074,-0.0002477528973136093,3.14208315423785,0.000657416367809437,5.4907518192871454e-05,-0.00021064924353038502,-0.0006592982581787,3.1421804083827714,,,,
2025-04-30 00:01:05.527719,-0.027899631945800696,0.012492944262695316,-0.04420610687022897,0.0,0.0,-0.000190427493880074,-0.0002477528973136093,3.142074084216451,0.0005259330942475496,4.3926014554297166e-05,-0.00020292085072729304,-0.0006586527815991445,3.1421776032699538,,,,
2025-04-30 00:01:05.539222,0.017590199597168343,-0.030602685620117254,0.1160992366412214,0.0,0.0,-0.000190427493880074,-0.0002477528973136093,3.14209739190134,0.0004207464753980397,3.5140811643437734e-05,-0.0001968713030235565,-0.0006581475224257102,3.142168728603428,,,,
2025-04-30 00:01:05.550750,-0.01832282530517526,-0.0018722656982421704,-0.04420610687022897,0.0,0.0,-0.000190427493880074,-0.0002477528973136093,3.142088497184267,0.00033659718031843174,2.811264931475019e-05,-0.00019202073065889317,-0.0006577424018607233,3.142192088947404,,,,
2025-04-30 00:01:05.562572,0.008013392956543353,-0.0018722656982421704,0.009229007633587805,0.0,0.0,-0.000190427493880074,-0.0002477528973136093,3.142090401505907,0.0002692777442547454,2.2490119451800153e-05,-0.00018804132325770095,-0.0006574100411301777,3.1421829674200126,,,,
2025-04-30 00:01:05.574743,-0.00874601866455027,0.01728134758300781,-0.05183969465648852,0.0,0.0,-0.000190427493880074,-0.0002477528973136093,3.1420793903450788,0.00021542219540379633,1.7992095561440122e-05,-0.00018476419254531495,-0.0006571363346588735,3.14218492773417,,,,
2025-04-30 00:01:05.587649,0.03195540955810561,0.022069750903320307,-0.11290839694656485,0.0,0.0,-0.000190427493880074,-0.0002477528973136093,3.142053956864337,0.00017233775632303708,1.4393676449152099e-05,-0.00018198388627667212,-0.0006569041230430661,3.1421732504461084,,,,
2025-04-30 00:01:05.600941,-0.02071702696533162,0.05080017082519528,-0.15107633587786262,0.0,0.0,-0.00018459177008052965,-0.0002563597008259325,3.1420189085957917,0.00043903785896798336,-0.0006475139530941401,-0.00017969316003156312,-0.000656712801227643,3.1421470567752454,,,,
2025-04-30 00:01:05.616222,-0.00874601866455027,-0.018631677319336015,-0.11290839694656485,0.0,0.0,-0.00018459177008052965,-0.0002563597008259325,3.1419887951065215,0.0003512302871743867,-0.0005180111624753121,-0.00017298413452156337,-0.0006666075917124566,3.142106763619533,,,,
2025-04-30 00:01:05.629410,-0.003957615344237997,0.00770454094238282,0.3527404580152672,0.0,0.0,-0.00018459177008052965,-0.0002563597008259325,3.1420699875579534,0.0002809842297395094,-0.0004144089299802497,-0.00016835206604606632,-0.0006734391870027174,3.142080774795946,,,,
2025-04-30 00:01:05.644688,0.0008307879760747205,0.026858154223632802,-0.1052748091603053,0.0,0.0,-0.00018459177008052965,-0.0002563597008259325,3.142041917011066,0.00022478738379160752,-0.0003315271439841998,-0.00016405936158943936,-0.0006797702720683861,3.1421748297521575,,,,
2025-04-30 00:01:05.657435,0.012801796276855626,-0.006660669018554777,-0.01367175572519086,0.0,0.0,-0.00018459177008052965,-0.0002563597008259325,3.142038875346459,0.00017982990703328602,-0.00026522171518735986,-0.00016119398571911182,-0.0006839962649275386,3.1421514084251916,,,,
2025-04-30 00:01:05.670224,0.06308003114013694,0.00770454094238282,0.06266412213740458,0.0,0.0,-0.00019244896932143124,-0.00026092359777099116,3.1420528631486118,-0.0006143482319204834,-0.0003568475143494464,-0.00015889405331006695,-0.0006873883148284985,3.1421483566340287,,,,
2025-04-30 00:01:05.683488,0.005619191296386994,0.01967554924316406,0.10846564885496185,0.0,0.0,-0.00019244896932143124,-0.00026092359777099116,3.1420779724341203,-0.0004914785855363867,-0.00028547801147955714,-0.0001670425854236668,-0.0006921214340583608,3.142162863082388,,,,
2025-04-30 00:01:05.696896,0.019984401257324702,-0.01384327399902352,-0.01367175572519086,0.0,0.0,-0.00019244896932143124,-0.00026092359777099116,3.1420747730114296,-0.0003931828684291094,-0.00022838240918364572,-0.00017363242075591628,-0.0006959491757789389,3.1421882458836254,,,,
2025-04-30 00:01:05.711486,0.008013392956543353,0.00770454094238282,-0.04420610687022897,0.0,0.0,-0.00019244896932143124,-0.00026092359777099116,3.1420635165606323,-0.0003145462947432875,-0.0001827059273469166,-0.00017936878113126878,-0.0006992811719254211,3.142184764567207,,,,
2025-04-30 00:01:05.725959,-0.013534421984862988,-0.011449072338867272,-0.47168702290076336,0.0,0.0,-0.00019244896932143124,-0.00026092359777099116,3.1419443641018754,-0.00025163703579463004,-0.0001461647418775333,-0.0001839213475090721,-0.0007019255548851498,3.1421735977000473,,,,
2025-04-30 00:01:05.739166,-0.02071702696533162,-0.011449072338867272,-0.1205419847328244,0.0,0.0,-0.00019244896932143124,-0.00026092359777099116,3.1419165790835617,-0.00020130962863570403,-0.00011693179350202664,-0.0001872446474710615,-0.0007038559117564739,3.1420648734858356,,,,
2025-04-30 00:01:05.753515,-0.011140220324706629,-0.05454470222167973,-0.028938931297709913,0.0,0.0,-0.00019303536572284476,-0.00025156038365908655,3.141909331342845,-4.086471783000204e-05,0.0006525024739963429,-0.00019013338005188947,-0.0007055338477991419,3.142034683806684,,,,
2025-04-30 00:01:05.767646,-0.006351817004394356,0.04122336418457029,0.03976335877862597,0.0,0.0,-0.00019303536572284476,-0.00025156038365908655,3.141919137830123,-3.269177426400163e-05,0.0005220019791970744,-0.00019071081297797942,-0.0006963137569029309,3.142027546852706,,,,
2025-04-30 00:01:05.780743,-0.02311122862548798,0.0005219359619140773,0.18480152671755723,0.0,0.0,-0.00019303536572284476,-0.00025156038365908655,3.1419613809839917,-2.6153419411201304e-05,0.0004176015833576595,-0.000191138978708371,-0.0006894770720266718,3.1420366362239522,,,,
2025-04-30 00:01:05.793962,-0.003957615344237997,0.043617565844726536,-0.2884809160305344,0.0,0.0,-0.00019303536572284476,-0.00025156038365908655,3.1418948246938587,-2.0922735528961045e-05,0.0003340812666861276,-0.00019148469761330367,-0.0006839568469338597,3.1420792723338153,,,,
2025-04-30 00:01:05.807133,-0.03508223692626933,-0.05215050056152348,0.06266412213740458,0.0,0.0,-0.00018734387972557903,-0.00023838010299692393,3.141909229968398,0.00043211611187234187,0.0010006897382961299,-0.00019176027506347465,-0.0006795565970957916,3.142012956128417,,,,
2025-04-30 00:01:05.820637,0.024772804577636975,0.014887145922851563,-0.15870992366412218,0.0,0.0,-0.00018734387972557903,-0.00023838010299692393,3.1418718230047182,0.0003456928894978735,0.000800551790636904,-0.00018592486382657783,-0.0006660430159469691,3.1420277256808604,,,,
2025-04-30 00:01:05.833917,-0.013534421984862988,-0.030602685620117254,0.2535038167938931,0.0,0.0,-0.00018734387972557903,-0.00023838010299692393,3.1419305796728585,0.0002765543115982988,0.0006404414325095233,-0.0001813340916877363,-0.0006554117563295271,3.141990940174302,,,,
2025-04-30 00:01:05.846927,0.005619191296386994,0.012492944262695316,-0.2350458015267175,0.0,0.0,-0.00018734387972557903,-0.00023838010299692393,3.141877209324354,0.00022124344927863904,0.0005123531460076187,-0.00017773617910891884,-0.000647079749959043,3.1420485016664097,,,,
2025-04-30 00:01:05.860865,-0.015928623645019346,0.002916137622070325,0.06266412213740458,0.0,0.0,-0.00018734387972557903,-0.00023838010299692393,3.141892453455026,0.00017699475942291125,0.00040988251680609497,-0.00017465244619678885,-0.0006399384752043396,3.141991322713124,,,,
2025-04-30 00:01:05.874264,0.0008307879760747205,0.010098742602539068,-0.04420610687022897,0.0,0.0,-0.00018734387972557903,-0.00023838010299692393,3.141882116018302,0.00014159580753832901,0.000327906013444876,-0.0001722809980386941,-0.0006344467016474033,3.14200597648934,,,,
2025-04-30 00:01:05.888430,-0.00874601866455027,-0.01384327399902352,-0.0900076335877863,0.0,0.0,-0.00018734387972557903,-0.00023838010299692393,3.141859861297755,0.00011327664603066321,0.0002623248107559008,-0.00017027506778468296,-0.0006298013904317925,3.141995046365798,,,,
2025-04-30 00:01:05.901678,-0.027899631945800696,-0.004266467358398418,-0.006038167938931305,0.0,0.0,-0.00018734387972557903,-0.00023838010299692393,3.1418584651235784,9.062131682453057e-05,0.00020985984860472066,-0.0001687743555354073,-0.0006263260575137987,3.141974234368682,,,,
2025-04-30 00:01:05.914376,-0.003957615344237997,-0.011449072338867272,-0.14344274809160307,0.0,0.0,-0.00018734387972557903,-0.00023838010299692393,3.141826675230467,7.249705345962446e-05,0.00016788787888377655,-0.00016762365193529686,-0.000623661270775203,3.1419728961852194,,,,
2025-04-30 00:01:05.928020,-0.02071702696533162,0.034040759204101545,-0.09764122137404585,0.0,0.0,-0.00018734387972557903,-0.00023838010299692393,3.1418034236945687,5.799764276769957e-05,0.00013431030310702123,-0.00016663450358593213,-0.0006213706119090641,3.1419387378230064,,,,
2025-04-30 00:01:06.095595,0.029561207897949693,0.026858154223632802,0.03976335877862597,0.0,0.0,-0.00018734387972557903,-0.00023838010299692393,3.1418728238478026,4.6398114214159654e-05,0.00010744824248561699,-0.00015691554158571753,-0.0005988635466243103,3.141653162871096,,,,
2025-04-30 00:01:06.107462,0.005619191296386994,0.2064232787353515,-0.08237404580152674,0.0,0.0,-0.00018757229372386153,-0.0002656192436578144,3.1418557626152235,-1.924775478467264e-05,-0.002295359758720127,-0.00015636493301349777,-0.0005975884533498412,3.1416613986194517,,,,
2025-04-30 00:01:06.119686,-0.013534421984862988,-0.0018722656982421704,-0.4182519083969466,0.0,0.0,-0.00018757229372386153,-0.0002656192436578144,3.1417665292683616,-1.5398203827738112e-05,-0.0018362878069761016,-0.0001566002167782332,-0.0006256468368597965,3.1416438242542095,,,,
2025-04-30 00:01:06.134913,0.010407594616699711,-0.004266467358398418,0.1008320610687023,0.0,0.0,-0.00018757229372386153,-0.0002656192436578144,3.1417933258270554,-1.231856306219049e-05,-0.0014690302455808814,-0.0001568346791079686,-0.0006536072614719678,3.141532671990799,,,,
2025-04-30 00:01:06.149330,-0.02071702696533162,0.012492944262695316,0.06266412213740458,0.0,0.0,-0.00018757229372386153,-0.0002656192436578144,3.14180909381908,-9.854850449752394e-06,-0.0011752241964647053,-0.0001570122779440021,-0.0006747865224292747,3.1415580440710342,,,,
2025-04-30 00:01:06.166322,0.022378602917480617,0.0005219359619140773,-0.01367175572519086,0.0,0.0,-0.00018757229372386153,-0.0002656192436578144,3.1418050393282315,-7.883880359801914e-06,-0.0009401793571717642,-0.0001571797277716381,-0.0006947554798614605,3.1415766277200436,,,,
2025-04-30 00:01:06.178384,-0.003957615344237997,-0.01384327399902352,-0.006038167938931305,0.0,0.0,-0.00018757229372386153,-0.0002656192436578144,3.141803768155702,-6.307104287841532e-06,-0.0007521434857374115,-0.0001572748237101211,-0.0007060959916693871,3.1415737495025966,,,,
2025-04-30 00:01:06.190587,0.022378602917480617,-0.009054870678711024,0.03212977099236641,0.0,0.0,-0.00018757229372386153,-0.0002656192436578144,3.1418106113570086,-5.045683430273226e-06,-0.0006017147885899292,-0.00015735179066956632,-0.0007152745615045692,3.1415724634554993,,,,
2025-04-30 00:01:06.203529,0.0008307879760747205,-0.016237475659179768,0.01686259541984736,0.0,0.0,-0.00018757229372386153,-0.0002656192436578144,3.141814420381148,-4.036546744218581e-06,-0.0004813718308719434,-0.00015741709348961202,-0.0007230621433259669,3.1415797211207797,,,,
2025-04-30 00:01:06.217568,0.06308003114013694,0.00770454094238282,-0.18924427480916028,0.0,0.0,-0.0001998116492632454,-0.0002737323721184104,3.1417680503362178,-0.0008718086049904888,-0.0005778976828135269,-0.00015747376272924905,-0.0007298201415275907,3.1415838529197893,,,,
2025-04-30 00:01:06.231948,-0.02071702696533162,0.03643496086425779,0.03212977099236641,0.0,0.0,-0.0001998116492632454,-0.0002737323721184104,3.1417761137996827,-0.000697446883992391,-0.00046231814625082154,-0.00017000972787998238,-0.0007381298842520491,3.141536359139139,,,,
2025-04-30 00:01:06.246859,0.017590199597168343,-0.004266467358398418,-0.01367175572519086,0.0,0.0,-0.0001998116492632454,-0.0002737323721184104,3.1417725556238447,-0.0005579575071939128,-0.00036985451700065726,-0.0001804098128314833,-0.0007450238113825364,3.1415447211503635,,,,
2025-04-30 00:01:06.261404,0.003224989636230635,0.02925235588378905,-0.1358091603053435,0.0,0.0,-0.0001998116492632454,-0.0002737323721184104,3.1417380811441564,-0.0004463660057551303,-0.00029588361360052584,-0.00018852488551370907,-0.0007504030674165747,3.1415412506431903,,,,
2025-04-30 00:01:06.274946,0.0008307879760747205,0.04122336418457029,-0.0900076335877863,0.0,0.0,-0.0001998116492632454,-0.0002737323721184104,3.1417168062170924,-0.00035709280460410425,-0.0002367068908804207,-0.0001945699714743139,-0.0007544101868107222,3.1415091496994707,,,,
2025-04-30 00:01:06.288838,-0.006351817004394356,0.014887145922851563,-0.04420610687022897,0.0,0.0,-0.0001998116492632454,-0.0002737323721184104,3.1417060880039207,-0.00028567424368328343,-0.00018936551270433657,-0.0001995306816292925,-0.00075769850363538,3.1414873264476135,,,,
2025-04-30 00:01:06.301985,-0.013534421984862988,-0.01384327399902352,0.139,0.0,0.0,-0.0001998116492632454,-0.0002737323721184104,3.1417379818505267,-0.00022853939494662677,-0.00015149241016346928,-0.00020328633774552535,-0.0007601880236453816,3.1414771832620625,,,,
2025-04-30 00:01:06.314847,-0.006351817004394356,0.012492944262695316,0.03212977099236641,0.0,0.0,-0.0001998116492632454,-0.0002737323721184104,3.141745194192166,-0.00018283151595730143,-0.00012119392813077543,-0.00020622569494528858,-0.0007621364418015927,3.1415083853359307,,,,
2025-04-30 00:01:06.333883,-0.03268803526611297,0.014887145922851563,0.05503053435114502,0.0,0.0,-0.0001998116492632454,-0.0002737323721184104,3.1417634776375802,-0.00014626521276584116,-9.695514250462035e-05,-0.00020970608566770135,-0.0007644434960360366,3.1415190601898284,,,,
2025-04-30 00:01:06.347735,-0.03268803526611297,0.010098742602539068,-0.2655801526717557,0.0,0.0,-0.0001998116492632454,-0.0002737323721184104,3.141699269627348,-0.00011701217021267293,-7.756411400369629e-05,-0.00021173216886569924,-0.0007657865302508952,3.1415323646520674,,,,
2025-04-30 00:01:06.361098,-0.0015634136840816382,0.043617565844726536,-0.04420610687022897,0.0,0.0,-0.0001998116492632454,-0.0002737323721184104,3.14168895904732,-9.360973617013835e-05,-6.205129120295703e-05,-0.00021329587267748554,-0.0007668230660275154,3.141470421051697,,,,
2025-04-30 00:01:06.374858,-0.011140220324706629,0.005310339282226573,-0.02130534351145036,0.0,0.0,-0.0001998116492632454,-0.0002737323721184104,3.141683842645986,-7.488778893611068e-05,-4.9641032962365626e-05,-0.00021458388410539226,-0.0007676768529887404,3.1414598051147116,,,,
2025-04-30 00:01:06.388248,-0.013534421984862988,-0.011449072338867272,-0.15107633587786262,0.0,0.0,-0.0001998116492632454,-0.0002737323721184104,3.14164853474201,-5.991023114888855e-05,-3.9712826369892506e-05,-0.00021558667211928151,-0.0007683415732797108,3.141454825863537,,,,
2025-04-30 00:01:06.400718,-0.02071702696533162,0.03643496086425779,0.26113740458015267,0.0,0.0,-0.0001998116492632454,-0.0002737323721184104,3.141705370472945,-4.7928184919110846e-05,-3.177026109591401e-05,-0.00021633376740136205,-0.0007688368019685352,3.1414219445764213,,,,
2025-04-30 00:01:06.413048,0.003224989636230635,-0.004266467358398418,0.009229007633587805,0.0,0.0,-0.0001998116492632454,-0.0002737323721184104,3.141707356479142,-3.834254793528868e-05,-2.5416208876731207e-05,-0.00021692470171487554,-0.0007692285158934949,3.141478139188489,,,,
2025-04-30 00:01:06.426448,-0.02071702696533162,0.002916137622070325,-0.12817557251908396,0.0,0.0,-0.0001998116492632454,-0.0002737323721184104,3.1416773798892166,-3.067403834823095e-05,-2.0332967101384968e-05,-0.00021743848569944296,-0.0007695690890106316,3.141480297588657,,,,
2025-04-30 00:01:06.439311,0.003224989636230635,-0.011449072338867272,0.23823664122137406,0.0,0.0,-0.0001998116492632454,-0.0002737323721184104,3.1417308630997502,-2.4539230678584758e-05,-1.6266373681107975e-05,-0.0002178330361108788,-0.0007698306255075378,3.141451522665139,,,,
2025-04-30 00:01:06.452321,0.015195997937011985,0.01728134758300781,-0.3877175572519084,0.0,0.0,-0.0001998116492632454,-0.0002737323721184104,3.14164282009759,-1.9631384542867806e-05,-1.3013098944886381e-05,-0.0002181523096679126,-0.0007700422630708026,3.1415056215026187,,,,
2025-04-30 00:01:06.464562,-0.013534421984862988,0.01728134758300781,0.15426717557251907,0.0,0.0,-0.0001998116492632454,-0.0002737323721184104,3.1416757789614382,-1.5705107634294245e-05,-1.0410479155909106e-05,-0.00021839261990212177,-0.0007702015580430143,3.1414227864462716,,,,
2025-04-30 00:01:06.477810,0.003224989636230635,0.043617565844726536,-0.05947328244274808,0.0,0.0,-0.0001998116492632454,-0.0002737323721184104,3.1416620275110523,-1.2564086107435396e-05,-8.328383324727285e-06,-0.00021860068064612296,-0.0007703394757248937,3.1414584562012253,,,,
2025-04-30 00:01:06.490769,-0.013534421984862988,0.005310339282226573,0.04739694656488552,0.0,0.0,-0.0001998116492632454,-0.0002737323721184104,3.1416727470317265,-1.0051268885948318e-05,-6.662706659781829e-06,-0.00021876348969478162,-0.0007704473973161952,3.14144500543853,,,,
2025-04-30 00:01:06.503864,-0.02311122862548798,-0.040179492260742244,-0.32664885496183205,0.0,0.0,-0.0001998116492632454,-0.0002737323721184104,3.1415980917116824,-8.041015108758655e-06,-5.330165327825464e-06,-0.0002188951100762065,-0.0007705346448072168,3.141455837970655,,,,
2025-04-30 00:01:06.516091,-0.013534421984862988,0.034040759204101545,0.32983969465648855,0.0,0.0,-0.0001998116492632454,-0.0002737323721184104,3.1416684803030757,-6.4328120870069245e-06,-4.264132262260371e-06,-0.00021899342803762215,-0.0007705998170500184,3.1413861303121973,,,,
2025-04-30 00:01:06.529264,0.05110902283935559,0.07234798576660151,0.17716793893129773,0.0,0.0,-0.00020858549491780873,-0.0002860928275968946,3.141709215171627,-0.0006660183140463612,-0.0009382761040870909,-0.0002190781712033668,-0.0007706559909382294,3.141461967829334,,,,
2025-04-30 00:01:06.542380,0.017590199597168343,-0.030602685620117254,0.139,0.0,0.0,-0.00020858549491780873,-0.0002860928275968946,3.141741034403949,-0.0005328146512370889,-0.0007506208832696727,-0.0002278135894020282,-0.0007829623104224726,3.1415025242883914,,,,
2025-04-30 00:01:06.555596,-0.0015634136840816382,0.022069750903320307,0.14663358778625957,0.0,0.0,-0.00020858549491780873,-0.0002860928275968946,3.1417748579632314,-0.00042625172098967117,-0.0006004967066157382,-0.00023485540481693986,-0.0007928827089968934,3.1415345870293447,,,,
2025-04-30 00:01:06.568523,0.003224989636230635,-0.018631677319336015,-0.07474045801526719,0.0,0.0,-0.00020858549491780873,-0.0002860928275968946,3.1417579950451158,-0.000341001376791737,-0.0004803973652925906,-0.00024036558441099408,-0.0008006453631661442,3.141567670452293,,,,
2025-04-30 00:01:06.580991,0.005619191296386994,0.02925235588378905,0.03212977099236641,0.0,0.0,-0.00020858549491780873,-0.0002860928275968946,3.1417649866512645,-0.0002728011014333896,-0.0003843178922340725,-0.00024461714223750046,-0.000806634890825706,3.141551406537871,,,,
2025-04-30 00:01:06.593942,-0.013534421984862988,0.01967554924316406,-0.15870992366412218,0.0,0.0,-0.00020858549491780873,-0.0002860928275968946,3.1417291131875165,-0.0002182408811467117,-0.00030745431378725803,-0.0002481500962219423,-0.0008116120607180797,3.1415586688825834,,,,
2025-04-30 00:01:06.606510,-0.05663005186767567,0.005310339282226573,-0.07474045801526719,0.0,0.0,-0.00020250703363684108,-0.0002907006976649024,3.141712718338227,0.00048363681048293095,-0.0003666282435307843,-0.0002508929989895168,-0.0008154762189076853,3.141523854735757,,,,
2025-04-30 00:01:06.619455,-0.006351817004394356,0.02925235588378905,0.07029770992366413,0.0,0.0,-0.00020250703363684108,-0.0002907006976649024,3.1417286002390576,0.00038690944838634477,-0.0002933025948246275,-0.0002446325816827241,-0.0008202220235098355,3.1415069691139705,,,,
2025-04-30 00:01:06.631441,-0.0015634136840816382,0.0005219359619140773,0.13136641221374046,0.0,0.0,-0.00020250703363684108,-0.0002907006976649024,3.141756081496722,0.00030952755870907584,-0.000234642075859702,-0.00023999507836900945,-0.000823737553464178,3.1415216750760733,,,,
2025-04-30 00:01:06.646123,0.0008307879760747205,-0.018631677319336015,-0.2884809160305344,0.0,0.0,-0.00020250703363684108,-0.0002907006976649024,3.141682158206507,0.00024762204696726067,-0.0001877136606877616,-0.00023545057787670762,-0.0008271825812145548,3.1415553377444683,,,,
2025-04-30 00:01:06.660578,0.012801796276855626,-0.011449072338867272,0.22296946564885498,0.0,0.0,-0.00020250703363684108,-0.0002907006976649024,3.1417384099642813,0.00019809763757380855,-0.0001501709285502093,-0.00023187124040771848,-0.0008298959524485372,3.141482558458014,,,,
2025-04-30 00:01:06.675733,-0.011140220324706629,-0.011449072338867272,0.009229007633587805,0.0,0.0,-0.00020250703363684108,-0.0002907006976649024,3.141740851207309,0.00015847811005904685,-0.00012013674284016745,-0.00022886891377014242,-0.0008321719118415807,3.1415415380011,,,,
2025-04-30 00:01:06.689555,-0.003957615344237997,-0.02342008063964851,-0.07474045801526719,0.0,0.0,-0.00020250703363684108,-0.0002907006976649024,3.1417228213827237,0.00012678248804723748,-9.610939427213397e-05,-0.00022667849242816456,-0.0008338323940707968,3.141543764337319,,,,
2025-04-30 00:01:06.702497,0.017590199597168343,-0.0018722656982421704,-0.2045114503816794,0.0,0.0,-0.00020250703363684108,-0.0002907006976649024,3.1416766251103247,0.00010142599043778998,-7.688751541770718e-05,-0.00022503763363939858,-0.0008350762720440359,3.1415268815146153,,,,
2025-04-30 00:01:06.715121,0.04392641785888696,-0.006660669018554777,-0.028938931297709913,0.0,0.0,-0.00020250703363684108,-0.0002907006976649024,3.141670248972235,8.114079235023199e-05,-6.151001233416575e-05,-0.00022375722936548555,-0.0008360469019873714,3.141481821341687,,,,
2025-04-30 00:01:06.728314,0.003224989636230635,-0.01384327399902352,-0.2045114503816794,0.0,0.0,-0.00020250703363684108,-0.0002907006976649024,3.1416231582874437,6.49126338801856e-05,-4.9208009867332605e-05,-0.00022268674764916265,-0.0008368583969416024,3.1414751578805977,,,,
2025-04-30 00:01:06.742043,-0.011140220324706629,0.0005219359619140773,-0.04420610687022897,0.0,0.0,-0.00020250703363684108,-0.0002907006976649024,3.1416125662639547,5.193010710414848e-05,-3.9366407893866086e-05,-0.00022179560233126128,-0.0008375339432101063,3.141426155825462,,,,
2025-04-30 00:01:06.755655,0.017590199597168343,-0.02342008063964851,0.07793129770992369,0.0,0.0,-0.00020250703363684108,-0.0002907006976649024,3.141631080774488,4.1544085683318785e-05,-3.149312631509287e-05,-0.0002210887280548862,-0.0008380698000115885,3.1414156535695605,,,,
2025-04-30 00:01:06.768424,0.027167006237793334,0.00770454094238282,-0.11290839694656485,0.0,0.0,-0.00020250703363684108,-0.0002907006976649024,3.141605916508171,3.323526854665503e-05,-2.5194501052074298e-05,-0.00022055822258146353,-0.000838471957758246,3.1414330223745655,,,,
2025-04-30 00:01:06.780719,0.008013392956543353,-0.0018722656982421704,-0.2503129770992366,0.0,0.0,-0.00020250703363684108,-0.0002907006976649024,3.14155220538022,2.6588214837324024e-05,-2.015560084165944e-05,-0.00022014961847029827,-0.0008387817063223108,3.141408794955654,,,,
2025-04-30 00:01:06.793864,-0.027899631945800696,0.022069750903320307,-0.12817557251908396,0.0,0.0,-0.00020250703363684108,-0.0002907006976649024,3.141522797888411,2.127057186985922e-05,-1.612448067332755e-05,-0.00021980010450724965,-0.0008390466607004402,3.141351365316925,,,,
2025-04-30 00:01:06.806671,0.024772804577636975,0.022069750903320307,-0.3800839694656488,0.0,0.0,-0.00020250703363684108,-0.0002907006976649024,3.1414378405924395,1.7016457495887376e-05,-1.2899584538662042e-05,-0.00021952769458213184,-0.000839253165189349,3.1413227152003045,,,,
2025-04-30 00:01:06.819509,-0.01832282530517526,-0.016237475659179768,0.04739694656488552,0.0,0.0,-0.00020250703363684108,-0.0002907006976649024,3.1414484605131445,1.3613165996709901e-05,-1.0319667630929633e-05,-0.00021930923922688732,-0.0008394187685955563,3.1412375522961624,,,,
2025-04-30 00:01:06.831818,0.015195997937011985,0.012492944262695316,-0.1358091603053435,0.0,0.0,-0.00020250703363684108,-0.0002907006976649024,3.1414192829745593,1.0890532797367922e-05,-8.255734104743707e-06,-0.00021914166726252562,-0.0008395457990730288,3.1412477351603676,,,,
2025-04-30 00:01:06.845059,0.008013392956543353,-0.0018722656982421704,-0.06710687022900763,0.0,0.0,-0.00020250703363684108,-0.0002907006976649024,3.1414037745792127,8.712426237894337e-06,-6.604587283794966e-06,-0.00021899746514461346,-0.0008396551136827889,3.141216349668204,,,,
2025-04-30 00:01:06.857817,-0.025505430285644337,0.01728134758300781,-0.14344274809160307,0.0,0.0,-0.00020250703363684108,-0.0002907006976649024,3.1413718342692127,6.9699409903154704e-06,-5.283669827035973e-06,-0.00021888631186616346,-0.0008397393751169012,3.1412014070219794,,,,
2025-04-30 00:01:06.870479,-0.015928623645019346,0.014887145922851563,-0.2045114503816794,0.0,0.0,-0.00020250703363684108,-0.0002907006976649024,3.1413266387855607,5.575952792252376e-06,-4.2269358616287785e-06,-0.00021879805893406466,-0.0008398062765949949,3.1411697072596225,,,,
2025-04-30 00:01:06.882874,-0.00874601866455027,0.014887145922851563,-0.12817557251908396,0.0,0.0,-0.00020250703363684108,-0.0002907006976649024,3.1412989113865986,4.460762233801902e-06,-3.381548689303023e-06,-0.000218728948187238,-0.0008398586670482626,3.1411254666101325,,,,
2025-04-30 00:01:06.895763,-0.01832282530517526,0.01967554924316406,-0.2503129770992366,0.0,0.0,-0.00020250703363684108,-0.0002907006976649024,3.1412425993843023,3.5686097870415216e-06,-2.7052389514424188e-06,-0.00021867145064088798,-0.0008399022539381947,3.1410966314166173,,,,
2025-04-30 00:01:06.908736,0.017590199597168343,-0.0018722656982421704,0.1160992366412214,0.0,0.0,-0.00020250703363684108,-0.0002907006976649024,3.14126888641405,2.8548878296332175e-06,-2.164191161153935e-06,-0.00021862515566662465,-0.0008399373485478905,3.1410399558960407,,,,
2025-04-30 00:01:06.921425,-0.027899631945800696,0.026858154223632802,-0.028938931297709913,0.0,0.0,-0.00020250703363684108,-0.0002907006976649024,3.14126247764204,2.283910263706574e-06,-1.7313529289231482e-06,-0.00021858893103190741,-0.0008399648091834565,3.1410656670576076,,,,
2025-04-30 00:01:06.934082,0.03195540955810561,-0.021025878979492263,-0.3342824427480916,0.0,0.0,-0.00020250703363684108,-0.0002907006976649024,3.1411886301798733,1.8271282109652594e-06,-1.3850823431385186e-06,-0.00021856002265712343,-0.0008399867236168508,3.141059274060666,,,,
