timestamp,imu_accel_x,imu_accel_y,imu_gyro_z,gps_lat,gps_lng,odom_x,odom_y,odom_heading,odom_vx,odom_vy,ekf_x,ekf_y,ekf_heading,map_matched_lat,map_matched_lng,distance_to_path,progress
2025-04-30 00:03:41.903311,-0.003122038964843199,-0.00019871873779286897,0.257030534351145,,,0.0,0.0,3.141592653589793,0.0,0.0,0.0,0.0,3.141592653589793,,,,
2025-04-30 00:03:41.916523,0.05912720419921902,-0.0025929203979491167,-0.017778625954198546,,,-1.0115318352303045e-05,4.43631191216403e-07,3.1415885538275883,-0.0007655903463980019,3.357677391132187e-05,0.0,0.0,3.141592653589793,,,,
2025-04-30 00:03:41.930810,0.032790985937500405,-0.01935233201904296,-0.37655725190839695,,,-1.0115318352303045e-05,4.43631191216403e-07,3.141494654221847,-0.0006124722771184015,2.6861419129057496e-05,-1.0938350462495485e-05,4.797272094273267e-07,3.141588220250748,,,,
2025-04-30 00:03:41.943326,-0.02227565224609318,-0.026534936999511705,-0.20861832061068708,,,-1.0115318352303045e-05,4.43631191216403e-07,3.141449085900725,-0.0004899778216947212,2.1489135303245997e-05,-1.860348269194264e-05,8.1589969785985e-07,3.141505969172676,,,,
2025-04-30 00:03:41.957033,-0.010304643945312275,0.014166491223144617,0.15016030534351138,,,-1.0115318352303045e-05,4.43631191216403e-07,3.1414850101396845,-0.000391982257355777,1.71913082425968e-05,-2.5319804375515078e-05,1.1104598575405794e-06,3.141456059481937,,,,
2025-04-30 00:03:41.970431,0.006454767675781792,-0.01935233201904296,-0.010145038167938991,,,-1.0115318352303045e-05,4.43631191216403e-07,3.141482637801757,-0.00031358580588462164,1.3753046594077441e-05,-3.0571649481250196e-05,1.3407919359976892e-06,3.1414911732963593,,,,
2025-04-30 00:03:41.984854,0.018425775976562697,0.023743297863769608,0.15016030534351138,,,-1.0115318352303045e-05,4.43631191216403e-07,3.1415204359521955,-0.00025086864470769734,1.1002437275261953e-05,-3.509431464085058e-05,1.5391441046933614e-06,3.1414886196009735,,,,
2025-04-30 00:03:41.998188,-0.01269884560546819,0.0021954829223633787,0.18069465648854954,,,-1.0115318352303045e-05,4.43631191216403e-07,3.1415624907313795,-0.00020069491576615788,8.801949820209562e-06,-3.8439645395880784e-05,1.685861490758529e-06,3.141523567831354,,,,
2025-04-30 00:03:42.010930,0.03997359091796904,-0.014563928698730466,0.15779389312977093,,,-1.0115318352303045e-05,4.43631191216403e-07,3.1415975812960624,-0.0001605559326129263,7.04155985616765e-06,-4.099681285164341e-05,1.798012112719083e-06,3.141563751119855,,,,
2025-04-30 00:03:42.024347,-0.01269884560546819,-0.004987122058105364,-0.13228244274809164,,,-1.0115318352303045e-05,4.43631191216403e-07,3.1415666051448774,-0.00012844474609034106,5.633247884934121e-06,-4.3150954409303466e-05,1.8924870814733694e-06,3.1416007012047498,,,,
2025-04-30 00:03:42.037642,0.03757938925781268,-0.012169727038574218,-0.0025114503816794365,,,-1.0115318352303045e-05,4.43631191216403e-07,3.1415660223869426,-0.00010275579687227285,4.506598307947297e-06,-4.4858618988751135e-05,1.967380747218051e-06,3.141570006334676,,,,
2025-04-30 00:03:42.050559,0.044761994238281755,0.014166491223144617,0.24939694656488545,,,-1.0115318352303045e-05,4.43631191216403e-07,3.1416222497343553,-8.220463749781829e-05,3.605278646357838e-06,-4.618596890772213e-05,2.0255948147545443e-06,3.141569440120073,,,,
2025-04-30 00:03:42.063818,0.006454767675781792,0.016560692883300865,0.005122137404580118,,,-1.0115318352303045e-05,4.43631191216403e-07,3.1416234350586927,-6.576370999825463e-05,2.8842229170862706e-06,-4.727591477252561e-05,2.073396966453909e-06,3.1416271535797318,,,,
2025-04-30 00:03:42.076764,0.044761994238281755,-0.02174653367919921,-0.1551832061068703,,,-1.0115318352303045e-05,4.43631191216403e-07,3.1415883716596187,-5.261096799860371e-05,2.3073783336690165e-06,-4.8127284556212064e-05,2.1107358003044997e-06,3.141628310918547,,,,
2025-04-30 00:03:42.090017,-0.03664086220703089,-0.01935233201904296,0.06619083969465644,,,-1.0115318352303045e-05,4.43631191216403e-07,3.1416036818565387,-4.208877439888297e-05,1.8459026669352132e-06,-4.8824523780448164e-05,2.1413148742236354e-06,3.141592416443494,,,,
2025-04-30 00:03:42.103371,0.013637372656250424,-0.007381323718261612,0.028022900763358727,,,-1.0115318352303045e-05,4.43631191216403e-07,3.1416102132203907,-3.367101951910638e-05,1.4767221335481706e-06,-4.938657992679708e-05,2.165965174792623e-06,3.1416078436992723,,,,
2025-04-30 00:03:42.117076,0.0016663643554690744,0.016560692883300865,-0.025412213740458045,,,-1.0115318352303045e-05,4.43631191216403e-07,3.141604134678863,-2.6936815615285106e-05,1.1813777068385366e-06,-4.984804176051652e-05,2.1862036740532275e-06,3.141614546710972,,,,
2025-04-30 00:03:42.130544,0.0016663643554690744,-0.00977552537841797,-0.05594656488549621,,,-1.0115318352303045e-05,4.43631191216403e-07,3.1415909833344413,-2.1549452492228087e-05,9.451021654708294e-07,-5.0210840368085994e-05,2.202115064366618e-06,3.1416085730685137,,,,
2025-04-30 00:03:42.143050,-0.005516240624999558,-0.012169727038574218,-0.010145038167938991,,,-1.0115318352303045e-05,4.43631191216403e-07,3.141588769051059,-1.723956199378247e-05,7.560817323766635e-07,-5.048032772096322e-05,2.2139340690890404e-06,3.141596362020425,,,,
2025-04-30 00:03:42.156446,0.028002582617187688,-0.00019871873779286897,-0.13228244274809164,,,-1.0115318352303045e-05,4.43631191216403e-07,3.141557841890126,-1.3791649595025976e-05,6.048653859013309e-07,-5.0711261098853966e-05,2.2240621981263213e-06,3.1415939901468675,,,,
2025-04-30 00:03:42.169290,0.025608380957031773,-0.0025929203979491167,-0.21625190839694663,,,-1.0115318352303045e-05,4.43631191216403e-07,3.141509363457249,-1.1033319676020782e-05,4.838923087210647e-07,-5.0888405516290765e-05,2.2318312851869307e-06,3.141564335631589,,,,
2025-04-30 00:03:42.182586,0.025608380957031773,0.006983886242675874,-0.017778625954198546,,,-1.0115318352303045e-05,4.43631191216403e-07,3.1415052376540045,-8.826655740816625e-06,3.871138469768518e-07,-5.103510857000647e-05,2.23826529430145e-06,3.14151415105447,,,,
2025-04-30 00:03:42.194672,0.006454767675781792,0.006983886242675874,-0.33075572519083973,,,-1.0115318352303045e-05,4.43631191216403e-07,3.1414354711237404,-7.0613245926533e-06,3.0969107758148145e-07,-5.1141782568720435e-05,2.2429437346107973e-06,3.1415104009967956,,,,
2025-04-30 00:03:42.207618,-0.04861187050781224,0.038108507824707094,0.073824427480916,,,-2.2215689693731905e-06,-5.812661258590063e-06,3.141452151635937,0.0006097494357505703,-0.0004832647460799105,-5.123319770316383e-05,2.246952961367274e-06,3.141435667265748,,,,
2025-04-30 00:03:42.220351,-0.007910442285155916,0.006983886242675874,0.10435877862595416,,,-2.2215689693731905e-06,-5.812661258590063e-06,3.1414753448479082,0.00048779954860045626,-0.0003866117968639284,-4.346883259896485e-05,-3.90679431669887e-06,3.141452074372249,,,,
2025-04-30 00:03:42.233879,-0.010304643945312275,0.023743297863769608,-0.20098473282442753,,,-2.2215689693731905e-06,-5.812661258590063e-06,3.141427892844295,0.000390239638880365,-0.00030928943749114273,-3.687017623345279e-05,-9.136644163172937e-06,3.141476713224518,,,,
2025-04-30 00:03:42.246579,0.028002582617187688,0.006983886242675874,-0.05594656488549621,,,-2.2215689693731905e-06,-5.812661258590063e-06,3.1414154913623364,0.00031219171110429206,-0.0002474315499929142,-3.191391517961477e-05,-1.3064792512733001e-05,3.14143216163242,,,,
2025-04-30 00:03:42.259646,0.023214179296875415,-0.016958130358886714,0.08909160305343505,,,-2.2215689693731905e-06,-5.812661258590063e-06,3.141435809427215,0.00024975336888343364,-0.0001979452399943314,-2.7834578317341113e-05,-1.6297923332271037e-05,3.141419402563146,,,,
2025-04-30 00:03:42.272872,-0.07973649208984357,0.018954894543457113,-0.0330458015267176,,,1.4685356570860497e-05,-1.1630331558880771e-05,3.141428180931746,0.0012782606067687707,-0.0004398492647485492,-2.453121311248773e-05,-1.891604784921724e-05,3.1414399690151256,,,,
2025-04-30 00:03:42.285933,0.018425775976562697,-0.012169727038574218,0.03565648854961828,,,1.4685356570860497e-05,-1.1630331558880771e-05,3.141436308826334,0.0010226084854150165,-0.0003518794117988394,-7.836401282254808e-06,-2.4660729856750677e-05,3.1414324362265,,,,
2025-04-30 00:03:42.298931,0.05673300253906266,-0.0025929203979491167,0.043290076335877836,,,1.8318277904821493e-05,-1.5681864481053583e-05,3.1414461294204883,0.00027950137540066285,-0.0003117075543702169,5.455326451207158e-06,-2.9234411185771492e-05,3.1414405250988846,,,,
2025-04-30 00:03:42.311727,0.032790985937500405,0.018954894543457113,-0.0025114503816794365,,,1.8318277904821493e-05,-1.5681864481053583e-05,3.141445568546152,0.0002236011003205303,-0.0002493660434961735,9.031738489146747e-06,-3.3222923400311775e-05,3.1414501929358467,,,,
2025-04-30 00:03:42.324983,-0.0007278373046872844,0.009378087902832122,-0.010145038167938991,0.0,0.0,1.8318277904821493e-05,-1.5681864481053583e-05,3.1414432213264014,0.00017888088025642425,-0.00019949283479693883,1.1995864308095923e-05,-3.652859732962895e-05,3.1414496118709123,,,,
2025-04-30 00:03:42.338099,-0.017487248925780907,0.004589684582519626,-0.08648091603053443,0.0,0.0,1.8318277904821493e-05,-1.5681864481053583e-05,3.1414234234384755,0.0001431047042051394,-0.00015959426783755106,1.4342172927429948e-05,-3.914526467332974e-05,3.1414472893894,,,,
2025-04-30 00:03:42.351026,0.030396784277344047,0.047685314465332085,-0.07121374045801532,0.0,0.0,1.515207785654746e-05,-2.5511374690809643e-05,3.1414073568099092,-0.00024493720770364023,-0.0007604108228046161,1.6192027123166414e-05,-4.1208272508149614e-05,3.141427778312647,,,,
2025-04-30 00:03:42.364090,0.05673300253906266,0.004589684582519626,-0.010145038167938991,0.0,0.0,2.5265574668466486e-06,-3.601289937416647e-05,3.1414050435735748,-0.0009664075967699043,-0.0008038285091156703,1.2992073273057154e-05,-5.1142571845155646e-05,3.1414115404031167,,,,
2025-04-30 00:03:42.376556,-0.015093047265624548,0.014166491223144617,-0.08648091603053443,0.0,0.0,2.5265574668466486e-06,-3.601289937416647e-05,3.141386228472742,-0.0007731260774159235,-0.0006430628072925363,9.453416128060906e-07,-6.116267762923894e-05,3.1414093332119255,,,,
2025-04-30 00:03:42.389363,-0.01269884560546819,-0.04090014696044919,0.020389312977099172,0.0,0.0,2.5265574668466486e-06,-3.601289937416647e-05,3.1413907861114003,-0.0006185008619327389,-0.0005144502458340291,-8.956369523684868e-06,-6.939862044171522e-05,3.1413900020668994,,,,
2025-04-30 00:03:42.401855,0.05673300253906266,-0.00977552537841797,0.15779389312977093,0.0,0.0,-1.3719559642463014e-05,-4.0814261984038426e-05,3.1414251872353267,-0.001300602267064551,-0.0003843788059252631,-1.668220369268646e-05,-7.58247348291646e-05,3.141394447202694,,,,
2025-04-30 00:03:42.414575,0.032790985937500405,0.014166491223144617,-0.33075572519083973,0.0,0.0,-1.3719559642463014e-05,-4.0814261984038426e-05,3.1413517568955625,-0.0010404818136516409,-0.0003075030447402105,-3.322600503670633e-05,-8.071407476583218e-05,3.141429478672455,,,,
2025-04-30 00:03:42.427820,-0.007910442285155916,0.038108507824707094,0.13489312977099233,0.0,0.0,-1.3719559642463014e-05,-4.0814261984038426e-05,3.1413829413581027,-0.0008323854509213127,-0.0002460024357921684,-4.7007792823006647e-05,-8.478713173871424e-05,3.1413530148856066,,,,
2025-04-30 00:03:42.440453,0.013637372656250424,-0.02174653367919921,-0.0025114503816794365,0.0,0.0,-1.3719559642463014e-05,-4.0814261984038426e-05,3.1413823876215403,-0.0006659083607370503,-0.00019680194863373475,-5.7523190729910074e-05,-8.789484283044337e-05,3.14138275676645,,,,
2025-04-30 00:03:42.454062,-0.015093047265624548,-0.01935233201904296,0.11199236641221372,0.0,0.0,-1.3719559642463014e-05,-4.0814261984038426e-05,3.141408987658513,-0.0005327266885896402,-0.0001574415589069878,-6.658533389418956e-05,-9.057306034306643e-05,3.1413821602554988,,,,
2025-04-30 00:03:42.467984,-0.005516240624999558,-0.0313233403198242,0.2875648854961832,0.0,0.0,-1.3719559642463014e-05,-4.0814261984038426e-05,3.141478865006836,-0.0004261813508717122,-0.00012595324712559025,-7.400232315078151e-05,-9.276507057263789e-05,3.141409374042689,,,,
2025-04-30 00:03:42.483680,0.0016663643554690744,-0.0025929203979491167,-0.09411450381679398,0.0,0.0,-1.3719559642463014e-05,-4.0814261984038426e-05,3.1414530829437832,-0.0003409450806973698,-0.0001007625977004722,-8.069158479513e-05,-9.474200884845647e-05,3.1414881505936885,,,,
2025-04-30 00:03:42.499839,-0.019881450585937266,0.016560692883300865,0.020389312977099172,0.0,0.0,-1.3719559642463014e-05,-4.0814261984038426e-05,3.1414588332315843,-0.00027275606455789584,-8.061007816037776e-05,-8.620085471077375e-05,-9.637021344668051e-05,3.14146160798856,,,,
2025-04-30 00:03:42.515052,-0.029458257226562257,-0.028929138659667952,-0.13228244274809164,0.0,0.0,-1.3719559642463014e-05,-4.0814261984038426e-05,3.1414237110738825,-0.00021820485164631667,-6.448806252830221e-05,-9.035016612338978e-05,-9.759649715122388e-05,3.1414670215313625,,,,
2025-04-30 00:03:42.529871,-0.06058287880859359,-0.026534936999511705,-0.2238854961832062,0.0,0.0,-3.849230684679712e-06,-3.604321881530915e-05,3.1413658056168585,0.0006660632327076878,0.00032195648695638134,-9.358372347976567e-05,-9.855213973851528e-05,3.1414328081703626,,,,
2025-04-30 00:03:42.542692,-0.005516240624999558,-0.0313233403198242,0.08909160305343505,0.0,0.0,-3.849230684679712e-06,-3.604321881530915e-05,3.141385742945091,0.0005328505861661503,0.00025756518956510506,-8.504351881367882e-05,-9.442404174847278e-05,3.1413827060454604,,,,
2025-04-30 00:03:42.556545,-0.003122038964843199,-0.02174653367919921,0.11962595419847322,0.0,0.0,-3.849230684679712e-06,-3.604321881530915e-05,3.141414664324998,0.0004262804689329203,0.00020605215165208406,-7.766240884734034e-05,-9.085621797753663e-05,3.1414042452851323,,,,
2025-04-30 00:03:42.569583,-0.005516240624999558,0.0021954829223633787,-0.0406793893129771,0.0,0.0,-3.849230684679712e-06,-3.604321881530915e-05,3.1414054073722752,0.00034102437514633624,0.00016484172132166726,-7.210449656342728e-05,-8.816967738218496e-05,3.1414314672228536,,,,
2025-04-30 00:03:42.582442,-0.015093047265624548,0.0021954829223633787,-0.017778625954198546,0.0,0.0,-3.849230684679712e-06,-3.604321881530915e-05,3.141401417174786,0.000272819500117069,0.0001318733770573338,-6.771914664651788e-05,-8.604992090263425e-05,3.141422337226108,,,,
2025-04-30 00:03:42.595534,-0.017487248925780907,0.004589684582519626,0.39443511450381674,0.0,0.0,-3.849230684679712e-06,-3.604321881530915e-05,3.1414915436500745,0.0002182556000936552,0.00010549870164586704,-6.414744760636047e-05,-8.432346068239383e-05,3.1414182748978976,,,,
2025-04-30 00:03:42.608473,-0.03903506386718725,0.01177228956298837,0.012755725190839673,0.0,0.0,-3.849230684679712e-06,-3.604321881530915e-05,3.1414944242466416,0.00017460448007492417,8.439896131669363e-05,-6.132344357205999e-05,-8.295841548339986e-05,3.1415073492876178,,,,
2025-04-30 00:03:42.621327,-0.0007278373046872844,0.05486791944580083,-0.0406793893129771,0.0,0.0,-1.5327447319159597e-06,-4.386507114020308e-05,3.141485297635388,0.00018020710545331288,-0.0006084877678928687,-5.907897699364326e-05,-8.18735026114786e-05,3.141510211094224,,,,
2025-04-30 00:03:42.633739,-0.02466985390624954,-0.04090014696044919,0.21122900763358776,0.0,0.0,-1.5327447319159597e-06,-4.386507114020308e-05,3.141531054736323,0.00014416568436265032,-0.00048679021431429495,-5.684231949440416e-05,-8.94258059783702e-05,3.141501398995244,,,,
2025-04-30 00:03:42.646745,-0.005516240624999558,-0.026534936999511705,-0.017778625954198546,0.0,0.0,-1.5327447319159597e-06,-4.386507114020308e-05,3.141527018967014,0.00011533254749012026,-0.000389432171451436,-5.496727028162623e-05,-9.575710189093959e-05,3.1415493482320604,,,,
2025-04-30 00:03:42.659384,0.011243170996094065,-0.00977552537841797,-0.0025114503816794365,0.0,0.0,-1.5327447319159597e-06,-4.386507114020308e-05,3.141526464979637,9.22660379920962e-05,-0.00031154573716114884,-5.3509631936277096e-05,-0.00010067896721320536,3.1415454265402607,,,,
2025-04-30 00:03:42.672318,0.042367792578125396,-0.004987122058105364,-0.36129007633587795,0.0,0.0,-1.5327447319159597e-06,-4.386507114020308e-05,3.1414449087336345,7.381283039367697e-05,-0.0002492365897289191,-5.231628781315316e-05,-0.00010470841599648811,3.1415448596150153,,,,
2025-04-30 00:03:42.685156,0.025608380957031773,0.028531701184082103,-0.1551832061068703,0.0,0.0,-1.5327447319159597e-06,-4.386507114020308e-05,3.1414101352748207,5.905026431494158e-05,-0.0001993892717831353,-5.136861665801049e-05,-0.00010790832481494817,3.141463901720766,,,,
2025-04-30 00:03:42.697976,-0.06537128212890586,0.004589684582519626,-0.1551832061068703,0.0,0.0,9.73722528688494e-06,-4.711149801506036e-05,3.1413754141214882,0.0008791251525923244,-0.00025324073772845694,-5.061162010698556e-05,-0.00011046440128306002,3.1414291805674335,,,,
2025-04-30 00:03:42.710416,0.018425775976562697,-0.016958130358886714,0.11962595419847322,0.0,0.0,9.73722528688494e-06,-4.711149801506036e-05,3.141401387113561,0.0007033001220738596,-0.00020259259018276556,-3.96753329216004e-05,-0.00011361470750131643,3.1413954874428183,,,,
2025-04-30 00:03:42.723418,-0.029458257226562257,-0.016958130358886714,0.4936717557251908,0.0,0.0,9.73722528688494e-06,-4.711149801506036e-05,3.141513416268819,0.0005626400976590877,-0.00016207407214621246,-3.053091416766699e-05,-0.00011624884820871797,3.141422634214819,,,,
2025-04-30 00:03:42.736865,-0.007910442285155916,-0.024140735339355457,-0.11701526717557253,0.0,0.0,9.73722528688494e-06,-4.711149801506036e-05,3.141485953830435,0.0004501120781272702,-0.00012965925771696998,-2.2965200879366345e-05,-0.00011842822711617112,3.1415384945679237,,,,
2025-04-30 00:03:42.749828,0.028002582617187688,-0.012169727038574218,-0.0406793893129771,0.0,0.0,9.73722528688494e-06,-4.711149801506036e-05,3.141476749860673,0.00036008966250181617,-0.00010372740617357599,-1.7130157920149736e-05,-0.00012010906923439737,3.1415120191217842,,,,
2025-04-30 00:03:42.762227,-0.005516240624999558,-0.00019871873779286897,-0.21625190839694663,0.0,0.0,9.73722528688494e-06,-4.711149801506036e-05,3.14142995507541,0.00028807173000145294,-8.29819249388608e-05,-1.2665678800510472e-05,-0.00012139510681675629,3.1415032165021834,,,,
2025-04-30 00:03:42.775242,0.020819977636719056,0.035714306164550846,-0.07121374045801532,0.0,0.0,9.73722528688494e-06,-4.711149801506036e-05,3.1414137779143183,0.00023045738400116235,-6.638553995108864e-05,-8.916278706356754e-06,-0.00012247515877873553,3.14145409196616,,,,
2025-04-30 00:03:42.788017,0.07588661582031264,-0.0313233403198242,-0.08648091603053443,0.0,0.0,4.872726950281191e-07,-4.2930841108707834e-05,3.141394496430449,-0.0007240969234011839,0.0003272666290582687,-5.972308351613208e-06,-0.0001233231986992037,3.1414382143985886,,,,
2025-04-30 00:03:42.801068,0.044761994238281755,-0.01935233201904296,0.028022900763358727,0.0,0.0,4.872726950281191e-07,-4.2930841108707834e-05,3.1414008797013895,-0.0005792775387209471,0.00026181330324661495,-1.542269384677622e-05,-0.00011905195309056907,3.141418515113249,,,,
2025-04-30 00:03:42.813245,-0.015093047265624548,0.018954894543457113,-0.07884732824427487,0.0,0.0,4.872726950281191e-07,-4.2930841108707834e-05,3.1413841223908885,-0.0004634220309767577,0.00020945064259729197,-2.2476550937877306e-05,-0.0001158638549817964,3.141424470780482,,,,
2025-04-30 00:03:42.826607,-0.007910442285155916,-0.04090014696044919,-0.33075572519083973,0.0,0.0,4.872726950281191e-07,-4.2930841108707834e-05,3.141306982822498,-0.0003707376247814062,0.00016756051407783358,-2.8669095534109323e-05,-0.0001130650401687427,3.1414060818353895,,,,
2025-04-30 00:03:42.839395,-0.02466985390624954,-0.02174653367919921,0.08909160305343505,0.0,0.0,4.872726950281191e-07,-4.2930841108707834e-05,3.141326866024586,-0.00029659009982512495,0.00013404841126226686,-3.340975597023917e-05,-0.00011092242650708717,3.1413322647448854,,,,
2025-04-30 00:03:42.852344,-0.04621766884765588,-0.00977552537841797,0.2035954198473282,0.0,0.0,4.872726950281191e-07,-4.2930841108707834e-05,3.14137287910009,-0.00023727207986009997,0.0001072387290098135,-3.725029816787248e-05,-0.00010918663498780859,3.141352399670618,,,,
2025-04-30 00:03:42.865033,-0.07015968544921858,-0.00019871873779286897,-0.4376259541984733,0.0,0.0,8.608537481153944e-06,-4.1569363277011264e-05,3.1412759540121304,0.0006399822147018636,0.00010728890399992946,-4.026124025756217e-05,-0.00010782579386815027,3.1413974918407406,,,,
2025-04-30 00:03:42.877318,0.018425775976562697,0.026137499523925856,0.2417633587786259,0.0,0.0,8.608537481153944e-06,-4.1569363277011264e-05,3.1413277913632855,0.0005119857717614909,8.583112319994357e-05,-3.239906250961092e-05,-0.00010650775031279416,3.141303658886165,,,,
2025-04-30 00:03:42.890366,0.042367792578125396,0.006983886242675874,0.2188625954198473,0.0,0.0,8.608537481153944e-06,-4.1569363277011264e-05,3.1413776309896995,0.0004095886174091928,6.866489855995486e-05,-2.571895030037487e-05,-0.00010538787244578287,3.1413587134991245,,,,
2025-04-30 00:03:42.902782,0.042367792578125396,-0.00977552537841797,-0.09411450381679398,0.0,0.0,8.608537481153944e-06,-4.1569363277011264e-05,3.1413572361649518,0.00032767089392735424,5.493191884796389e-05,-2.0633447096787687e-05,-0.0001045353205272031,3.141406141516023,,,,
2025-04-30 00:03:42.915490,-0.03424666054687453,-0.024140735339355457,-0.0330458015267176,0.0,0.0,8.608537481153944e-06,-4.1569363277011264e-05,3.1413499064783488,0.00026213671514188343,4.394553507837111e-05,-1.64692659456337e-05,-0.00010383722232775141,3.141385266555032,,,,
2025-04-30 00:03:42.927794,-0.02466985390624954,-0.014563928698730466,0.005122137404580118,0.0,0.0,8.608537481153944e-06,-4.1569363277011264e-05,3.1413510063967554,0.00020970937211350676,3.515642806269689e-05,-1.3244043075546818e-05,-0.00010329653444777912,3.1413781703601242,,,,
2025-04-30 00:03:42.941524,-0.01269884560546819,-0.00019871873779286897,-0.2544198473282443,0.0,0.0,8.608537481153944e-06,-4.1569363277011264e-05,3.1412900396662984,0.00016776749769080543,2.812514245015751e-05,-1.0364773091325236e-05,-0.00010281384334507256,3.141379397779973,,,,
2025-04-30 00:03:42.953912,-0.03903506386718725,-0.007381323718261612,0.11199236641221372,0.0,0.0,8.608537481153944e-06,-4.1569363277011264e-05,3.141314254139591,0.00013421399815264436,2.250011396012601e-05,-8.286430849080934e-06,-0.00010246542262933279,3.1413243882932047,,,,
2025-04-30 00:03:42.966635,-0.02227565224609318,0.02134909620361336,0.18069465648854954,0.0,0.0,8.608537481153944e-06,-4.1569363277011264e-05,3.1413543780276245,0.0001073711985221155,1.8000091168100806e-05,-6.578862302924155e-06,-0.00010217915974012538,3.1413492565945584,,,,
2025-04-30 00:03:42.980894,-0.03424666054687453,-0.024140735339355457,0.06619083969465644,0.0,0.0,8.608537481153944e-06,-4.1569363277011264e-05,3.141370850825581,8.58969588176924e-05,1.4400072934480645e-05,-5.04784565033718e-06,-0.00010192249464086443,3.14139422575618,,,,
2025-04-30 00:03:42.993502,-0.007910442285155916,0.0021954829223633787,0.3333664122137404,0.0,0.0,8.608537481153944e-06,-4.1569363277011264e-05,3.1414442101610045,6.871756705415393e-05,1.1520058347584517e-05,-3.964831907614662e-06,-0.00010174093434933713,3.141408791458762,,,,
2025-04-30 00:03:43.008401,-0.017487248925780907,0.016560692883300865,-0.05594656488549621,0.0,0.0,8.608537481153944e-06,-4.1569363277011264e-05,3.1414296619911326,5.497405364332315e-05,9.216046678067615e-06,-2.941007815993946e-06,-0.00010156929682230072,3.141495479018657,,,,
2025-04-30 00:03:43.026251,-0.003122038964843199,-0.012169727038574218,0.06619083969465644,0.0,0.0,8.608537481153944e-06,-4.1569363277011264e-05,3.141450283355023,4.397924291465852e-05,7.372837342454092e-06,-1.959712129696062e-06,-0.0001014047889090116,3.1414780491978807,,,,
2025-04-30 00:03:43.040900,-0.031852458886718615,0.006983886242675874,-0.017778625954198546,0.0,0.0,8.608537481153944e-06,-4.1569363277011264e-05,3.1414457379359346,3.5183394331726816e-05,5.898269873963274e-06,-1.315474453094763e-06,-0.00010129678660418159,3.1414949720527177,,,,
2025-04-30 00:03:43.055133,-0.04621766884765588,0.016560692883300865,-0.1704503816793893,0.0,0.0,8.608537481153944e-06,-4.1569363277011264e-05,3.1414033969786503,2.8146715465381454e-05,4.71861589917062e-06,-8.147220259872467e-07,-0.00010121283867899636,3.141490555729124,,,,
2025-04-30 00:03:43.068718,-0.0869190970703122,0.0021954829223633787,0.050923664122137335,0.0,0.0,2.470481206515193e-05,-4.1906436689427154e-05,3.1414154716354723,0.0011848069368004125,-2.481113969305409e-05,-4.323329238505475e-07,-0.00010114873360431257,3.1414501397476853,,,,
2025-04-30 00:03:43.082182,-0.05340027382812451,-0.00977552537841797,0.08909160305343505,0.0,0.0,4.982435619804518e-05,-4.049869839830926e-05,3.141436406960834,0.001865718765999729,0.00010455777913245615,1.551959438710643e-05,-0.00010148278422858931,3.1414621061220735,,,,
2025-04-30 00:03:43.094664,0.013637372656250424,-0.007381323718261612,0.012755725190839673,0.0,0.0,4.982435619804518e-05,-4.049869839830926e-05,3.141439185911143,0.0014925750127997833,8.364622330596492e-05,3.880825109723422e-05,-0.00010017765171399816,3.1414815155350344,,,,
2025-04-30 00:03:43.107944,0.04955039755859403,-0.004987122058105364,0.043290076335877836,0.0,0.0,4.982435619804518e-05,-4.049869839830926e-05,3.141449219788924,0.0011940600102398266,6.691697864477195e-05,5.862987604095807e-05,-9.906681704765886e-05,3.1414844720876305,,,,
2025-04-30 00:03:43.122419,-0.017487248925780907,-0.00977552537841797,0.0814580152671755,0.0,0.0,4.982435619804518e-05,-4.049869839830926e-05,3.1414697988628393,0.0009552480081918614,5.353358291581756e-05,7.591373799795507e-05,-9.809820256299552e-05,3.141495408637923,,,,
2025-04-30 00:03:43.137024,-0.03424666054687453,-0.00019871873779286897,-0.2238854961832062,0.0,0.0,4.982435619804518e-05,-4.049869839830926e-05,3.141412730941104,0.0007641984065534891,4.282686633265405e-05,8.986472295035734e-05,-9.731636768524433e-05,3.1415161721072824,,,,
2025-04-30 00:03:43.151918,0.008848969335937706,0.009378087902832122,0.14252671755725188,0.0,0.0,4.982435619804518e-05,-4.049869839830926e-05,3.1414497812816577,0.0006113587252427914,3.4261493066123246e-05,0.00010124688281664338,-9.667849375749202e-05,3.1414579722552074,,,,
2025-04-30 00:03:43.164890,-0.010304643945312275,0.014166491223144617,0.11962595419847322,0.0,0.0,4.982435619804518e-05,-4.049869839830926e-05,3.141476864337021,0.0004890869801942331,2.74091944528986e-05,0.00010917720788709239,-9.623406601614362e-05,3.141490239993494,,,,
2025-04-30 00:03:43.177905,-0.03424666054687453,0.006983886242675874,0.21122900763358776,0.0,0.0,4.982435619804518e-05,-4.049869839830926e-05,3.141524847853429,0.00039126958415538647,2.192735556231888e-05,0.0001155429237092606,-9.587732140860487e-05,3.1415174146415237,,,,
2025-04-30 00:03:43.191193,0.0016663643554690744,-0.0025929203979491167,-0.0330458015267176,0.0,0.0,4.982435619804518e-05,-4.049869839830926e-05,3.1415171842929523,0.0003130156673243092,1.7541884449855107e-05,0.00012074184233665715,-9.558596592916332e-05,3.1415664001767385,,,,
2025-04-30 00:03:43.204701,-0.03903506386718725,-0.0025929203979491167,-0.07884732824427487,0.0,0.0,4.982435619804518e-05,-4.049869839830926e-05,3.141498594879584,0.00025041253385944736,1.4033507559884087e-05,0.00012497015809041765,-9.534900454315985e-05,3.1415586091446475,,,,
2025-04-30 00:03:43.218069,-0.04621766884765588,0.014166491223144617,0.012755725190839673,0.0,0.0,4.982435619804518e-05,-4.049869839830926e-05,3.141501570965247,0.0002003300270875579,1.122680604790727e-05,0.0001283176456261245,-9.516140613937816e-05,3.141540212981385,,,,
2025-04-30 00:03:43.231498,-0.031852458886718615,-0.04090014696044919,-0.06358015267175576,0.0,0.0,5.809079929637775e-05,-3.312329020684263e-05,3.1414866691137964,0.0006155699130600739,0.0005492180040674883,0.00013100786282919483,-9.501064218649148e-05,3.141543202655268,,,,
2025-04-30 00:03:43.246327,-0.0510060721679686,0.047685314465332085,-0.07121374045801532,0.0,0.0,7.80284394684648e-05,-3.541997513080127e-05,3.141468237148456,0.0013444457222563573,-0.00015487129844532848,0.00014013654033858295,-8.68659393101626e-05,3.1415267464606793,,,,
2025-04-30 00:03:43.260779,0.006454767675781792,0.006983886242675874,-0.05594656488549621,0.0,0.0,7.80284394684648e-05,-3.541997513080127e-05,3.1414541254865376,0.0010755565778050858,-0.0001238970387562628,0.00015956644382204323,-8.910413630936963e-05,3.141508783888154,,,,
2025-04-30 00:03:43.273639,-0.029458257226562257,-0.004987122058105364,-0.16281679389312986,0.0,0.0,7.80284394684648e-05,-3.541997513080127e-05,3.141417581194556,0.0008604452622440686,-9.911763100501025e-05,0.00017339816566438668,-9.069745962915619e-05,3.1414962266601574,,,,
2025-04-30 00:03:43.287041,0.018425775976562697,-0.004987122058105364,-0.2238854961832062,0.0,0.0,7.80284394684648e-05,-3.541997513080127e-05,3.1413652124140845,0.000688356209795255,-7.929410480400821e-05,0.0001849298403072508,-9.202583264981794e-05,3.141458142384571,,,,
2025-04-30 00:03:43.299754,-0.02466985390624954,0.009378087902832122,0.19596183206106865,0.0,0.0,7.80284394684648e-05,-3.541997513080127e-05,3.1414086921842523,0.0005506849678362039,-6.343528384320657e-05,0.00019368071803630734,-9.303387616842186e-05,3.1414084669461673,,,,
2025-04-30 00:03:43.312229,-0.05579447548828087,-0.004987122058105364,0.2188625954198473,0.0,0.0,9.326944955744e-05,-3.543608920425038e-05,3.1414563433296747,0.0012217696108755218,-1.2917572478863114e-06,0.00020055025798551603,-9.382520195721644e-05,3.14145113209751,,,,
2025-04-30 00:03:43.324842,-0.003122038964843199,0.009378087902832122,0.043290076335877836,0.0,0.0,9.326944955744e-05,-3.543608920425038e-05,3.141465873180777,0.0009774156887004174,-1.0334057983090493e-06,0.0002159605090603422,-9.384149496642249e-05,3.141499312376289,,,,
2025-04-30 00:03:43.337801,0.21235611044921887,-0.03371754197998045,0.050923664122137335,0.0,0.0,7.073203754366563e-05,-2.9895643069008157e-05,3.1414773913803176,-0.0017390675796420244,0.0004275207040038082,0.00022862730840893494,-9.385488736849275e-05,3.1415091039681933,,,,
2025-04-30 00:03:43.351099,0.0016663643554690744,-0.024140735339355457,0.2875648854961832,0.0,0.0,7.073203754366563e-05,-2.9895643069008157e-05,3.141544134802083,-0.0013912540637136196,0.0003420165632030466,0.0002055007128188935,-8.816960029649691e-05,3.141520923281899,,,,
2025-04-30 00:03:43.363809,0.08306922080078172,-0.00019871873779286897,-0.010145038167938991,0.0,0.0,4.0252395338683495e-05,-2.560347467611732e-05,3.1415418843400826,-0.002398110735878095,0.0003377039347760341,0.00018781807396331474,-8.382261901717352e-05,3.141584713465503,,,,
2025-04-30 00:03:43.376964,0.04955039755859403,-0.007381323718261612,0.15779389312977093,0.0,0.0,9.346015382171138e-07,-1.9998143856150937e-05,3.141578112153709,-0.002988921952522408,0.00042611486351376164,0.0001562721102607939,-7.938029035016873e-05,3.1415823842717385,,,,
2025-04-30 00:03:43.389537,-0.08931329873046856,0.01177228956298837,-0.11701526717557253,0.0,0.0,-2.2057641042399226e-05,-1.6571995852392124e-05,3.1415524333130516,-0.001828629899782874,0.0002724900217448396,0.00011869095805766932,-7.40225433778164e-05,3.1416170119261992,,,,
2025-04-30 00:03:43.401971,-0.0007278373046872844,-0.0025929203979491167,-0.20098473282442753,0.0,0.0,-2.2057641042399226e-05,-1.6571995852392124e-05,3.1415088167440426,-0.0014629039198262993,0.0002179920173958717,9.595376339236218e-05,-7.06344008840828e-05,3.141591617935302,,,,
2025-04-30 00:03:43.414012,-0.04621766884765588,-0.004987122058105364,0.050923664122137335,0.0,0.0,-2.2057641042399226e-05,-1.6571995852392124e-05,3.141519518693222,-0.0011703231358610395,0.00017439361391669738,7.83388028251483e-05,-6.800953896502278e-05,3.1415493796471976,,,,
2025-04-30 00:03:43.427090,-0.05579447548828087,-0.00019871873779286897,0.13489312977099233,0.0,0.0,-2.7705121298630492e-05,-1.4303983164385592e-05,3.14155030855073,-0.0004318314226866684,0.00017342232310642175,6.303334690889006e-05,-6.572882376074273e-05,3.1415610031625296,,,,
2025-04-30 00:03:43.439982,-0.0869190970703122,-0.05047695360107418,-0.12464885496183209,0.0,0.0,-1.9003009044548656e-05,-3.892257514858847e-06,3.1415222615631935,0.000675000540671767,0.0008076108693564741,5.7466172827341314e-05,-6.349306181374662e-05,3.141591355193686,,,,
2025-04-30 00:03:43.452458,-0.04382346718749952,0.023743297863769608,0.005122137404580118,0.0,0.0,-1.9003009044548656e-05,-3.892257514858847e-06,3.1415233768704405,0.0005400004325374137,0.0006460886954851794,6.588729663995278e-05,-5.341752747936928e-05,3.1415642138344713,,,,
2025-04-30 00:03:43.464990,0.078280817480469,0.0333201045043946,-0.10938167938931298,0.0,0.0,-2.4420074529159553e-05,-1.0846274684051514e-06,3.1414994519525137,-0.0004322505789202766,0.00022403268271746675,7.2654708524236e-05,-4.532059263881338e-05,3.1415653341931793,,,,
2025-04-30 00:03:43.477310,0.013637372656250424,0.004589684582519626,-0.017778625954198546,0.0,0.0,-2.4420074529159553e-05,-1.0846274684051514e-06,3.1414956290982965,-0.00034580046313622127,0.00017922614617397342,6.732936338589449e-05,-4.256050065531806e-05,3.1415418143657505,,,,
2025-04-30 00:03:43.494482,-0.019881450585937266,-0.0025929203979491167,0.14252671755725188,0.0,0.0,-2.4420074529159553e-05,-1.0846274684051514e-06,3.1415383433589454,-0.00027664037050897705,0.00014338091693917875,6.139157367023874e-05,-3.948298260379014e-05,3.141536486235867,,,,
2025-04-30 00:03:43.510554,-0.08452489541015584,-0.016958130358886714,-0.19335114503816797,0.0,0.0,-7.379880496100366e-06,5.464235163553854e-06,3.1414841064436785,0.001060238744324165,0.00040746941497198064,5.694539999842557e-05,-3.7178559511952505e-05,3.1415764663947736,,,,
2025-04-30 00:03:43.526152,0.07349241416015673,0.04050270948486334,0.03565648854961828,0.0,0.0,-8.697259675066668e-06,2.0371838213366653e-06,3.1414938136246846,-8.445660246782645e-05,-0.00021970676132408482,7.348331894961847e-05,-3.082273051025714e-05,3.141523828161482,,,,
2025-04-30 00:03:43.540222,0.042367792578125396,-0.0313233403198242,-0.0330458015267176,0.0,0.0,-1.8080779656336324e-05,5.085539829464212e-06,3.141485698619428,-0.0006669152301406317,0.00021665590873883156,7.229501167908292e-05,-3.3914012118070864e-05,3.141532584269025,,,,
2025-04-30 00:03:43.553630,0.020819977636719056,0.026137499523925856,-0.0406793893129771,0.0,0.0,-1.8080779656336324e-05,5.085539829464212e-06,3.14147617929102,-0.0005335321841125054,0.00017332472699106526,6.335320753656283e-05,-3.100915312744049e-05,3.141524851266083,,,,
2025-04-30 00:03:43.567290,0.030396784277344047,0.009378087902832122,-0.23151908396946574,0.0,0.0,-1.8080779656336324e-05,5.085539829464212e-06,3.1414209806275695,-0.0004268257472900043,0.00013865978159285222,5.606492799819124e-05,-2.8641462669695876e-05,3.141515152506561,,,,
2025-04-30 00:03:43.580934,0.05912720419921902,0.02134909620361336,0.4020687022900763,0.0,0.0,-3.457412496170979e-05,3.0457771942569455e-06,3.141516722856204,-0.001208879059636682,-0.00014950431769157502,5.024152955385566e-05,-2.67496574973357e-05,3.141460022244135,,,,
2025-04-30 00:03:43.595019,-0.015093047265624548,-0.016958130358886714,0.2722977099236641,0.0,0.0,-3.457412496170979e-05,3.0457771942569455e-06,3.1415836642248505,-0.0009671032477093456,-0.00011960345415326002,3.32138258003186e-05,-2.8855505233909055e-05,3.1415588663703993,,,,
2025-04-30 00:03:43.607875,-0.041429265527343606,-0.014563928698730466,0.1654274809160305,0.0,0.0,-3.457412496170979e-05,3.0457771942569455e-06,3.141620782784162,-0.0007736825981674765,-9.568276332260801e-05,2.0780740043305435e-05,-3.039312803255505e-05,3.1416199644336733,,,,
2025-04-30 00:03:43.621291,-0.041429265527343606,0.014166491223144617,0.0814580152671755,0.0,0.0,-3.457412496170979e-05,3.0457771942569455e-06,3.1416398565268864,-0.0006189460785339813,-7.654621065808642e-05,1.0400974179533503e-05,-3.167681294784171e-05,3.1416586999859715,,,,
2025-04-30 00:03:43.634287,0.028002582617187688,-0.0313233403198242,-0.017778625954198546,0.0,0.0,-3.457412496170979e-05,3.0457771942569455e-06,3.1416358240866877,-0.0004951568628271851,-6.123696852646913e-05,2.3574718719631137e-06,-3.267156781166186e-05,3.1416771757993507,,,,
2025-04-30 00:03:43.646580,0.04955039755859403,-0.012169727038574218,-0.13228244274809164,0.0,0.0,-4.78781350248807e-05,4.110299057620554e-06,3.141607441666611,-0.0010822129208331328,8.659338872800581e-05,-3.7296591898519857e-06,-3.3424374611350624e-05,3.1416733612309184,,,,
2025-04-30 00:03:43.659452,0.016031574316406783,-0.03371754197998045,0.23412977099236637,0.0,0.0,-4.78781350248807e-05,4.110299057620554e-06,3.141660039922373,-0.0008657703366665063,6.927471098240465e-05,-1.7659624964850455e-05,-3.2309766831216525e-05,3.1416436434136283,,,,
2025-04-30 00:03:43.672279,0.013637372656250424,-0.00019871873779286897,-0.010145038167938991,0.0,0.0,-4.78781350248807e-05,4.110299057620554e-06,3.1416577686059535,-0.0006926162693332051,5.541976878592372e-05,-2.8765410674152413e-05,-3.1421136137068865e-05,3.1416960614316096,,,,
2025-04-30 00:03:43.685436,-0.04861187050781224,-0.014563928698730466,-0.12464885496183209,0.0,0.0,-4.856191083745191e-05,7.295920949716773e-06,3.141629144837951,-5.196998506425052e-05,0.00024212134899894428,-3.78782524765475e-05,-3.0691971074056935e-05,3.141693731773475,,,,
2025-04-30 00:03:43.697834,-0.03424666054687453,0.023743297863769608,-0.3002213740458016,0.0,0.0,-4.856191083745191e-05,7.295920949716773e-06,3.141564183634335,-4.157598805140042e-05,0.00019369707919915543,-3.8522551805674804e-05,-2.769026494436388e-05,3.1416667605437505,,,,
2025-04-30 00:03:43.711152,-0.05340027382812451,-0.01935233201904296,-0.36129007633587795,0.0,0.0,-3.9821955197035066e-05,1.3186840717060339e-05,3.1414802039133924,0.0006562483154748108,0.0004423256058691047,-3.9076263385129045e-05,-2.5110595267567723e-05,3.1415969758780076,,,,
2025-04-30 00:03:43.725167,-0.04382346718749952,0.004589684582519626,0.1654274809160305,0.0,0.0,-3.9821955197035066e-05,1.3186840717060339e-05,3.141520669352185,0.0005249986523798486,0.0003538604846952838,-2.9878813468081714e-05,-1.8911314429695824e-05,3.1415086002260937,,,,
2025-04-30 00:03:43.740009,-0.07494808876953085,-0.01935233201904296,0.020389312977099172,0.0,0.0,-1.6005658901651804e-05,2.251051642080096e-05,3.1415259510477394,0.0016046518476018634,0.0006281939584094021,-2.2086765941733996e-05,-1.3659305301780726e-05,3.141551452949551,,,,
2025-04-30 00:03:43.754757,0.018425775976562697,-0.05047695360107418,-0.21625190839694663,0.0,0.0,3.2603379625102715e-06,4.2349845485855424e-05,3.1414702871919875,0.001306337865940419,0.0013452128626026416,1.5787943011468395e-06,-4.394640203759984e-06,3.1415567012166523,,,,
2025-04-30 00:03:43.767964,0.03997359091796904,0.02134909620361336,0.05855725190839689,0.0,0.0,3.2603379625102715e-06,4.2349845485855424e-05,3.1414837846826775,0.0010450702927523353,0.0010761702900821133,1.883123318207622e-05,1.3371209886779024e-05,3.141506854988813,,,,
2025-04-30 00:03:43.780885,-0.015093047265624548,0.04050270948486334,0.1654274809160305,0.0,0.0,3.2603379625102715e-06,4.2349845485855424e-05,3.1415210918567524,0.0008360562342018684,0.0008609362320656906,3.2334934770231386e-05,2.7276764906465296e-05,3.141520060809141,,,,
2025-04-30 00:03:43.794224,-0.019881450585937266,0.014166491223144617,-0.08648091603053443,0.0,0.0,3.2603379625102715e-06,4.2349845485855424e-05,3.1415009592958145,0.0006688449873614947,0.0006887489856525525,4.348652655337909e-05,3.876021424702694e-05,3.141558571951174,,,,
2025-04-30 00:03:43.807458,0.006454767675781792,0.016560692883300865,0.15016030534351138,0.0,0.0,3.2603379625102715e-06,4.2349845485855424e-05,3.1415356425917276,0.0005350759898891958,0.000550999188522042,5.233795427856889e-05,4.7875049496597845e-05,3.1415385970104284,,,,
2025-04-30 00:03:43.820525,0.016031574316406783,0.014166491223144617,-0.1399160305343512,0.0,0.0,3.2603379625102715e-06,4.2349845485855424e-05,3.1415037318560297,0.00042806079191135666,0.0004407993508176336,5.933005116278065e-05,5.507522252261231e-05,3.1415728441642234,,,,
2025-04-30 00:03:43.833127,-0.0629770804687495,0.014166491223144617,0.05855725190839689,0.0,0.0,1.834685800639637e-05,4.55881128671977e-05,3.1415166106741643,0.001197212157379794,0.00025697729274290384,6.472420597265682e-05,6.062990069761231e-05,3.1415420716629088,,,,
2025-04-30 00:03:43.846199,-0.041429265527343606,-0.01935233201904296,-0.10174809160305354,0.0,0.0,1.834685800639637e-05,4.55881128671977e-05,3.1414933956092788,0.0009577697259038353,0.00020558183419432308,8.037503619414088e-05,6.398929523324592e-05,3.1415554322122925,,,,
2025-04-30 00:03:43.859298,-0.04382346718749952,0.016560692883300865,0.22649618320610682,0.0,0.0,1.834685800639637e-05,4.55881128671977e-05,3.1415451752581443,0.0007662157807230683,0.00016446546735545848,9.292036218182103e-05,6.668210443086295e-05,3.1415321714209568,,,,
2025-04-30 00:03:43.872288,-0.03664086220703089,0.02134909620361336,0.050923664122137335,0.0,0.0,1.834685800639637e-05,4.55881128671977e-05,3.141556720581269,0.0006129726245784548,0.0001315723738843668,0.0001028735035366002,6.881851050047421e-05,3.1415835222352926,,,,
2025-04-30 00:03:43.885621,-0.04382346718749952,-0.0025929203979491167,-0.12464885496183209,0.0,0.0,1.834685800639637e-05,4.55881128671977e-05,3.141527712984539,0.0004903780996627638,0.00010525789910749344,0.00011104661021402512,7.057283851520162e-05,3.141595372910642,,,,
2025-04-30 00:03:43.898435,0.035185187597656764,0.014166491223144617,-0.3231221374045802,0.0,0.0,1.834685800639637e-05,4.55881128671977e-05,3.1414554502881873,0.00039230247973021104,8.420631928599475e-05,0.00011733010339627314,7.192156777508196e-05,3.141567496571283,,,,
2025-04-30 00:03:43.911652,0.025608380957031773,-0.036111743640136695,0.09672519083969461,0.0,0.0,1.834685800639637e-05,4.55881128671977e-05,3.1414777624222183,0.00031384198378416885,6.73650554287958e-05,0.0001225150608919254,7.303450029251968e-05,3.1414929602030885,,,,
2025-04-30 00:03:43.924515,-0.019881450585937266,-0.004987122058105364,-0.0330458015267176,0.0,0.0,1.834685800639637e-05,4.55881128671977e-05,3.141470343354224,0.0002510735870273351,5.3892044343036647e-05,0.0001265521351123699,7.390104378472955e-05,3.1415146758442423,,,,
2025-04-30 00:03:43.937642,0.035185187597656764,-0.012169727038574218,-0.010145038167938991,0.0,0.0,1.834685800639637e-05,4.55881128671977e-05,3.141468019015233,0.00020085886962186808,4.311363547442932e-05,0.0001298480003210286,7.460848942278613e-05,3.141507104690373,,,,
2025-04-30 00:03:43.950837,-0.019881450585937266,-0.00019871873779286897,-0.025412213740458045,0.0,0.0,1.834685800639637e-05,4.55881128671977e-05,3.1414621667680684,0.00016068709569749449,3.449090837954346e-05,0.0001324982928180634,7.517736519527695e-05,3.1415047683622017,,,,
2025-04-30 00:03:43.964229,-0.02466985390624954,-0.036111743640136695,-0.10174809160305354,0.0,0.0,1.834685800639637e-05,4.55881128671977e-05,3.141438384356482,0.0001285496765579956,2.7592726703634767e-05,0.00013465024814901319,7.563927468361812e-05,3.1414988285581527,,,,
2025-04-30 00:03:43.977626,-0.029458257226562257,0.004589684582519626,-0.11701526717557253,0.0,0.0,1.834685800639637e-05,4.55881128671977e-05,3.1414110246587805,0.00010283974124639648,2.2074181362907815e-05,0.00013637236408913512,7.600892068942755e-05,3.1414750385254915,,,,
2025-04-30 00:03:43.993730,0.013637372656250424,-0.02174653367919921,0.06619083969465644,0.0,0.0,1.834685800639637e-05,4.55881128671977e-05,3.1414296295805513,8.227179299711719e-05,1.7659345090326254e-05,0.00013802856708293614,7.63644187178732e-05,3.1414421478732226,,,,
2025-04-30 00:03:44.008743,-0.01269884560546819,-0.007381323718261612,-0.14754961832061075,0.0,0.0,1.834685800639637e-05,4.55881128671977e-05,3.1413909677556315,6.581743439769376e-05,1.4127476072261003e-05,0.00013926371182524272,7.66295381038292e-05,3.141459491589084,,,,
2025-04-30 00:03:44.025008,-0.019881450585937266,0.009378087902832122,-0.025412213740458045,0.0,0.0,1.834685800639637e-05,4.55881128671977e-05,3.1413837538297225,5.265394751815501e-05,1.1301980857808804e-05,0.00014033422683193053,7.685932030789681e-05,3.141417605745319,,,,
2025-04-30 00:03:44.040269,0.04715619589843767,-0.007381323718261612,0.2188625954198473,0.0,0.0,1.834685800639637e-05,4.55881128671977e-05,3.141442049571829,4.212315801452401e-05,9.041584686247044e-06,0.00014113778784721152,7.70318017958167e-05,3.141410837005984,,,,
2025-04-30 00:03:44.054469,0.018425775976562697,0.0021954829223633787,0.020389312977099172,0.0,0.0,1.834685800639637e-05,4.55881128671977e-05,3.1414471026982156,3.3698526411619205e-05,7.2332677489976356e-06,0.00014173592547505847,7.7160189890896e-05,3.141465078184056,,,,
2025-04-30 00:03:44.067515,0.023214179296875415,-0.012169727038574218,0.028022900763358727,0.0,0.0,1.834685800639637e-05,4.55881128671977e-05,3.141453483520375,2.6958821129295365e-05,5.7866141991981085e-06,0.00014217556536888683,7.725455701622243e-05,3.141469720836191,,,,
2025-04-30 00:03:44.080531,0.042367792578125396,0.004589684582519626,0.10435877862595416,0.0,0.0,1.834685800639637e-05,4.55881128671977e-05,3.141477190023675,2.1567056903436294e-05,4.629291359358487e-06,0.0001425264481385357,7.732987274339634e-05,3.1414760866158424,,,,
2025-04-30 00:03:44.094068,0.05912720419921902,-0.012169727038574218,0.005122137404580118,0.0,0.0,8.0142118438391e-06,4.78363775655265e-05,3.141478400242978,-0.000763266275628718,0.00016607794324162138,0.00014281841016393422,7.739254134428564e-05,3.1415007437068896,,,,
2025-04-30 00:03:44.107717,-0.06537128212890586,0.02134909620361336,0.06619083969465644,0.0,0.0,9.739138779771428e-06,4.6158979973618524e-05,3.141494168208892,0.00012637765419034217,-0.0001228953924910914,0.00013240059883047034,7.96593370020864e-05,3.1415019639012303,,,,
2025-04-30 00:03:44.121127,0.030396784277344047,0.014166491223144617,-0.048312977099236654,0.0,0.0,9.739138779771428e-06,4.6158979973618524e-05,3.141482860544624,0.00010110212335227374,-9.831631399287312e-05,0.00013409533472409893,7.801129855612399e-05,3.141517455883671,,,,
2025-04-30 00:03:44.133623,0.030396784277344047,-0.004987122058105364,0.2722977099236641,0.0,0.0,9.739138779771428e-06,4.6158979973618524e-05,3.141542247653639,8.0881698681819e-05,-7.865305119429851e-05,0.00013535870630830918,7.678273843053594e-05,3.1415069190046108,,,,
2025-04-30 00:03:44.146760,-0.007910442285155916,0.0021954829223633787,0.11199236641221372,0.0,0.0,9.739138779771428e-06,4.6158979973618524e-05,3.141567924036145,6.47053589454552e-05,-6.292244095543881e-05,0.00013642118030930485,7.574954027378519e-05,3.1415693484395764,,,,
2025-04-30 00:03:44.159477,-0.06537128212890586,0.016560692883300865,0.0814580152671755,0.0,0.0,2.090688466886374e-05,4.274983452965497e-05,3.141586004619583,0.0008781410407304594,-0.0002680675722652015,0.0001372440697687979,7.494932504784924e-05,3.1415942064884583,,,,
2025-04-30 00:03:44.173068,0.016031574316406783,-0.026534936999511705,0.3639007633587786,0.0,0.0,2.090688466886374e-05,4.274983452965497e-05,3.1416723234924926,0.0007025128325843675,-0.00021445405781216122,0.00014917872016271286,7.130606888677805e-05,3.141613528690485,,,,
2025-04-30 00:03:44.186187,-0.01269884560546819,-0.014563928698730466,-0.0025114503816794365,0.0,0.0,2.090688466886374e-05,4.274983452965497e-05,3.1416717484471155,0.000562010266067494,-0.00017156324624972898,0.00015839497358949233,6.84926498949467e-05,3.1416968508429983,,,,
2025-04-30 00:03:44.198935,-0.02227565224609318,0.01177228956298837,0.2035954198473282,0.0,0.0,2.090688466886374e-05,4.274983452965497e-05,3.1417170490282076,0.0004496082128539953,-0.0001372505969997832,0.0001655597501380913,6.630547930830843e-05,3.141696292037885,,,,
2025-04-30 00:03:44.212772,-0.041429265527343606,0.04050270948486334,-0.2544198473282443,0.0,0.0,3.4776714039246594e-05,3.3290272063270995e-05,3.1416556090637133,0.0010024172176226745,-0.0006836730311714542,0.00017178070193957465,6.440642736875291e-05,3.1417454583883013,,,,
2025-04-30 00:03:44.225719,-0.007910442285155916,0.0021954829223633787,0.03565648854961828,0.0,0.0,3.4776714039246594e-05,3.3290272063270995e-05,3.1416636667776854,0.0008019337740981397,-0.0005469384249371633,0.00018475979735980042,5.555436721674005e-05,3.141687964158164,,,,
2025-04-30 00:03:44.238536,-0.02466985390624954,-0.014563928698730466,0.22649618320610682,0.0,0.0,3.4776714039246594e-05,3.3290272063270995e-05,3.141714332399267,0.0006415470192785117,-0.0004375507399497307,0.0001950379159449563,4.854443925030102e-05,3.141695940266769,,,,
2025-04-30 00:03:44.250974,0.0016663643554690744,-0.016958130358886714,0.012755725190839673,0.0,0.0,3.4776714039246594e-05,3.3290272063270995e-05,3.1417171014238057,0.0005132376154228094,-0.0003500405919597846,0.00020301736257107627,4.31022617157929e-05,3.141745108266223,,,,
2025-04-30 00:03:44.264309,0.025608380957031773,0.0333201045043946,-0.08648091603053443,0.0,0.0,3.4776714039246594e-05,3.3290272063270995e-05,3.141696973181229,0.0004105900923382476,-0.0002800324735678277,0.00020986162553900706,3.8434307168367e-05,3.1417480771331436,,,,
2025-04-30 00:03:44.277741,0.011243170996094065,0.014166491223144617,-0.30785496183206107,0.0,0.0,3.4776714039246594e-05,3.3290272063270995e-05,3.14162480435724,0.00032847207387059807,-0.00022402597885426217,0.0002153764865128343,3.467303725781279e-05,3.141727803865595,,,,
2025-04-30 00:03:44.291017,0.004060566015625433,-0.007381323718261612,-0.07121374045801532,0.0,0.0,3.4776714039246594e-05,3.3290272063270995e-05,3.141608303006919,0.00026277765909647847,-0.00017922078308340976,0.0002197373929787186,3.1698792512439165e-05,3.141656469000432,,,,
2025-04-30 00:03:44.304429,0.03997359091796904,-0.024140735339355457,0.028022900763358727,0.0,0.0,3.4776714039246594e-05,3.3290272063270995e-05,3.1416148624734417,0.00021022212727718278,-0.00014337662646672782,0.0002232616413115755,2.9295169053098123e-05,3.1416397996288192,,,,
2025-04-30 00:03:44.318594,0.0016663643554690744,0.004589684582519626,0.005122137404580118,0.0,0.0,3.4776714039246594e-05,3.3290272063270995e-05,3.141616128791674,0.00016817770182174624,-0.00011470130117338227,0.0002262394218982454,2.72642499467002e-05,3.141646727578493,,,,
2025-04-30 00:03:44.332371,-0.05579447548828087,0.028531701184082103,0.005122137404580118,0.0,0.0,4.742622645999601e-05,2.6434496703037544e-05,3.1416173604530453,0.0009181445426989052,-0.0004976154434729623,0.00022855644915174717,2.5683980755529254e-05,3.1416479592398643,,,,
2025-04-30 00:03:44.344960,0.05673300253906266,0.006983886242675874,-0.11701526717557253,0.0,0.0,4.994219996089518e-05,1.9210638829639853e-05,3.1415916499624146,0.00019985526530652998,-0.0005738240213216057,0.00024011495042957243,1.9419510977883342e-05,3.141649084671348,,,,
2025-04-30 00:03:44.359014,0.04955039755859403,0.016560692883300865,-0.10938167938931298,0.0,0.0,4.310398488644033e-05,8.10253381450293e-06,3.141564820682162,-0.00048658160725500494,-0.0007904108795895982,0.0002429236330175521,1.1355227383560649e-05,3.1416203830147778,,,,
2025-04-30 00:03:44.371784,0.032790985937500405,0.04050270948486334,-0.010145038167938991,0.0,0.0,3.177288472153688e-05,-8.263374650328909e-06,3.1415625594130137,-0.0008872599411192976,-0.0012815008930771592,0.0002367095522564498,1.2609760452654691e-06,3.14159600248383,,,,
2025-04-30 00:03:44.384604,0.030396784277344047,-0.0025929203979491167,-0.20861832061068708,0.0,0.0,3.177288472153688e-05,-8.263374650328909e-06,3.1415158807916037,-0.0007098079528954381,-0.0010252007144617274,0.00022533487500512857,-1.5167872345707605e-05,3.141593732518304,,,,
2025-04-30 00:03:44.397824,0.004060566015625433,0.004589684582519626,0.17306106870229004,0.0,0.0,3.177288472153688e-05,-8.263374650328909e-06,3.141555809665759,-0.0005678463623163505,-0.000820160571569382,0.00021595167060310132,-2.872036611202615e-05,3.141545599828886,,,,
2025-04-30 00:03:44.410991,0.023214179296875415,-0.026534936999511705,-0.14754961832061075,0.0,0.0,3.177288472153688e-05,-8.263374650328909e-06,3.1415219000605807,-0.00045427708985308044,-0.0006561284572555057,0.0002084744856531383,-3.95199286156514e-05,3.141585372432694,,,,
2025-04-30 00:03:44.423823,-0.005516240624999558,-0.02174653367919921,0.18069465648854954,0.0,0.0,3.177288472153688e-05,-8.263374650328909e-06,3.141562366817136,-0.0003634216718824644,-0.0005249027658044045,0.00020264545211174433,-4.793900778612499e-05,3.141552328541964,,,,
2025-04-30 00:03:44.436755,-0.05818867714843723,0.01177228956298837,0.05855725190839689,0.0,0.0,3.670379999740233e-05,-1.6845252476576482e-05,3.141575583602515,0.00038129381215728993,-0.0006636124793816762,0.00019794566046464943,-5.472708297571466e-05,3.141593112602284,,,,
2025-04-30 00:03:44.449378,-0.017487248925780907,-0.028929138659667952,0.31046564885496175,0.0,0.0,3.670379999740233e-05,-1.6845252476576482e-05,3.1416439848737925,0.00030503504972583195,-0.000530889983505341,0.00020275885049057026,-6.310406908195356e-05,3.141606013837856,,,,
2025-04-30 00:03:44.463012,-0.07734229042968721,-0.004987122058105364,0.05855725190839689,0.0,0.0,5.486694884043753e-05,-2.3028938972568105e-05,3.1416579182861843,0.0013322683334779809,-0.00045357386948486657,0.00020691746994529328,-7.034182558143534e-05,3.1416798876242455,,,,
2025-04-30 00:03:44.475984,-0.11804371865234353,-0.00977552537841797,0.03565648854961828,0.0,0.0,9.127014758261715e-05,-2.7181563422914483e-05,3.141665991134243,0.0028062651785020665,-0.00032011926965365325,0.0002241998099369113,-7.622563864429443e-05,3.141693145345816,,,,
2025-04-30 00:03:44.489059,-0.04621766884765588,0.0021954829223633787,-0.010145038167938991,0.0,0.0,9.127014758261715e-05,-2.7181563422914483e-05,3.1416636759559986,0.002245012142801653,-0.00025609541572292263,0.00026089271415162974,-8.041131068579301e-05,3.1417012824395543,,,,
2025-04-30 00:03:44.501198,-0.02227565224609318,-0.024140735339355457,0.0814580152671755,0.0,0.0,9.127014758261715e-05,-2.7181563422914483e-05,3.1416809345560686,0.0017960097142413227,-0.00020487633257833813,0.00028814563579557565,-8.352013498344724e-05,3.141699132999062,,,,
2025-04-30 00:03:44.513700,0.06870401083984401,0.04289691114501959,0.15779389312977093,0.0,0.0,0.00010275188466509633,-3.626302964889561e-05,3.1417153639142352,0.0009184303570514118,-0.0007264313934871279,0.00031059841207651374,-8.608139198788592e-05,3.141716906482735,,,,
2025-04-30 00:03:44.529193,-0.0869190970703122,-0.0025929203979491167,0.21122900763358776,0.0,0.0,0.0001371440089324163,-4.667917214566792e-05,3.141772482502102,0.0022197929395376885,-0.0006722957672470464,0.000324828014490318,-9.733627901428351e-05,3.1417595756428587,,,,
2025-04-30 00:03:44.544645,-0.02466985390624954,0.014166491223144617,-0.05594656488549621,0.0,0.0,0.0001371440089324163,-4.667917214566792e-05,3.141757394226389,0.0017758343516301508,-0.0005378366137976372,0.0003591285802586498,-0.00010772469172138541,3.1418165421699764,,,,
2025-04-30 00:03:44.559253,-0.03664086220703089,0.023743297863769608,0.257030534351145,0.0,0.0,0.0001371440089324163,-4.667917214566792e-05,3.141822925719365,0.0014206674813041207,-0.00043026929103810973,0.00038506980214537506,-0.00011558135860279917,3.1418022782540835,,,,
2025-04-30 00:03:44.575882,0.023214179296875415,0.014166491223144617,0.043290076335877836,0.0,0.0,0.0001371440089324163,-4.667917214566792e-05,3.1418354898182788,0.0011365339850432966,-0.0003442154328304878,0.00040869405418302387,-0.00012273629831199408,3.1418768763451657,,,,
2025-04-30 00:03:44.590556,0.023214179296875415,0.0021954829223633787,0.1883282442748091,0.0,0.0,0.0001371440089324163,-4.667917214566792e-05,3.141883722322333,0.0009092271880346373,-0.0002753723462643902,0.0004253714951070627,-0.00012778729777326777,3.141887963310854,,,,
2025-04-30 00:03:44.605901,-0.04621766884765588,0.01177228956298837,0.06619083969465644,0.0,0.0,0.0001371440089324163,-4.667917214566792e-05,3.141901449440384,0.0007273817504277099,-0.00022029787701151218,0.0004393234573513581,-0.0001320128473705126,3.1419384010607594,,,,
2025-04-30 00:03:44.619008,-0.031852458886718615,-0.024140735339355457,0.0814580152671755,0.0,0.0,0.0001371440089324163,-4.667917214566792e-05,3.1419200832101546,0.0005819054003421679,-0.00017623830160920975,0.0004488569477627023,-0.00013490020012151823,3.141953542417491,,,,
2025-04-30 00:03:44.632247,-0.041429265527343606,-0.007381323718261612,0.005122137404580118,0.0,0.0,0.0001371440089324163,-4.667917214566792e-05,3.141921266765415,0.00046552432027373433,-0.00014099064128736782,0.00045656087789642657,-0.00013723344460023456,3.1419723646502526,,,,
2025-04-30 00:03:44.645248,-0.027064055566405898,-0.012169727038574218,-0.23151908396946574,0.0,0.0,0.0001371440089324163,-4.667917214566792e-05,3.1418687318883443,0.0003724194562189875,-0.00011279251302989426,0.00046261325433572307,-0.000139066492624422,3.1419735269339584,,,,
2025-04-30 00:03:44.658208,0.06152140585937538,-0.036111743640136695,-0.0025114503816794365,0.0,0.0,0.000131746164598957,-4.217066579245522e-05,3.141868163823981,-0.00041650937467493904,0.00034788612747770113,0.0004674397057283011,-0.0001405282518652319,3.1419211596875676,,,,
2025-04-30 00:03:44.671191,-0.0007278373046872844,0.016560692883300865,-0.24678625954198474,0.0,0.0,0.000131746164598957,-4.217066579245522e-05,3.1418122426602055,-0.00033320749973995127,0.0002783089019821609,0.00046203212964465913,-0.0001360116171454314,3.1419205905990437,,,,
2025-04-30 00:03:44.683939,-0.01269884560546819,-0.07920737352294915,0.073824427480916,0.0,0.0,0.00012960284929465068,-2.6079127485596714e-05,3.141828667891354,-0.00016813263922557762,0.0012623027509278423,0.0004577844788792173,-0.00013246380078038437,3.141865683009571,,,,
2025-04-30 00:03:44.697626,0.11179964072265669,0.04289691114501959,-0.06358015267175576,0.0,0.0,0.00010682321147167874,-1.7027360529457113e-05,3.141813479247059,-0.001664281315463472,0.0006613224816876126,0.0004554831848658837,-0.00011518619318970508,3.1418833189057143,,,,
2025-04-30 00:03:44.710699,0.05673300253906266,-0.03371754197998045,-0.0025114503816794365,0.0,0.0,7.599738410827165e-05,-2.9093913627023557e-06,3.1418129062082008,-0.0023579393980567866,0.0010799163742271287,0.00043372569247362774,-0.00010654058818864248,3.1418688117912787,,,,
2025-04-30 00:03:44.723477,0.035185187597656764,-0.04329434862060544,-0.0025114503816794365,0.0,0.0,4.083776389571456e-05,1.7540768097545655e-05,3.14181234609676,-0.0027515138386448434,0.001600384088826705,0.0004035952775160444,-9.274111204359501e-05,3.141868251679838,,,,
2025-04-30 00:03:44.736810,0.1022228340820317,0.05486791944580083,-0.0330458015267176,0.0,0.0,-1.2918905190041968e-05,2.8889369698625907e-05,3.1418046564094153,-0.0040319703183609905,0.0008511915933158796,0.00036691042935748026,-7.140382255974306e-05,3.141867667270705,,,,
2025-04-30 00:03:44.749303,-0.015093047265624548,-0.04090014696044919,-0.11701526717557253,0.0,0.0,-1.2918905190041968e-05,2.8889369698625907e-05,3.1417791416616967,-0.0032255762546887926,0.0006809532746527037,0.0003165384857210352,-6.076977231213295e-05,3.1418604617554804,,,,
2025-04-30 00:03:44.762252,0.008848969335937706,0.006983886242675874,-0.09411450381679398,0.0,0.0,-1.2918905190041968e-05,2.8889369698625907e-05,3.1417578719394226,-0.0025804610037510342,0.000544762619722163,0.0002747713005173869,-5.195227760987413e-05,3.1418340164985463,,,,
2025-04-30 00:03:44.775111,-0.07973649208984357,0.006983886242675874,0.2417633587786259,0.0,0.0,-3.251617360813721e-05,3.462552765043393e-05,3.14181213179415,-0.0015239992827494307,0.00044607750518031334,0.00024158887877654217,-4.494711730324999e-05,3.141812894028497,,,,
2025-04-30 00:03:44.788038,-0.05579447548828087,0.02134909620361336,-0.1704503816793893,0.0,0.0,-4.268505775617479e-05,3.678207708465362e-05,3.1417736755430945,-0.0007866502786412628,0.00016682756816144474,0.00022188841903128016,-3.918075505259495e-05,3.1418674395937787,,,,
2025-04-30 00:03:44.800830,-0.0510060721679686,0.02134909620361336,0.21122900763358776,0.0,0.0,-4.4366451300130935e-05,3.5451772506495306e-05,3.1418208345913956,-0.0001314423362531344,-0.0001039960824816457,0.00021182568933883543,-3.704671815050917e-05,3.1418293847931023,,,,
2025-04-30 00:03:44.814038,-0.05818867714843723,-0.0025929203979491167,0.3180992366412213,0.0,0.0,-3.6119351207475135e-05,3.455194140880268e-05,3.141894165970838,0.0006243834820762924,-6.8125725133151e-05,0.0002100895477934387,-3.842033889175329e-05,3.1418780793912773,,,,
2025-04-30 00:03:44.827305,-0.01269884560546819,-0.03371754197998045,-0.16281679389312986,0.0,0.0,-3.6119351207475135e-05,3.455194140880268e-05,3.14185646448924,0.0004995067856610339,-5.45005801065208e-05,0.00021837341744787944,-3.9324181871776785e-05,3.1419517377174837,,,,
2025-04-30 00:03:44.840439,-0.07734229042968721,-0.014563928698730466,0.06619083969465644,0.0,0.0,-1.6616449166945352e-05,3.6316078723837734e-05,3.141871637245289,0.0014849438168751652,0.00013432076891100944,0.00022493382182050224,-4.0039979643308823e-05,3.1419144156423173,,,,
2025-04-30 00:03:44.853058,0.011243170996094065,-0.0313233403198242,-0.05594656488549621,0.0,0.0,-1.6616449166945352e-05,3.6316078723837734e-05,3.1418593156151853,0.0011879550535001324,0.00010745661512880756,0.00024367200136012356,-3.834501539270777e-05,3.141928993463934,,,,
2025-04-30 00:03:44.865890,0.03997359091796904,0.028531701184082103,-0.24678625954198474,0.0,0.0,-1.6616449166945352e-05,3.6316078723837734e-05,3.141804046548352,0.0009503640428001059,8.596529210304605e-05,0.0002589154698782322,-3.696616564165672e-05,3.1419164639396424,,,,
2025-04-30 00:03:44.879289,0.06152140585937538,0.02134909620361336,-0.20861832061068708,0.0,0.0,-1.4961069302415258e-05,3.368674368989118e-05,3.141755258443205,0.00012354168764466882,-0.00019622836693692578,0.00027164974225558225,-3.581428552484037e-05,3.141858749766006,,,,
2025-04-30 00:03:44.892434,0.032790985937500405,-0.03850594530029294,-0.3231221374045802,0.0,0.0,-1.8922643770374905e-05,3.76786163722712e-05,3.14168112813586,-0.0003013811625933835,0.0003036861327915633,0.00027327366457139757,-3.839365472514953e-05,3.141810888791983,,,,
2025-04-30 00:03:44.905494,0.06152140585937538,-0.02174653367919921,-0.11701526717557253,0.0,0.0,-3.3063805624335084e-05,4.519986201082826e-05,3.1416544554860404,-0.001082776511167122,0.0005758952620902996,0.0002693375985817744,-3.442748561054643e-05,3.141737235807822,,,,
2025-04-30 00:03:44.918789,-0.027064055566405898,-0.048082751940917934,-0.048312977099236654,0.0,0.0,-4.248397525786485e-05,6.1033663218536205e-05,3.141643244320703,-0.0007085151378006749,0.0011909008309847265,0.0002549413805389845,-2.6770583491451665e-05,3.1417100820784083,,,,
2025-04-30 00:03:44.932398,0.018425775976562697,-0.004987122058105364,0.012755725190839673,0.0,0.0,-4.248397525786485e-05,6.1033663218536205e-05,3.1416462739099837,-0.00056681211024054,0.0009527206647877812,0.00024529975262640373,-1.0564546272853483e-05,3.1416986073503668,,,,
2025-04-30 00:03:44.946068,-0.0869190970703122,0.028531701184082103,-0.05594656488549621,0.0,0.0,-3.415955079159775e-05,6.857246257951559e-05,3.141632925845978,0.0006089571444914529,0.0005514862619463036,0.00023755144941501238,2.4591143955845287e-06,3.141701650687105,,,,
2025-04-30 00:03:44.959265,0.020819977636719056,0.004589684582519626,0.27993129770992364,0.0,0.0,-3.415955079159775e-05,6.857246257951559e-05,3.1416974059568488,0.0004871657155931623,0.0004411890095570429,0.000245588259034278,9.737442821477749e-06,3.141688763808302,,,,
2025-04-30 00:03:44.972331,0.032790985937500405,0.0333201045043946,0.09672519083969461,0.0,0.0,-3.415955079159775e-05,6.857246257951559e-05,3.1417194637160497,0.00038973257247452986,0.00035295120764563436,0.0002519535922842408,1.550204197565318e-05,3.1417526009235774,,,,
2025-04-30 00:03:44.986515,-0.02227565224609318,-0.024140735339355457,0.005122137404580118,0.0,0.0,-3.415955079159775e-05,6.857246257951559e-05,3.1417207316967883,0.0003117860579796239,0.0002823609661165075,0.0002574813725158382,2.0508132936832624e-05,3.1417765451619375,,,,
2025-04-30 00:03:45.000065,-0.003122038964843199,-0.024140735339355457,-0.10174809160305354,0.0,0.0,-3.415955079159775e-05,6.857246257951559e-05,3.1416966689989962,0.00024942884638369913,0.000225888772893206,0.0002617060870413366,2.4334136199185442e-05,3.1417777565108924,,,,
2025-04-30 00:03:45.013369,-0.0510060721679686,-0.03850594530029294,-0.07121374045801532,0.0,0.0,-2.206039993564076e-05,7.819774852316833e-05,3.1416801329776147,0.0009094211109233333,0.0007234754190639489,0.00026502454666798816,2.7339413190311186e-05,3.1417541303313454,,,,
2025-04-30 00:03:45.027230,0.023214179296875415,0.014166491223144617,-0.1399160305343512,0.0,0.0,-2.206039993564076e-05,7.819774852316833e-05,3.1416462846234894,0.0007275368887386667,0.0005787803352511592,0.00027762997896992666,3.736746324059863e-05,3.141736902370429,,,,
2025-04-30 00:03:45.041305,0.020819977636719056,-0.007381323718261612,-0.13228244274809164,0.0,0.0,-2.206039993564076e-05,7.819774852316833e-05,3.141613789224032,0.0005820295109909335,0.00046302426820092737,0.000287869916916675,4.551368209150141e-05,3.141702531767587,,,,
2025-04-30 00:03:45.055670,0.025608380957031773,0.006983886242675874,0.0814580152671755,0.0,0.0,-2.206039993564076e-05,7.819774852316833e-05,3.1416342123753287,0.00046562360879274676,0.00037041941456074194,0.00029623088505256257,5.216511656254649e-05,3.1416693659172616,,,,
2025-04-30 00:03:45.070260,0.044761994238281755,0.009378087902832122,0.1654274809160305,0.0,0.0,-2.206039993564076e-05,7.819774852316833e-05,3.141676336797986,0.0003724988870341974,0.0002963355316485936,0.00030302423410796326,5.756945674738528e-05,3.1416901083709634,,,,
2025-04-30 00:03:45.082635,-0.01269884560546819,-0.04090014696044919,-0.0406793893129771,0.0,0.0,-2.206039993564076e-05,7.819774852316833e-05,3.1416675502594757,0.00029799910962735794,0.00023706842531887487,0.000307634128795922,6.123678473345485e-05,3.1417258398545544,,,,
2025-04-30 00:03:45.095645,0.08306922080078172,-0.026534936999511705,-0.0330458015267176,0.0,0.0,-3.2039976308477045e-05,8.562068093885153e-05,3.1416600467604443,-0.0007670822493245502,0.0005705652706366426,0.00031151103362090277,6.432099435783473e-05,3.1417166030455133,,,,
2025-04-30 00:03:45.109120,0.05673300253906266,0.035714306164550846,-0.1551832061068703,0.0,0.0,-5.226358327758492e-05,8.680002391359232e-05,3.141623551740977,-0.0015008839196857006,8.752429323248701e-05,0.00030117501114784734,7.200905579432109e-05,3.1417088315398183,,,,
2025-04-30 00:03:45.122272,0.08306922080078172,-0.026534936999511705,-0.12464885496183209,0.0,0.0,-8.569212028060205e-05,9.24266360477525e-05,3.1415949378280366,-0.0025415916772269648,0.0004277946884087399,0.00028143448630430206,7.316022775526225e-05,3.1416732082783714,,,,
2025-04-30 00:03:45.134770,-0.0869190970703122,-0.007381323718261612,-0.0406793893129771,0.0,0.0,-0.00010351645205898595,9.879618257590079e-05,3.1415860642823636,-0.001426158716457196,0.0005096395429541306,0.00024966931684784044,7.850686580559779e-05,3.1416460181625347,,,,
2025-04-30 00:03:45.147753,0.035185187597656764,-0.04329434862060544,0.020389312977099172,0.0,0.0,-0.00012747372542995072,0.00011243193241804094,3.1415906843660513,-0.0018453022280995155,0.0010502897878188525,0.0002311537188497077,8.512343715379387e-05,3.1416368004815274,,,,
2025-04-30 00:03:45.160607,0.032790985937500405,-0.00977552537841797,0.3333664122137404,0.0,0.0,-0.00012747372542995072,0.00011243193241804094,3.141665473905412,-0.0014762417824796125,0.000840231830255082,0.0002074340208197706,9.862396635255143e-05,3.1416413747495686,,,,
2025-04-30 00:03:45.173311,-0.03664086220703089,-0.00977552537841797,-0.13228244274809164,0.0,0.0,-0.00012747372542995072,0.00011243193241804094,3.1416361452578787,-0.0011809934259836901,0.0006721854642040657,0.00018868105527118466,0.00010929758279709646,3.141715286190877,,,,
2025-04-30 00:03:45.187041,0.018425775976562697,-0.024140735339355457,-0.21625190839694663,0.0,0.0,-0.00012747372542995072,0.00011243193241804094,3.141584322026401,-0.0009447947407869522,0.0005377483713632525,0.00017246539436477427,0.00011852704277031542,3.141683585644501,,,,
2025-04-30 00:03:45.201112,0.05912720419921902,-0.00019871873779286897,-0.26205343511450385,0.0,0.0,-0.0001519740437504609,0.00011988651501372547,3.1415199667071168,-0.0017412234294015125,0.0005297928664522092,0.00015917142444341818,0.00012609356528102162,3.1416304783055162,,,,
2025-04-30 00:03:45.214964,0.020819977636719056,-0.024140735339355457,0.2035954198473282,0.0,0.0,-0.0001519740437504609,0.00011988651501372547,3.141569188125472,-0.00139297874352121,0.00042383429316176737,0.0001350522046575375,0.00013343219303618836,3.1415671240229353,,,,
2025-04-30 00:03:45.229089,0.008848969335937706,-0.02174653367919921,-0.18571755725190842,0.0,0.0,-0.0001519740437504609,0.00011988651501372547,3.1415234032402766,-0.001114382994816968,0.00033906743452941394,0.0001153762284622226,0.00013941889850588462,3.1416173163314167,,,,
2025-04-30 00:03:45.246626,-0.027064055566405898,-0.016958130358886714,-0.048312977099236654,0.0,0.0,-0.0001519740437504609,0.00011988651501372547,3.1415086155833247,-0.0008915063958535746,0.0002712539476235312,9.583316349440984e-05,0.00014536516377760682,3.141560471821071,,,,
2025-04-30 00:03:45.261537,0.032790985937500405,0.023743297863769608,0.14252671755725188,0.0,0.0,-0.0001519740437504609,0.00011988651501372547,3.1415457068464425,-0.0007132051166828597,0.00021700315809882495,8.254018091692319e-05,0.0001494097494548433,3.1415478988145757,,,,
2025-04-30 00:03:45.273673,-0.015093047265624548,0.028531701184082103,0.028022900763358727,0.0,0.0,-0.0001519740437504609,0.00011988651501372547,3.1415516428068235,-0.0005705640933462878,0.00017360252647905997,7.388422596832123e-05,0.00015204345119964309,3.141578089584467,,,,
2025-04-30 00:03:45.285758,0.0016663643554690744,0.0021954829223633787,-0.10174809160305354,0.0,0.0,-0.0001519740437504609,0.00011988651501372547,3.1415301818593866,-0.0004564512746770303,0.00013888202118324798,6.698898118789123e-05,0.00015414143095079382,3.1415840002407833,,,,
2025-04-30 00:03:45.297882,0.013637372656250424,-0.01935233201904296,-0.07884732824427487,0.0,0.0,-0.0001519740437504609,0.00011988651501372547,3.141513497386786,-0.00036516101974162427,0.00011110561694659838,6.145493782339587e-05,0.00015582524512859557,3.1415624698568845,,,,
2025-04-30 00:03:45.310435,-0.007910442285155916,-0.05047695360107418,0.1654274809160305,0.0,0.0,-0.0001552441976939416,0.00012904724627361416,3.1415497389562876,-0.0002605230923445686,0.0007298072436992138,5.6871341267839324e-05,0.00015721987187024438,3.141545196119107,,,,
2025-04-30 00:03:45.324628,0.03997359091796904,-0.024140735339355457,-0.2391526717557252,0.0,0.0,-0.0001552441976939416,0.00012904724627361416,3.1414904961151624,-0.0002084184738756549,0.0005838457949593711,5.317365979068256e-05,0.0001675782424186495,3.1415861757740604,,,,
2025-04-30 00:03:45.337455,0.032790985937500405,-0.06005376024169917,-0.010145038167938991,0.0,0.0,-0.00016315028070712742,0.00014606998688036326,3.1414882249253893,-0.0006163664610880547,0.0013271105765399675,5.0500292792365264e-05,0.0001750671854635061,3.141532636192119,,,,
2025-04-30 00:03:45.351007,0.030396784277344047,-0.026534936999511705,0.03565648854961828,0.0,0.0,-0.00016315028070712742,0.00014606998688036326,3.1414966586175446,-0.0004930931688704438,0.0010616884612319741,4.2147325049753825e-05,0.0001930521222446999,3.1415302366252438,,,,
2025-04-30 00:03:45.364804,-0.003122038964843199,0.03092590284423835,0.4020687022900763,0.0,0.0,-0.00016315028070712742,0.00014606998688036326,3.141593481658406,-0.00039447453509635505,0.0008493507689855793,3.5343861405797295e-05,0.00020770079171166168,3.141538823141996,,,,
2025-04-30 00:03:45.377860,-0.010304643945312275,-0.007381323718261612,0.03565648854961828,0.0,0.0,-0.00016315028070712742,0.00014606998688036326,3.141601606733899,-0.00031557962807708407,0.0006794806151884635,3.0193586171476775e-05,0.00021878994916434496,3.141630442891795,,,,
2025-04-30 00:03:45.391010,-0.029458257226562257,-0.04090014696044919,-0.05594656488549621,0.0,0.0,-0.00016222523789689413,0.0001617566785169448,3.1415887668815534,7.034813625972748e-05,0.0011929496759574356,2.6043871885784698e-05,0.0002277247794411893,3.141638626129659,,,,
2025-04-30 00:03:45.404380,-0.010304643945312275,-0.02174653367919921,-0.2391526717557252,0.0,0.0,-0.00016222523789689413,0.0001617566785169448,3.1415329603262356,5.627850900778199e-05,0.0009543597407659486,2.698442907600577e-05,0.00024367456084195115,3.14162557093339,,,,
2025-04-30 00:03:45.417682,0.018425775976562697,0.009378087902832122,0.13489312977099233,0.0,0.0,-0.00016222523789689413,0.0001617566785169448,3.1415642772593126,4.502280720622559e-05,0.0007634877926127589,2.773303732532727e-05,0.0002563693103538639,3.1415700489936933,,,,
2025-04-30 00:03:45.431460,0.035185187597656764,0.009378087902832122,-0.0330458015267176,0.0,0.0,-0.00016222523789689413,0.0001617566785169448,3.141556330428581,3.6018245764980476e-05,0.0006107902340902072,2.8353381737953295e-05,0.0002668889872830717,3.141602487997125,,,,
2025-04-30 00:03:45.444564,0.016031574316406783,-0.00019871873779286897,0.34099999999999997,0.0,0.0,-0.00016222523789689413,0.0001617566785169448,3.141634321030364,2.8814596611984383e-05,0.0004886321872721658,2.8825372047187108e-05,0.0002748929048904507,3.1415949300442,,,,
2025-04-30 00:03:45.457976,0.025608380957031773,0.01177228956298837,-0.07884732824427487,0.0,0.0,-0.00016222523789689413,0.0001617566785169448,3.141615864168851,2.305167728958751e-05,0.00039090574981773263,2.9211833380893624e-05,0.0002814464391747583,3.141674752530467,,,,
2025-04-30 00:03:45.470934,-0.02466985390624954,0.02134909620361336,0.1654274809160305,0.0,0.0,-0.00016222523789689413,0.0001617566785169448,3.141653275975933,1.8441341831670007e-05,0.00031272459985418614,2.9510527170693912e-05,0.00028651162893951883,3.1416569210249827,,,,
2025-04-30 00:03:45.484475,-0.010304643945312275,-0.04329434862060544,-0.10174809160305354,0.0,0.0,-0.00016222523789689413,0.0001617566785169448,3.141629228520291,1.4753073465336007e-05,0.0002501796798833489,2.9760249864140395e-05,0.0002907463766111035,3.141696018662556,,,,
2025-04-30 00:03:45.497810,-0.015093047265624548,-0.004987122058105364,-0.13228244274809164,0.0,0.0,-0.00016222523789689413,0.0001617566785169448,3.1415984428255923,1.1802458772268806e-05,0.00020014374390667913,2.9956971392377098e-05,0.0002940823410849509,3.1416723391354835,,,,
2025-04-30 00:03:45.511801,-0.07494808876953085,0.03092590284423835,-0.14754961832061075,0.0,0.0,-0.00014768582321241373,0.00015856776162068547,3.1415624125270045,0.0010391889502713715,-0.00022792438855627842,3.012210097958228e-05,0.0002968825757183193,3.1416400369447737,,,,
2025-04-30 00:03:45.525397,-0.02227565224609318,-0.014563928698730466,-0.017778625954198546,0.0,0.0,-0.00014768582321241373,0.00015856776162068547,3.141558193582655,0.0008313511602170972,-0.00018233951084502275,4.42514696319441e-05,0.00029378359385372687,3.1416050227861954,,,,
2025-04-30 00:03:45.538545,-0.005516240624999558,0.016560692883300865,-0.08648091603053443,0.0,0.0,-0.00014768582321241373,0.00015856776162068547,3.1415383492723437,0.0006650809281736779,-0.0001458716086760182,5.518153773835975e-05,0.00029138631173349,3.1416009432205922,,,,
2025-04-30 00:03:45.551744,-0.031852458886718615,0.004589684582519626,-0.1399160305343512,0.0,0.0,-0.00014768582321241373,0.00015856776162068547,3.14150611715282,0.0005320647425389423,-0.00011669728694081456,6.396000140351683e-05,0.00028946093910243775,3.141581020819911,,,,
2025-04-30 00:03:45.565355,-0.01269884560546819,0.01177228956298837,-0.20861832061068708,0.0,0.0,-0.00014768582321241373,0.00015856776162068547,3.1414565581746037,0.00042565179403115385,-9.335782955265165e-05,7.120197625484037e-05,0.00028787256319688485,3.141547782629281,,,,
2025-04-30 00:03:45.580369,-0.010304643945312275,0.038108507824707094,0.24939694656488545,0.0,0.0,-0.00014768582321241373,0.00015856776162068547,3.1415219139042208,0.0003405214352249231,-7.468626364212133e-05,7.75929882990093e-05,0.0002864708282072637,3.1414931131445787,,,,
2025-04-30 00:03:45.595182,0.006454767675781792,0.016560692883300865,-0.10174809160305354,0.0,0.0,-0.00014768582321241373,0.00015856776162068547,3.141495608916782,0.0002724171481799385,-5.974901091369706e-05,8.263703285302572e-05,0.0002853645223997158,3.14155758986786,,,,
2025-04-30 00:03:45.609636,0.013637372656250424,0.01177228956298837,0.15016030534351138,0.0,0.0,-0.00014768582321241373,0.00015856776162068547,3.1415334882971275,0.0002179337185439508,-4.7799208730957656e-05,8.657438988698517e-05,0.00028450094538202465,3.141531922933763,,,,
2025-04-30 00:03:45.624200,-0.06058287880859359,0.014166491223144617,-0.10938167938931298,0.0,0.0,-0.00013198133800712,0.00015493945089244918,3.1415056836135737,0.0010782704477885073,-0.0002491199286387558,8.974848861669404e-05,0.00028380477312961834,3.141570093492084,,,,
2025-04-30 00:03:45.636952,-0.007910442285155916,-0.026534936999511705,-0.26205343511450385,0.0,0.0,-0.00013198133800712,0.00015493945089244918,3.141447358504494,0.0008626163582308059,-0.00019929594291100464,0.00010349891096110778,0.0002806279224237322,3.1415457484634493,,,,
2025-04-30 00:03:45.650214,-0.02227565224609318,-0.00977552537841797,-0.06358015267175576,0.0,0.0,-0.00013198133800712,0.00015493945089244918,3.141432642380513,0.0006900930865846447,-0.00015943675432880374,0.0001149385466417528,0.0002779849479916122,3.141485094144786,,,,
2025-04-30 00:03:45.663585,0.013637372656250424,0.05247371778564458,-0.10938167938931298,0.0,0.0,-0.00012532965713065242,0.00014365653767985537,3.141407115762065,0.000497462184742105,-0.000843820195410998,0.00012416593945231843,0.0002758530826110813,3.141470256319044,,,,
2025-04-30 00:03:45.676273,0.1836256905273439,0.004589684582519626,-0.06358015267175576,0.0,0.0,-0.00014811374085454789,0.00013244603701699587,3.141393036191206,-0.001795730189591101,-0.0008835569042267374,0.00013047770061350766,0.0002651467581912998,3.1414460341830326,,,,
2025-04-30 00:03:45.688962,-0.08452489541015584,-0.01935233201904296,0.09672519083969461,0.0,0.0,-0.00015710631356207632,0.00012451009815316673,3.1414144572083478,-0.0007086973878258089,-0.0006254249285115651,0.00010769190434785119,0.0002539354149029136,3.141431953553897,,,,
2025-04-30 00:03:45.701312,0.035185187597656764,-0.014563928698730466,0.020389312977099172,0.0,0.0,-0.00015710631356207632,0.00012451009815316673,3.1414188519469315,-0.0005669579102606471,-0.0005003399428092521,9.893977114658555e-05,0.00024621166372821527,3.1414528018251793,,,,
2025-04-30 00:03:45.714085,0.006454767675781792,-0.04329434862060544,0.0814580152671755,0.0,0.0,-0.00015710631356207632,0.00012451009815316673,3.14143701218649,-0.00045356632820851774,-0.00040027195424740175,9.169772645928476e-05,0.0002398205645670795,3.14145734741602,,,,
2025-04-30 00:03:45.726591,-0.031852458886718615,-0.007381323718261612,-0.13228244274809164,0.0,0.0,-0.00015710631356207632,0.00012451009815316673,3.1414081393134383,-0.0003628530625668142,-0.00032021756339792144,8.60255304016024e-05,0.0002348148556780388,3.141475127001012,,,,
2025-04-30 00:03:45.739242,-0.01269884560546819,0.01177228956298837,0.05855725190839689,0.0,0.0,-0.00015710631356207632,0.00012451009815316673,3.1414210693018116,-0.00029028245005345137,-0.00025617405071833715,8.143491538846901e-05,0.00023076364127294386,3.141445917801622,,,,
2025-04-30 00:03:45.751552,0.011243170996094065,0.016560692883300865,-0.025412213740458045,0.0,0.0,-0.00015710631356207632,0.00012451009815316673,3.141415609474451,-0.0002322259600427611,-0.00020493924057466973,7.786153027829106e-05,0.00022761013151621445,3.1414584988576992,,,,
2025-04-30 00:03:45.764780,0.0016663643554690744,0.06444472608642582,0.22649618320610682,0.0,0.0,-0.00016040380733641532,0.00011080296921997079,3.1414678999547787,-0.00024928698703493267,-0.0010362442225810542,7.478971467095015e-05,0.0002248992564803746,3.1414526320177205,,,,
2025-04-30 00:03:45.777583,-0.003122038964843199,0.0021954829223633787,0.2722977099236641,0.0,0.0,-0.00016040380733641532,0.00011080296921997079,3.1415287476068663,-0.00019942958962794615,-0.0008289953780648434,7.15980145722537e-05,0.00021163189412494563,3.141503244859668,,,,
2025-04-30 00:03:45.790237,-0.02227565224609318,0.01177228956298837,0.11962595419847322,0.0,0.0,-0.00016040380733641532,0.00011080296921997079,3.1415551661176138,-0.00015954367170235693,-0.0006631963024518748,6.907456200879279e-05,0.0002011423247697779,3.141563379802995,,,,
2025-04-30 00:03:45.802361,0.030396784277344047,-0.004987122058105364,-0.21625190839694663,0.0,0.0,-0.00016040380733641532,0.00011080296921997079,3.141509405277358,-0.00012763493736188554,-0.0005305570419614998,6.7140206669485e-05,0.0001931015338379367,3.1415886937261,,,,
2025-04-30 00:03:45.815098,0.018425775976562697,-0.00977552537841797,0.05855725190839689,0.0,0.0,-0.00016040380733641532,0.00011080296921997079,3.1415224224988054,-0.00010210794988950844,-0.00042444563356919984,6.551454633972668e-05,0.0001863439363210025,3.141540621132386,,,,
2025-04-30 00:03:45.828497,0.030396784277344047,0.016560692883300865,0.10435877862595416,0.0,0.0,-0.00016040380733641532,0.00011080296921997079,3.1415468277210112,-8.168635991160676e-05,-0.0003395565068553599,6.414638924291387e-05,0.00018065673658379007,3.141554315262994,,,,
2025-04-30 00:03:45.841131,0.042367792578125396,-0.03371754197998045,-0.048312977099236654,0.0,0.0,-0.00016804207638879698,0.00011187337219053255,3.1415361746411556,-0.0006045899686635328,8.472533423361111e-05,6.311438006768097e-05,0.00017636684741546428,3.141577326521441,,,,
2025-04-30 00:03:45.853299,-0.027064055566405898,-0.00977552537841797,0.19596183206106865,0.0,0.0,-0.00016804207638879698,0.00011187337219053255,3.1415777935903426,-0.0004836719749308263,6.77802673868889e-05,5.5757338849252824e-05,0.00017739784000301857,3.14156706566953,,,,
2025-04-30 00:03:45.866502,-0.02227565224609318,0.0333201045043946,-0.07884732824427487,0.0,0.0,-0.00016804207638879698,0.00011187337219053255,3.141559625127544,-0.00038693757994466105,5.422421390951112e-05,4.93716940290885e-05,0.00017829270415844196,3.1416122203416674,,,,
2025-04-30 00:03:45.879634,-0.015093047265624548,0.03092590284423835,-0.27732061068702296,0.0,0.0,-0.00016804207638879698,0.00011187337219053255,3.1414960648686385,-0.00030955006395572886,4.3379371127608896e-05,4.4290485092928416e-05,0.00017900476877701085,3.1415941489960693,,,,
2025-04-30 00:03:45.892322,0.016031574316406783,-0.02174653367919921,0.2188625954198473,0.0,0.0,-0.00016804207638879698,0.00011187337219053255,3.141544532937677,-0.0002476400511645831,3.470349690208712e-05,4.036279056872132e-05,0.00017955518351853655,3.1415327351465314,,,,
2025-04-30 00:03:45.904817,-0.015093047265624548,0.0021954829223633787,-0.20861832061068708,0.0,0.0,-0.00016804207638879698,0.00011187337219053255,3.141499039273181,-0.00019811204093166647,2.77627975216697e-05,3.726863608651613e-05,0.00017998878858356063,3.141580462793162,,,,
2025-04-30 00:03:45.918214,-0.02227565224609318,0.006983886242675874,0.15016030534351138,0.0,0.0,-0.00016804207638879698,0.00011187337219053255,3.141534149963376,-0.00015848963274533317,2.221023801733576e-05,3.4614533357674525e-05,0.00018036072618167945,3.141531683369018,,,,
2025-04-30 00:03:45.934401,-0.0007278373046872844,-0.03850594530029294,-0.0025114503816794365,0.0,0.0,-0.00016804207638879698,0.00011187337219053255,3.1415334404185167,-0.00012679170619626654,1.776819041386861e-05,3.2048993612523865e-05,0.00018072025284216638,3.1415741072502583,,,,
2025-04-30 00:03:45.948225,0.035185187597656764,-0.01935233201904296,-0.14754961832061075,0.0,0.0,-0.00016804207638879698,0.00011187337219053255,3.1414978417491897,-0.00010143336495701323,1.4214552331094887e-05,3.0296287293368283e-05,0.00018096587158610963,3.1415735013232986,,,,
2025-04-30 00:03:45.960202,0.028002582617187688,0.038108507824707094,-0.20098473282442753,0.0,0.0,-0.00016804207638879698,0.00011187337219053255,3.1414558284353347,-8.11466919656106e-05,1.137164186487591e-05,2.9081424210335782e-05,0.00018113611867271863,3.141542657943622,,,,
2025-04-30 00:03:45.972192,0.006454767675781792,0.05486791944580083,0.2722977099236641,0.0,0.0,-0.00016990568927453194,0.00010427630319624525,3.1415128134098937,-0.00015542350634473924,-0.0006335881824348844,2.8108430971806937e-05,0.0001812724708810155,3.1415005969586436,,,,
2025-04-30 00:03:45.984790,-0.010304643945312275,0.023743297863769608,0.10435877862595416,0.0,0.0,-0.00016990568927453194,0.00010427630319624525,3.1415357599641034,-0.0001243388050757914,-0.0005068705459479075,2.615036272049221e-05,0.00017329035200073364,3.1415604701599613,,,,
2025-04-30 00:03:45.997602,-0.041429265527343606,-0.00019871873779286897,0.257030534351145,0.0,0.0,-0.00016990568927453194,0.00010427630319624525,3.1415932313080495,-9.947104406063312e-05,-0.00040549643675832605,2.4557435419099043e-05,0.00016679674020817764,3.1415838045053355,,,,
2025-04-30 00:03:46.010107,-0.03903506386718725,-0.05047695360107418,-0.20861832061068708,0.0,0.0,-0.0001651420706336952,0.00010704243012801638,3.1415476985790396,0.000380928194309662,0.00022119649300176149,2.3313520878802423e-05,0.0001617258884996675,3.1416399036131875,,,,
2025-04-30 00:03:46.022735,-0.0007278373046872844,-0.0313233403198242,-0.06358015267175576,0.0,0.0,-0.0001651420706336952,0.00010704243012801638,3.1415336851504416,0.00030474255544772963,0.0001769571944014092,2.8124002824793907e-05,0.0001645192279058775,3.141593922944421,,,,
2025-04-30 00:03:46.035496,-0.007910442285155916,-0.00019871873779286897,0.073824427480916,0.0,0.0,-0.0001651420706336952,0.00010704243012801638,3.1415501266630526,0.00024379404435818372,0.00014156575552112737,3.201263996461924e-05,0.00016677727262594496,3.1415797629445725,,,,
2025-04-30 00:03:46.048405,-0.019881450585937266,-0.026534936999511705,-0.24678625954198474,0.0,0.0,-0.0001651420706336952,0.00010704243012801638,3.141494521791967,0.000195035235486547,0.0001132526044169019,3.515993594503996e-05,0.0001686048370953307,3.1415963967627625,,,,
2025-04-30 00:03:46.061892,-0.07015968544921858,0.047685314465332085,-0.2238854961832062,0.0,0.0,-0.0001500590547044145,0.00010003715069456755,3.141441821351248,0.001118348784546842,-0.0005194150676854795,3.779034928680131e-05,0.0001701322593629239,3.1415383057079014,,,,
2025-04-30 00:03:46.074097,-0.029458257226562257,-0.004987122058105364,-0.13228244274809164,0.0,0.0,-0.0001500590547044145,0.00010003715069456755,3.1414136436994164,0.0008946790276374736,-0.0004155320541483836,5.143940149688261e-05,0.0001637929817819904,3.141490615572835,,,,
2025-04-30 00:03:46.089378,-0.015093047265624548,-0.03371754197998045,0.08909160305343505,0.0,0.0,-0.0001500590547044145,0.00010003715069456755,3.1414374054475536,0.0007157432221099789,-0.0003324256433187069,6.511138432798494e-05,0.0001574430541156504,3.1414553343344265,,,,
2025-04-30 00:03:46.104691,-0.03903506386718725,-0.012169727038574218,-0.07121374045801532,0.0,0.0,-0.0001500590547044145,0.00010003715069456755,3.141418373109837,0.0005725945776879831,-0.00026594051465496555,7.607132528201105e-05,0.00015235272938768902,3.1414791446478025,,,,
2025-04-30 00:03:46.120502,-0.015093047265624548,-0.024140735339355457,-0.010145038167938991,0.0,0.0,-0.0001500590547044145,0.00010003715069456755,3.1414155735518263,0.0004580756621503865,-0.00021275241172397246,8.512459896316442e-05,0.0001481479528216941,3.141459492972344,,,,
2025-04-30 00:03:46.134553,0.006454767675781792,-0.00019871873779286897,-0.07884732824427487,0.0,0.0,-0.0001500590547044145,0.00010003715069456755,3.141396236401633,0.0003664605297203092,-0.00017020192937917798,9.156132965797274e-05,0.0001451584249072235,3.1414570049219415,,,,
2025-04-30 00:03:46.148673,0.004060566015625433,0.0021954829223633787,-0.12464885496183209,0.0,0.0,-0.0001500590547044145,0.00010003715069456755,3.1413655197296912,0.0002931684237762474,-0.0001361615435033424,9.673544020647774e-05,0.0001427553186331349,3.1414375749198293,,,,
2025-04-30 00:03:46.160244,-0.05340027382812451,0.028531701184082103,-0.048312977099236654,0.0,0.0,-0.00013972825979053274,9.474750572245097e-05,3.141355762481574,0.0008927863854302935,-0.0004571306520197895,0.00010012781145080252,0.00014117973795219445,3.1414124009421864,,,,
2025-04-30 00:03:46.171664,-0.06537128212890586,0.006983886242675874,0.19596183206106865,0.0,0.0,-0.00012138116650302622,8.873708130540212e-05,3.1413948217826198,0.0016065404334898075,-0.0005262953481028322,0.00011032365511452148,0.0001359591916513665,3.1414027711530736,,,,
2025-04-30 00:03:46.183517,-0.04861187050781224,0.016560692883300865,0.3486335877862595,0.0,0.0,-9.602632229478298e-05,8.034249027736906e-05,3.1414669462912777,0.0021390683981416738,-0.0007082119785832158,0.00012936632922478609,0.00012972089811654394,3.141443311282735,,,,
2025-04-30 00:03:46.195499,0.004060566015625433,-0.0313233403198242,0.2035954198473282,0.0,0.0,-9.602632229478298e-05,8.034249027736906e-05,3.1415095222801837,0.001711254718513339,-0.0005665695828665727,0.00015499606000934766,0.0001212352964568408,3.141516217735036,,,,
2025-04-30 00:03:46.208974,0.004060566015625433,0.004589684582519626,-0.36129007633587795,0.0,0.0,-9.602632229478298e-05,8.034249027736906e-05,3.1414245548278292,0.0013690037748106713,-0.00045325566629325815,0.00017805470881644852,0.00011360093969231681,3.1415640988844737,,,,
2025-04-30 00:03:46.222110,0.04955039755859403,0.05486791944580083,-0.06358015267175576,0.0,0.0,-8.678356379600379e-05,6.523006365323395e-05,3.1414099776025965,0.0007035997484929311,-0.0011504249054288063,0.00019603847203068342,0.00010764679790826254,3.141481264751561,,,,
2025-04-30 00:03:46.235176,0.0016663643554690744,0.016560692883300865,-0.05594656488549621,0.0,0.0,-8.678356379600379e-05,6.523006365323395e-05,3.141397219697344,0.0005628797987943449,-0.0009203399243430451,0.00020523140840753192,9.26158332375081e-05,3.141466766103335,,,,
2025-04-30 00:03:46.248104,0.025608380957031773,0.02134909620361336,-0.16281679389312986,0.0,0.0,-8.678356379600379e-05,6.523006365323395e-05,3.141360482314589,0.0004503038390354759,-0.0007362719394744361,0.00021250832353095277,8.071767038198374e-05,3.1414541425261295,,,,
2025-04-30 00:03:46.261342,0.05673300253906266,0.023743297863769608,-0.1399160305343512,0.0,0.0,-9.068600569127046e-05,5.1603202843383915e-05,3.141328155293682,-0.00029479193954118154,-0.0010293782292737782,0.0002184694246715963,7.097093691502985e-05,3.141416524378444,,,,
2025-04-30 00:03:46.274508,-0.07015968544921858,-0.05047695360107418,0.13489312977099233,0.0,0.0,-8.256810141075372e-05,4.689373470527335e-05,3.1413591539606807,0.0006165497219626701,-0.00035768114168491954,0.00021458799765506107,5.741745755071948e-05,3.1413843714404432,,,,
2025-04-30 00:03:46.287913,0.030396784277344047,-0.024140735339355457,-0.4376259541984733,0.0,0.0,-8.256810141075372e-05,4.689373470527335e-05,3.1412567730237115,0.0004932397775701361,-0.00028614491334793564,0.00022285231085659898,5.262305269435527e-05,3.141415929178014,,,,
2025-04-30 00:03:46.301140,-0.010304643945312275,-0.0025929203979491167,-0.4376259541984733,0.0,0.0,-8.256810141075372e-05,4.689373470527335e-05,3.1411557414806395,0.0003945918220561089,-0.00022891593067834851,0.00022937662165037814,4.883808150663414e-05,3.141314897634942,,,,
2025-04-30 00:03:46.313897,-0.04621766884765588,0.06444472608642582,-0.6437328244274809,0.0,0.0,-7.027012349931137e-05,3.3749860547628604e-05,3.14101241527526,0.0009640312851993111,-0.0010303405964734046,0.00023441036027088208,4.591784115522525e-05,3.141217460833507,,,,
2025-04-30 00:03:46.326782,-0.04861187050781224,0.07402153272705081,-0.6131984732824427,0.0,0.0,-5.019669086479742e-05,8.69067300313593e-06,3.140874517272171,0.001557909050065177,-0.0019448559583038654,0.0002468317638567992,3.2642051690462515e-05,3.1410726961694073,,,,
2025-04-30 00:03:46.339057,0.05912720419921902,0.01177228956298837,-0.3994580152671756,0.0,0.0,-4.0187993807070166e-05,-1.6437797618010623e-05,3.1407889328692313,0.0008153262527970337,-0.002047009882694171,0.0002659561814406834,8.767591569987362e-06,3.1409413175934024,,,,
2025-04-30 00:03:46.352465,-0.02227565224609318,-0.07202476854248041,-0.37655725190839695,0.0,0.0,-2.5538995864384407e-05,-3.064942896448579e-05,3.140700813653398,0.0010925609592794538,-0.0010599410033082523,0.0002768880315112903,-1.8678605647255857e-05,3.1408478393058767,,,,
2025-04-30 00:03:46.365267,-0.05818867714843723,-0.057659558581542925,-0.8803740458015268,0.0,0.0,-2.477311540246136e-06,-3.469692893642426e-05,3.1405041145575034,0.0018014958152360726,-0.0003161761369694636,0.00029087435095465726,-3.224734370025106e-05,3.140763706349713,,,,
2025-04-30 00:03:46.377782,-0.08452489541015584,0.038108507824707094,-1.6131984732824427,0.0,0.0,3.258509939164917e-05,-4.4443481151327115e-05,3.1401517315707874,0.0028015089423799326,-0.0007787557233431613,0.00031342105270183685,-3.620446033606835e-05,3.140571399673985,,,,
2025-04-30 00:03:46.390256,-0.25930161660156203,0.038108507824707094,-1.407091603053435,0.0,0.0,0.00010636308981737475,-5.984369282720632e-05,3.1398453888468802,0.005914513003719085,-0.0012345789264714617,0.0003483672435037716,-4.5918706000024565e-05,3.140220184718657,,,,
2025-04-30 00:03:46.403163,-0.19705237343749982,0.0859925410278321,-2.338389312977099,0.0,0.0,0.00021331377335045065,-8.957196730345127e-05,3.139318619561995,0.0082862361413018,-0.00230326253415125,0.0004247060296216439,-6.185345101694729e-05,3.1399032089980636,,,,
2025-04-30 00:03:46.416388,-0.36464648964843693,0.20091422071533205,-2.7048015267175574,0.0,0.0,0.000383093461511584,-0.00015403507095633468,3.138694339142986,0.012838633129719005,-0.0048746593138806376,0.000534284251375109,-9.231208246551022e-05,3.1393634981742964,,,,
2025-04-30 00:03:46.430131,-0.35267548134765603,0.2152794306762696,-2.674267175572519,0.0,0.0,0.0006211562479863611,-0.0002597719038390373,3.138052857991278,0.017321670527579214,-0.007693510644587581,0.0007107337902646726,-0.00015930764028598517,3.1387146926942946,,,,
2025-04-30 00:03:46.442566,-0.6734985038085934,0.19133741407470706,-3.147549618320611,0.0,0.0,0.0009341703606764735,-0.00038294926541993684,3.137369755297708,0.02517258834076482,-0.009905920820404817,0.0009261239304085185,-0.0002549742986084304,3.1381343049856065,,,,
2025-04-30 00:03:46.455280,-0.757295561914062,0.009378087902832122,-3.575030534351145,0.0,0.0,0.0013677765976917106,-0.0005084631065028942,3.1365764426635274,0.03410423189637438,-0.009871982404965826,0.0012461719332352008,-0.0003809196377134947,3.137435851964036,,,,
2025-04-30 00:03:46.468246,-1.0781185843749994,0.27992287550048833,-4.674267175572519,0.0,0.0,0.0019784649769479658,-0.0006810985077142578,3.1355186655725364,0.04709951109479116,-0.013314553331784326,0.0016883645933810864,-0.0005089189479993625,3.136626829874201,,,,
2025-04-30 00:03:46.481222,-1.1762808524414057,-0.07441897020263666,-3.7582366412213744,0.0,0.0,0.002771577094438863,-0.0008394766033420274,3.134667527489025,0.061121788274516115,-0.012205528341827036,0.0022995246073748287,-0.000681687675559969,3.135568235861786,,,,
2025-04-30 00:03:46.493948,-1.2888083304687497,0.5384966547973633,-3.246786259541985,0.0,0.0,0.0037377744208445846,-0.0010787329156170865,3.1339463644508676,0.07592126552011735,-0.01880013690285379,0.0030773792441672787,-0.0008370189753012476,3.1347334715324946,,,,
2025-04-30 00:03:46.506110,-0.8386984183593746,0.3613257319458008,-5.124648854961832,0.0,0.0,0.00476372621792621,-0.001356229588971442,3.132858616221395,0.08436067608278246,-0.022817648004016283,0.004000695206223359,-0.001065656714310549,3.1340443148497155,,,,
2025-04-30 00:03:46.518586,-1.226559087304687,0.33498951368408203,-1.7277022900763361,0.0,0.0,0.00598186025648246,-0.0016880309864661619,3.132482393166354,0.09763284612280733,-0.026593719376998223,0.005053236590941321,-0.001350345267571871,3.132928375454775,,,,
2025-04-30 00:03:46.531767,-0.7884201834960933,0.06683892774658207,-4.826938931297709,0.0,0.0,0.007377106058113658,-0.0020442963466438713,3.131371969458292,0.1058549498365701,-0.02702925304346299,0.006340109041067321,-0.001700869974898276,3.132530922408304,,,,
2025-04-30 00:03:46.544831,-0.9536200980468745,0.17936640577392582,-3.781137404580153,0.0,0.0,0.008891419628873505,-0.002422092137209609,3.1305098705882295,0.11592005159680809,-0.028920105043674916,0.007722937851626915,-0.0020539647512324245,3.1314303809168753,,,,
2025-04-30 00:03:46.557574,-1.394153203515625,-0.10314939012451163,-6.758236641221375,0.0,0.0,0.010561129789382437,-0.0027696353251606314,3.12900676170367,0.13102718488771084,-0.027272760639033947,0.009200134267956727,-0.002422500435455452,3.13058941284661,,,,
2025-04-30 00:03:46.571380,-1.4755560599609368,0.6725719477661133,-7.155183206106869,0.0,0.0,0.012607687759549279,-0.0032681896855252914,3.1272826643422915,0.14823828757818988,-0.03611177680887877,0.011009078056510867,-0.0027990245208731755,3.128960962864958,,,,
2025-04-30 00:03:46.583993,-2.069318071679687,0.18176060743408207,-4.376557251908396,0.0,0.0,0.014762276432458551,-0.0037478413130461177,3.126319175264602,0.17081561079554022,-0.038026741138212125,0.012878886874451611,-0.0032545216789412914,3.1273857656331736,,,,
2025-04-30 00:03:46.597216,-1.5785067313476562,0.12908817091064456,0.012755725190839673,0.0,0.0,0.01724584276859532,-0.00426684672487965,3.1263221190251627,0.18782604071265402,-0.03925110845429194,0.015137529494233262,-0.0037573376559246587,3.1263757457059707,,,,
2025-04-30 00:03:46.609498,-1.415701018457031,0.19612581739501955,-1.9490763358778627,0.0,0.0,0.01971536494526575,-0.004771555597913694,3.125904315995141,0.20107013129823917,-0.041093730733435224,0.01744438914514833,-0.004239415636184171,3.1263784800168524,,,,
2025-04-30 00:03:46.622632,-1.3917590018554682,-0.8884475346557617,4.16542748091603,0.0,0.0,0.02254092596193129,-0.005153779381084349,3.1268591808962043,0.21512937019086117,-0.029101322272101732,0.020085292728457667,-0.004779150603505141,3.1259316820372574,,,,
2025-04-30 00:03:46.634355,-0.3574638846679683,-0.8908417363159178,0.09672519083969461,0.0,0.0,0.025062256201927757,-0.005368850151948073,3.1268789706140003,0.21508349965298862,-0.01834673353638137,0.022607160688802044,-0.005120292736615831,3.1267839174645746,,,,
2025-04-30 00:03:46.645897,-3.7500476371093745,-0.4263666142456054,3.0509236641221373,0.0,0.0,0.02798551241419914,-0.005527620375537871,3.127493583737224,0.2532641746706336,-0.013755485910178975,0.025089723322602668,-0.005332056610661035,3.126803402898555,,,,
2025-04-30 00:03:46.657284,1.3376308907226566,-0.2013116581909179,6.799015267175573,0.0,0.0,0.030642039500609695,-0.0056533728255959695,3.1288447808361735,0.2333022505630382,-0.011043866167392138,0.02797354951118957,-0.005488685279347005,3.12740972587947,,,,
2025-04-30 00:03:46.668625,-0.9584085013671872,0.3230185053833008,2.776114503816794,0.0,0.0,0.03335550298850801,-0.0058183168378809986,3.129394318064513,0.2392443034862804,-0.014543005833452069,0.030619619362477004,-0.005613942713583772,3.128755604084502,,,,
2025-04-30 00:03:46.679913,-1.3702111869140623,-0.8142272831909179,6.379167938931298,0.0,0.0,0.0361740734467395,-0.005879402892225587,3.1306510078921788,0.24971360202868897,-0.005411969964972449,0.03332002062467628,-0.005778092708950653,3.129302495919108,,,,
2025-04-30 00:03:46.691194,-3.2807841117187495,-0.028929138659667952,7.615809160305343,0.0,0.0,0.039343937738664375,-0.005939489939840714,3.1321504908662376,0.2809910913660851,-0.0053263873565034215,0.03613704313749115,-0.005839145215126323,3.1305584955787302,,,,
2025-04-30 00:03:46.702535,1.8475958443359377,1.3333716059692382,-2.6055648854961833,0.0,0.0,0.042232568978689676,-0.006164455005601643,3.1316347142642766,0.2546887297841768,-0.019835022916931087,0.03932399077108567,-0.005899556089716296,3.132066059712616,,,,
2025-04-30 00:03:46.713815,-5.710898796777344,-0.6107201420776367,0.356267175572519,0.0,0.0,0.045760584515459446,-0.006314606499452186,3.1317048496261197,0.31278550969024077,-0.01331207616443603,0.04219671270954307,-0.006123282147526387,3.1315531237797543,,,,
2025-04-30 00:03:46.725734,3.803658600683594,-0.8142272831909179,15.49367175572519,0.0,0.0,0.04888528290150054,-0.006353216645249062,3.1349278743586533,0.2621658886472707,-0.0032394368777664225,0.045924735383847275,-0.0062819458971106615,3.1316272351935215,,,,
2025-04-30 00:03:46.737449,-0.5370290091796872,3.1816952876098634,4.066190839694656,0.0,0.0,0.05196503672094811,-0.006818797901798526,3.1357593155465864,0.2628751859810783,-0.03974011124911872,0.0489961793235899,-0.0063198980075767994,3.1347953296971713,,,,
2025-04-30 00:03:46.748791,7.914502851171875,-2.401582983874512,11.722679389312976,0.0,0.0,0.05389024345320459,-0.006954248710993326,3.1380798913553716,0.16974065202073235,-0.011942358337025729,0.05197772247055585,-0.006770632282522792,3.135600256948283,,,,
2025-04-30 00:03:46.760345,0.9377992134765627,1.0867688349731446,14.249396946564884,0.0,0.0,0.055689356008484486,-0.007231551944948235,3.140953240464718,0.15571978346768825,-0.024001610916238703,0.05393882549414991,-0.0069086086291714685,3.1379641008715553,,,,
2025-04-30 00:03:46.772546,-1.1906460624023434,-0.3617231694213866,9.791381679389312,0.0,0.0,0.05772497377637487,-0.007465521502077946,3.1430383447502495,0.16683601192617079,-0.01917577476448677,0.05583881072143492,-0.007201459705357036,3.1409985529654887,,,,
2025-04-30 00:03:46.785780,2.5060013008789066,1.6709540400512695,13.844816793893129,0.0,0.0,0.05945995346516808,-0.008003016931159745,3.1462362107075523,0.13109880104893187,-0.0406143119582674,0.05804674160817987,-0.007455234564219706,3.143260159356791,,,,
2025-04-30 00:03:46.798946,-1.0853011893554685,0.46906480665283207,0.41733587786259535,0.0,0.0,0.06133617726659323,-0.008605843991397183,3.1463321082443465,0.1425083391320826,-0.04578765234353103,0.05977275071308096,-0.00798995091302215,3.1464414909851732,,,,
2025-04-30 00:03:46.811748,1.6847901314453129,-1.889223828601074,3.8448167938931297,0.0,0.0,0.06285175255567145,-0.008878379933181142,3.1471911590943322,0.11838908439084271,-0.021289130829668615,0.06159709219175252,-0.00857610828381205,3.146534736713078,,,,
2025-04-30 00:03:46.824476,0.3919212349609378,0.047685314465332085,3.287564885496183,0.0,0.0,0.06426632144407611,-0.009151897620566634,3.1479214891574667,0.11113647673381034,-0.021489085720445725,0.06310397382438801,-0.008847080902504611,3.1473888598679434,,,,
2025-04-30 00:03:46.837881,-2.066923870019531,0.890444298840332,8.279931297709924,0.0,0.0,0.06609167130043608,-0.0095880156026552,3.149858754497652,0.13616362608586763,-0.03253261594511537,0.06459382069226215,-0.009135154161572982,3.1481580553210557,,,,
2025-04-30 00:03:46.850654,1.4118511421875002,0.8688964838989257,-3.6666335877862593,0.0,0.0,0.06757134336359512,-0.010135809795646331,3.1490413919599387,0.11584988992544824,-0.04288916344364435,0.06633294632861231,-0.009550671198200697,3.1500038098791694,,,,
2025-04-30 00:03:46.863213,-3.5297810843749993,3.6461704096801757,8.356267175572519,0.0,0.0,0.06954805724424892,-0.011222219997259392,3.1508730770648863,0.15739201048810258,-0.08650330607791762,0.06778792542683762,-0.01008932372856589,3.1492000875966073,,,,
2025-04-30 00:03:46.876465,3.0255430611328125,1.0317021967895508,-4.315488549618321,0.0,0.0,0.07107288531249051,-0.012527502942404836,3.149874941765097,0.11506382285839116,-0.09849690513206044,0.06987368747912573,-0.011235667260586673,3.151132820158984,,,,
2025-04-30 00:03:46.888885,-3.139526213769531,-0.6633925786010741,0.41733587786259535,0.0,0.0,0.07294722463740884,-0.013622144933793599,3.149965410647937,0.15090793603728286,-0.08813247496016614,0.07130282801157352,-0.012459039785051921,3.15019732084368,,,,
2025-04-30 00:03:46.902134,1.6704249214843752,-5.449401697253418,12.195961832061068,0.0,0.0,0.07460880287208675,-0.013832290225478145,3.1527856224877544,0.12541009224276134,-0.01586102890884921,0.07330223122925346,-0.013626720946458294,3.1502938261952167,,,,
2025-04-30 00:03:46.915083,-3.836238896875,-3.380811462878418,-15.628465648854963,0.0,0.0,0.07682626055482994,-0.013473243233200783,3.1492536801208195,0.1712519172999533,0.02772882039950126,0.0749261054428785,-0.013832097685969689,3.153050042657409,,,,
2025-04-30 00:03:47.088588,-1.2792315238281247,-0.6131143437377928,-5.483427480916031,0.0,0.0,0.10615686695290386,-0.004771245833843614,3.1396832937371872,0.29330606398073916,0.08701997399357168,0.10463926262850012,-0.009020993599706258,3.105723250567527,,,,
2025-04-30 00:03:47.100557,-0.7141999320312498,0.13387657423095706,-11.536862595419848,0.0,0.0,0.10969723100007943,-0.0037698140424976597,3.13727338692707,0.2958099381367093,0.08367316815413658,0.10814965937269633,-0.007979505983524097,3.1045778309077408,,,,
2025-04-30 00:03:47.114237,3.669583307714844,-2.5428408818237305,-1.643732824427481,0.0,0.0,0.11299222436049974,-0.002178503306300781,3.1368809212642303,0.24085822045668942,0.11632201652300515,0.11219640430113886,-0.006834838664341652,3.1018232333488704,,,,
2025-04-30 00:03:47.128236,-3.556117302636718,-0.4766448491088866,-19.101748091603053,0.0,0.0,0.1169804277016135,-0.0004975195152792638,3.132213742511417,0.28488746404698484,0.12007692897485761,0.11556823241148934,-0.0052064207327417265,3.1014216159221992,,,,
2025-04-30 00:03:47.140681,-2.540975798730468,-0.929148962878418,-1.6590000000000003,0.0,0.0,0.12084179736326281,0.0011041442079304682,3.131853411972305,0.31028734418986753,0.12870458580951552,0.11911351336236853,-0.0037121238518357004,3.0972727652966245,,,,
2025-04-30 00:03:47.153582,-2.143538323144531,1.168171691418457,-3.674267175572519,0.0,0.0,0.12511237178155632,0.002537139494478215,3.1310260915290398,0.33102488153880216,0.1110757121906518,0.12311655140669195,-0.002051697272661016,3.0968992147218315,,,,
2025-04-30 00:03:47.166889,0.8970977852539066,0.9502993403442384,-33.32312213740458,0.0,0.0,0.12927065078242034,0.0038236578300941946,3.1232865706358344,0.3124802695769951,0.09667739856933522,0.12752160973414944,-0.0005735757831549547,3.096045841275751,,,,
2025-04-30 00:03:47.179884,-16.94449298623047,2.0923335322387695,25.211229007633587,0.0,0.0,0.13604990522832527,0.004673326593882017,3.1290047239081202,0.521672000137176,0.06538306048197114,0.13158236679266588,0.0006827705108714644,3.088487831317764,,,,
2025-04-30 00:03:47.192023,0.0016663643554690744,-0.797467871569824,-11.68190076335878,0.0,0.0,0.142257244062161,0.005566276343592833,3.126529763853837,0.511361631380613,0.07356135261442974,0.1379148615796399,0.001476445251991583,3.093829152561392,,,,
2025-04-30 00:03:47.205242,-14.804076702050782,-4.369616748522949,-9.391824427480916,0.0,0.0,0.15142951574814748,0.007223752122489606,3.124362909025992,0.6938641143767653,0.1253847468541771,0.1446746113860197,0.0024488614611426263,3.091133937881545,,,,
2025-04-30 00:03:47.217842,-3.4459840262695307,1.0843746333129882,-8.399458015267177,0.0,0.0,0.1605295878705276,0.008593021446586229,3.1225158846424304,0.7222720958120433,0.1086788116782243,0.15341676482178404,0.004028612701755846,3.0890686940655567,,,,
2025-04-30 00:03:47.230575,1.1484889595703127,-0.34975216112060536,-10.773503816793893,0.0,0.0,0.1693610883657436,0.010008626474388597,3.1201216622723273,0.6935924400458083,0.11117623170676667,0.16261344287586357,0.005412418123701239,3.0872020617592177,,,,
2025-04-30 00:03:47.242766,-4.470702336816406,0.7874936274536133,0.440236641221374,0.0,0.0,0.1782965305841553,0.011208326362050002,3.120215336885776,0.7329218937802484,0.09840434218476146,0.17106939872020446,0.00676782693725541,3.084909649653926,,,,
2025-04-30 00:03:47.256297,-9.505708428125,0.2871054804809571,-14.422358778625954,0.0,0.0,0.18971909676546292,0.01241943899280201,3.116809353056999,0.844179427070346,0.08950671421094342,0.18098654259859537,0.008099333101808997,3.0850136159262846,,,,
2025-04-30 00:03:47.268932,3.1332821358398437,0.05247371778564458,-9.66663358778626,0.0,0.0,0.19968190637081915,0.013532744115647501,3.1146776053159497,0.7884944557888143,0.08811118065460284,0.19165294468032812,0.009230271113532314,3.081833105310284,,,,
2025-04-30 00:03:47.281708,-1.863416728906249,1.117893456555176,-31.941442748091603,0.0,0.0,0.2098453838208836,0.014447031842878344,3.107555653733428,0.7955641550998473,0.07156748729028298,0.2017261054298904,0.010355907546422153,3.0796777456754314,,,,
2025-04-30 00:03:47.295839,-11.734710173730466,0.6198995112426758,-30.040679389312977,0.0,0.0,0.22315238217071293,0.015221783883913143,3.100146485298528,0.941667871415743,0.054825219495544614,0.21296846722267485,0.011367249723618265,3.0717997770613623,,,,
2025-04-30 00:03:47.311333,-0.9823505179687495,-7.4413774785034175,7.211229007633587,0.0,0.0,0.23775094141476355,0.017794474796006314,3.1020965689425473,0.9422006775441011,0.16604317453269174,0.227558771110923,0.012216717606574999,3.0636760803280723,,,,
2025-04-30 00:03:47.329527,-3.1155841971679683,-2.4686206303588865,1.539473282442748,0.0,0.0,0.2555916116703039,0.021515834458762206,3.102585420230584,0.9805820211436633,0.2045381887137593,0.2447011327289812,0.015237700513814015,3.0659659665046726,,,,
2025-04-30 00:03:47.342541,3.4134037300781253,-3.6178374272338862,7.486038167938931,0.0,0.0,0.2675542026762554,0.02474574172505886,3.104285818956582,0.9191870315946661,0.24818108977864484,0.2574627375640499,0.017899625250106202,3.066315646582365,,,,
2025-04-30 00:03:47.354498,-0.4412609427734373,-1.8557050053588864,2.8371832061068702,0.0,0.0,0.2783963713118109,0.027911432053322242,3.1048779044773016,0.9067685844107756,0.26475778362537994,0.2684533927052853,0.020867109207751814,3.0678778914163427,,,,
2025-04-30 00:03:47.366637,3.056667682714844,2.9542461298950196,4.997488549618321,0.0,0.0,0.2887270270117158,0.030650408126054768,3.105936686329895,0.8510411777651352,0.22563731582209848,0.2794605146751497,0.024080962518218244,3.0684789849578853,,,,
2025-04-30 00:03:47.379716,4.15081784140625,2.8034114253051756,23.424969465648854,0.0,0.0,0.2989257117380258,0.03309389940582031,3.1112841074034403,0.7797514380922155,0.18681976063518704,0.2905916267669336,0.027032164316820467,3.069619805039816,,,,
2025-04-30 00:03:47.391988,-0.6256144706054685,-1.908377441882324,19.570007633587785,0.0,0.0,0.30840300451677033,0.03561982133776335,3.115475704217643,0.7722771023286303,0.20583005251080988,0.3001606437054966,0.02932479420712273,3.07463707581576,,,,
2025-04-30 00:03:47.404856,3.1237053291992187,0.5624386713989258,10.33336641221374,0.0,0.0,0.31763277893530456,0.03813622904350198,3.11779640825233,0.7172829809111521,0.19556018798633304,0.31009806538255635,0.03197335133699718,3.079032177456639,,,,
2025-04-30 00:03:47.418142,4.237009101171875,0.32062430372314454,-10.742969465648855,0.0,0.0,0.3262376351172133,0.04064623006706138,3.115305348827338,0.6476811195033487,0.18892590864114728,0.31962762662282246,0.03457149298704219,3.0814282589009125,,,,
2025-04-30 00:03:47.430835,1.974488532324219,0.6175053095825196,8.760847328244274,0.0,0.0,0.3339801561760576,0.04290641393131761,3.1172461690422675,0.6099869838685683,0.1780663853372655,0.3278485966431451,0.036969516002121075,3.0790483324478988,,,,
2025-04-30 00:03:47.443115,-1.2409242972656247,0.06923312940673831,4.043290076335878,0.0,0.0,0.34150467017202346,0.04503496390603788,3.118112819384297,0.6126984886689136,0.17332140697280407,0.3353398108086109,0.039156338776226755,3.0809261574839826,,,,
2025-04-30 00:03:47.456489,0.602610981054688,0.6653893427856445,1.043290076335878,0.0,0.0,0.3494263389657726,0.04719236076678961,3.118356333120902,0.5923462723435979,0.1613203002681027,0.3435336574221174,0.04147423093662298,3.081869899494954,,,,
2025-04-30 00:03:47.468868,-1.130791020898437,3.437874865246582,0.7990152671755725,0.0,0.0,0.35677016348013596,0.0486293387033075,3.1185289628500152,0.5932519122492308,0.11608255440089257,0.3508662710825368,0.04347120380988638,3.0820953055549674,,,,
2025-04-30 00:03:47.481612,-2.876164031152343,-0.6107201420776367,3.089091603053435,0.0,0.0,0.3646394711160394,0.05016609816370928,3.1192160763149785,0.6174705072492302,0.12058286286902825,0.35842692660902475,0.04495060941876578,3.0822730322848075,,,,
2025-04-30 00:03:47.493959,3.7581687691406254,0.8736848872192382,-3.4147251908396945,0.0,0.0,0.3715466801145812,0.05150766256599647,3.1184802041753072,0.5594140405387329,0.10865314240308063,0.36605097165426304,0.04643947272058206,3.082938730494923,,,,
2025-04-30 00:03:47.506833,-0.010304643945312275,-0.43833762254638664,8.531839694656489,0.0,0.0,0.3786076593914593,0.05294961950644793,3.120397238025457,0.5484729452548646,0.11200632929909651,0.3732528053665953,0.04783826110843834,3.082171469972682,,,,
2025-04-30 00:03:47.519938,-8.780265325097655,-1.77669635057373,5.699778625954199,0.0,0.0,0.3871344603590071,0.054657561138545,3.1217008426150956,0.6506922003054711,0.13033543327822897,0.3804401047349871,0.04930601448951569,3.0841227993336795,,,,
2025-04-30 00:03:47.533357,-0.6040666556640621,-3.584318603991699,0.7837480916030534,0.0,0.0,0.39581092077122493,0.05700198670982717,3.1218844095032106,0.6465499877910444,0.17470123212399274,0.38917215209883904,0.05105506753800678,3.0854577826484983,,,,
2025-04-30 00:03:47.546207,3.049485077734375,4.156135363293457,-23.95670992366412,0.0,0.0,0.4034425071262657,0.05854201066323016,3.1165117030407874,0.5939176765060409,0.11985023894338932,0.39748004098624407,0.053299903130592005,3.0856335517106976,,,,
2025-04-30 00:03:47.558525,6.4588282417968745,-4.278637085437011,-19.95670992366412,0.0,0.0,0.40967080580478943,0.060652987040730126,3.1122211700334375,0.5056202930462325,0.17137143700022495,0.40479599869325844,0.054776234470725944,3.0804830506978473,,,,
2025-04-30 00:03:47.571765,-2.667868486718749,-0.9794271977416991,-11.628465648854963,0.0,0.0,0.41669513107022504,0.0630301561571254,3.1095339288080233,0.530515090629651,0.17953668737864723,0.411490702504504,0.05704529097063808,3.075871221824639,,,,
2025-04-30 00:03:47.584831,1.1197585396484377,-1.4175661015502927,-24.3383893129771,0.0,0.0,0.42330947117777384,0.06557291750916007,3.1039840700573835,0.5062602085887031,0.1946224221223821,0.4184219350645221,0.05939095569395392,3.0732195943480662,,,,
2025-04-30 00:03:47.597279,3.6815543160156254,-0.00019871873779286897,-4.117015267175573,0.0,0.0,0.4289269409715503,0.06796878115549644,3.1030895736767268,0.4512549753110514,0.19246127353883538,0.4247241402148979,0.061813722504913717,3.067931636995794,,,,
2025-04-30 00:03:47.610455,-1.8035616874023432,-0.7998620732299804,-15.231519083969467,0.0,0.0,0.43506603701058394,0.07057700484538353,3.099586873229407,0.46593143950678495,0.19795315314468978,0.43066985968482424,0.06434958538486953,3.0669848718610457,,,,
2025-04-30 00:03:47.622711,-1.5042864798828122,6.315705260754394,-6.6971679389312975,0.0,0.0,0.4408432122692355,0.07201615784669665,3.0981542814182306,0.4713696707789602,0.11742296988716659,0.43638038318986483,0.06677572802750008,3.0637266962097187,,,,
2025-04-30 00:03:47.637518,16.856846051855467,4.127404943371582,8.058557251908397,0.0,0.0,0.4440277232226772,0.07298374431613841,3.1002368596509657,0.21506814314571,0.06534661942074639,0.44335994723761324,0.06851440828168348,3.061995942709483,,,,
2025-04-30 00:03:47.652262,-5.74441762001953,-1.4534791264526365,-21.80403816793893,0.0,0.0,0.4483721611999336,0.07417977533010213,3.0946260714183573,0.2946619273246852,0.0811209195664951,0.44653086998716374,0.06947786609136512,3.064069634649139,,,,
2025-04-30 00:03:47.666725,2.4389636543945317,-0.3425695561401366,-11.399458015267177,0.0,0.0,0.45205286119956406,0.0754246497857406,3.091748456281123,0.2544832970336591,0.08607051807962286,0.45079269057985916,0.07065115240169977,3.058565545752907,,,,
2025-04-30 00:03:47.682107,-0.10846691201171854,3.885590575695801,-2.0177786259541985,0.0,0.0,0.4558687298099715,0.07582102393766328,3.091206756807565,0.2480766472829427,0.025769013747069414,0.4547071050790046,0.07197507301985834,3.055505209833848,,,,
2025-04-30 00:03:47.696827,1.744645172949219,0.43554598341064454,-14.35365648854962,0.0,0.0,0.4590724078730933,0.0761204250536575,3.0875191925034993,0.2176452439278868,0.020340130200019676,0.4583587250203826,0.07235438580685001,3.0549868270482134,,,,
2025-04-30 00:03:47.710517,1.514801813574219,1.4051976557739256,-16.094114503816794,0.0,0.0,0.46169972608734555,0.07615175719751172,3.0836736704935093,0.19191186665699234,0.002288649384307155,0.4613383391712842,0.07263284693322887,3.0515571694589463,,,,
2025-04-30 00:03:47.723987,1.0718745064453128,4.069944103527832,-28.544496183206107,0.0,0.0,0.4639961709329956,0.07547208592403722,3.076962891764478,0.17048369503149405,-0.05045750187651177,0.46392342519327656,0.07266367543610196,3.0477734613639913,,,,
2025-04-30 00:03:47.737604,-16.88703214638672,6.47851097364502,19.394435114503818,0.0,0.0,0.4692634245241528,0.07343966952252878,3.081572053700936,0.38682698568435586,-0.14926061497605445,0.46624482697784886,0.07197661773900338,3.0409897522986715,,,,
2025-04-30 00:03:47.750797,-1.0469939627929685,2.1665537837036135,-40.178083969465646,0.0,0.0,0.4744174952633475,0.0711287496836787,3.0723203376324757,0.39065615262278747,-0.1751576761257071,0.47134837810500013,0.07000736738163063,3.0454556647877773,,,,
2025-04-30 00:03:47.763702,1.7590103829101564,0.16978959913330083,-43.620832061068704,0.0,0.0,0.4790695065696424,0.06890870996555279,3.0624958634034503,0.36049791464273595,-0.17203734817356794,0.47638956354618617,0.06774706168602443,3.0364065813136927,,,,
2025-04-30 00:03:47.776281,2.4174158394531253,1.330977404309082,-22.750603053435114,0.0,0.0,0.48312270365130916,0.0666137181819117,3.057501002548149,0.3222141493228529,-0.18244334296341916,0.4809243398700924,0.0655829690196403,3.0268296929109653,,,,
2025-04-30 00:03:47.789438,4.866684137792969,2.834536046887207,-23.101748091603053,0.0,0.0,0.48641198403718033,0.06385616748672222,3.05219621966144,0.250008913607106,-0.20959364135759218,0.4851635994473865,0.06318262536435199,3.0216055423721566,,,,
2025-04-30 00:03:47.802729,4.7709160713867185,1.5440613520629882,-29.246786259541985,0.0,0.0,0.4888206267772712,0.0609393918444824,3.0454117310905526,0.1812219469986593,-0.2194529525059475,0.4884864980515066,0.06039689101491959,3.016246541745417,,,,
2025-04-30 00:03:47.816748,3.0135720528320316,-1.5492471928588867,-32.62846564885496,0.0,0.0,0.49076416714715365,0.05828145104425555,3.0374279942682914,0.1386313245733025,-0.18958898898259732,0.4910271371962647,0.05732027269797005,3.0090902553632746,,,,
2025-04-30 00:03:47.829815,-1.731735637597656,1.8600959712036131,-23.109381679389312,0.0,0.0,0.49279339730592836,0.0555127117580571,3.03215780793306,0.15529984804067984,-0.21189552528162167,0.49283856758930245,0.054843002442597225,3.0016492040972627,,,,
2025-04-30 00:03:47.842644,0.6457066109375003,-0.7998620732299804,-30.124648854961833,0.0,0.0,0.4946574771500585,0.052988785423823306,3.0254123642751596,0.14529589761488138,-0.19672770101618905,0.49483099353718724,0.05212447986747407,2.9964746032965115,,,,
2025-04-30 00:03:47.856072,-0.07255388710937449,-2.0927309697143555,-19.765870229007636,0.0,0.0,0.4966268163193316,0.05076548519984537,3.0207799064836287,0.14665685087601268,-0.16556935163224945,0.49678205753862,0.04948277874694638,2.989414394831695,,,,
2025-04-30 00:03:47.869254,0.8516079537109378,0.33020111036376953,-23.659,0.0,0.0,0.49837039806934924,0.04858913209924733,3.0153368263611435,0.13227304131865958,-0.16510429958129705,0.49871524215547963,0.04730029547605237,2.9848669830498307,,,,
2025-04-30 00:03:47.882439,-1.1930402640624997,-1.8293687870971678,-24.208618320610686,0.0,0.0,0.5003220398493553,0.04673798222431297,3.0097657878938944,0.14801690549240773,-0.1403953732173065,0.5004592969507557,0.045123351916466686,2.979422426183715,,,,
