timestamp,imu_accel_x,imu_accel_y,imu_gyro_z,gps_lat,gps_lng,odom_x,odom_y,odom_heading,odom_vx,odom_vy,ekf_x,ekf_y,ekf_heading,map_matched_lat,map_matched_lng,distance_to_path,progress
2025-04-30 00:16:38.636257,-0.021394586035156316,0.006047753393554678,0.1427251908396947,,,0.0,0.0,3.141592653589793,0.0,0.0,0.0,0.0,3.141592653589793,,,,
2025-04-30 00:16:38.652315,0.004941632226562298,-0.16633476613769527,0.1503587786259542,,,-1.2504903829748182e-06,4.2031689865889706e-05,3.141634793179286,-7.7874668754329e-05,0.002617536264216725,0.0,0.0,3.141592653589793,,,,
2025-04-30 00:16:38.665560,0.009730035546874571,-0.013105859887695304,0.21906106870229008,,,-1.2504903829748182e-06,4.2031689865889706e-05,3.141685432769421,-6.22997350034632e-05,0.00209402901137338,-1.0314396556161019e-06,3.466892053747933e-05,3.141627411508979,,,,
2025-04-30 00:16:38.677989,0.019306842187499562,0.029989769995117155,0.020587786259541996,,,-1.2504903829748182e-06,4.2031689865889706e-05,3.1416898990722,-4.983978800277056e-05,0.001675223209098704,-1.8058075566243622e-06,6.06971026813916e-05,3.141674934494094,,,,
2025-04-30 00:16:38.692460,-0.033365594335937665,0.0323839716552734,-0.18551908396946565,,,-1.2504903829748182e-06,4.2031689865889706e-05,3.141643043745541,-3.987183040221645e-05,0.0013401785672789634,-2.5270299412746307e-06,8.49389489272159e-05,3.1416801342149516,,,,
2025-04-30 00:16:38.707579,-0.035759795996094024,0.00365355173339843,-0.26948854961832064,,,-1.2504903829748182e-06,4.2031689865889706e-05,3.1415719339825765,-3.189746432177316e-05,0.0010721428538231707,-3.1298361540492293e-06,0.0001052005711911943,3.1416311814186075,,,,
2025-04-30 00:16:38.723098,-0.0405481993164063,0.008441955053710926,0.2343282442748092,,,-1.2504903829748182e-06,4.2031689865889706e-05,3.1416354031856413,-2.551797145741853e-05,0.0008577142830585366,-3.6248498321632948e-06,0.00012183905292694926,3.141558188837059,,,,
2025-04-30 00:16:38.737603,0.0025474305664059393,-0.013105859887695304,0.058755725190839714,,,-1.2504903829748182e-06,4.2031689865889706e-05,3.1416502784261917,-2.0414377165934824e-05,0.0006861714264468293,-3.995003951044711e-06,0.00013428073447782502,3.1416175139324434,,,,
2025-04-30 00:16:38.751669,0.019306842187499562,0.03956657663574226,-0.2084198473282442,,,-1.2504903829748182e-06,4.2031689865889706e-05,3.1415991118373268,-1.633150173274786e-05,0.0005489371411574634,-4.282152190575908e-06,0.00014393240866407466,3.1416319383266305,,,,
2025-04-30 00:16:38.765250,0.02409524550781228,0.0012593500732421825,0.02822137404580155,,,-1.2504903829748182e-06,4.2031689865889706e-05,3.141605801257439,-1.306520138619829e-05,0.00043914971292597076,-4.5039509283885495e-06,0.00015138754457500353,3.1415825357739324,,,,
2025-04-30 00:16:38.778701,-0.004635174414062693,0.00365355173339843,0.08929007633587788,,,-1.2504903829748182e-06,4.2031689865889706e-05,3.1416267624143828,-1.0452161108958633e-05,0.00035131977034077663,-4.679682905899568e-06,0.000157294276908835,3.1415891608399513,,,,
2025-04-30 00:16:38.792343,-0.030971392675781306,-0.013105859887695304,0.1274580152671756,,,-1.2504903829748182e-06,4.2031689865889706e-05,3.141657110581573,-8.361728887166906e-06,0.0002810558162726213,-4.822274539375494e-06,0.0001620870905100664,3.1416104210969813,,,,
2025-04-30 00:16:38.805245,0.014518438867187289,0.008441955053710926,0.005320610687022942,,,-1.2504903829748182e-06,4.2031689865889706e-05,3.1416583087134793,-6.689383109733526e-06,0.00022484465301809707,-4.930159738077812e-06,0.00016571334567740982,3.1416391229742215,,,,
2025-04-30 00:16:38.818593,-0.0190003843750004,-0.013105859887695304,0.07402290076335882,,,-1.2504903829748182e-06,4.2031689865889706e-05,3.141675553397675,-5.351506487786821e-06,0.00017987572241447765,-5.0194487150805354e-06,0.00016871454156097433,3.1416403624859144,,,,
2025-04-30 00:16:38.831760,-0.011817779394531325,0.09942161813964845,0.18089312977099237,,,6.903280654434383e-07,2.7461812481049006e-05,3.141717122941666,0.00014740393990899932,-0.0011065730193706995,-5.089910213767332e-06,0.0001710829051250697,3.141657373072406,,,,
2025-04-30 00:16:38.846027,0.016912640527343648,0.00365355173339843,0.07402290076335882,,,6.903280654434383e-07,2.7461812481049006e-05,3.1417355547476427,0.00011792315192719946,-0.0008852584154965597,-2.986938097245828e-06,0.00015529572734631944,3.141702415715102,,,,
2025-04-30 00:16:38.859177,0.03367205214843727,0.0323839716552734,0.2572290076335878,,,6.903280654434383e-07,2.7461812481049006e-05,3.141794591477634,9.433852154175957e-05,-0.0007082067323972477,-1.4362513934340191e-06,0.0001436545997821961,3.1417194047399626,,,,
2025-04-30 00:16:38.872009,-0.004635174414062693,-0.010711658227539056,0.3259312977099237,,,6.903280654434383e-07,2.7461812481049006e-05,3.1418675895563357,7.547081723340766e-05,-0.0005665653859177983,-2.2566144932359564e-07,0.0001345666054551714,3.1417770157256997,,,,
2025-04-30 00:16:38.885941,-0.021394586035156316,0.020412963354492164,-0.14735114503816787,,,6.903280654434383e-07,2.7461812481049006e-05,3.1418317610121487,6.037665378672613e-05,-0.0004532523087342386,8.257612094535722e-07,0.00012667349251072705,3.1418562661712857,,,,
2025-04-30 00:16:38.899643,0.004941632226562298,-0.013105859887695304,0.303030534351145,,,6.903280654434383e-07,2.7461812481049006e-05,3.1419042300688926,4.830132302938091e-05,-0.0003626018469873909,1.6530514272768243e-06,0.00012046295950328042,3.141821027483165,,,,
2025-04-30 00:16:38.913033,0.016912640527343648,-0.003529053247070313,-0.15498473282442743,,,6.903280654434383e-07,2.7461812481049006e-05,3.141868010672018,3.8641058423504734e-05,-0.00029008147758991274,2.2997977295603645e-06,0.00011560778392977433,3.1418918446726307,,,,
2025-04-30 00:16:38.926479,-0.023788787695312674,-0.008317456567382808,0.035854961832061105,,,6.903280654434383e-07,2.7461812481049006e-05,3.1418764253622142,3.0912846738803786e-05,-0.0002320651820719302,2.8193874049933428e-06,0.00011170718319730633,3.1418554717846066,,,,
2025-04-30 00:16:38.940215,0.0025474305664059393,-0.16154636281738277,0.05112213740458016,,,6.265717631148666e-07,5.42093912457136e-05,3.141888681524265,-4.641464121254167e-06,0.0019472259624908489,3.2440139346891974e-06,0.00010851947830040515,3.141864067751928,,,,
2025-04-30 00:16:38.954860,0.03127785048828091,0.015624560034179669,-0.28475572519083964,,,6.265717631148666e-07,5.42093912457136e-05,3.1418158964778984,-3.7131712970033338e-06,0.0015577807699926791,3.176039230158444e-06,0.00013703679654246935,3.1418771348364927,,,,
2025-04-30 00:16:38.968752,0.02409524550781228,0.010836156713867173,0.17325954198473287,,,6.265717631148666e-07,5.42093912457136e-05,3.141857904988407,-2.970537037602667e-06,0.0012462246159941435,3.124456094562528e-06,0.00015867738628636094,3.1418080929601437,,,,
2025-04-30 00:16:38.981940,-0.00942357773437541,0.0012593500732421825,-0.16261832061068698,,,6.265717631148666e-07,5.42093912457136e-05,3.1418204768311866,-2.3764296300821338e-06,0.0009969796927953149,3.0852831175711505e-06,0.00017511156219141027,3.141847970295938,,,,
2025-04-30 00:16:38.995052,0.02409524550781228,-0.010711658227539056,-0.10154961832061066,,,6.265717631148666e-07,5.42093912457136e-05,3.141797236481677,-1.9011437040657071e-06,0.0007975837542362519,3.054122077075455e-06,0.0001881845032906622,3.1418107539413107,,,,
2025-04-30 00:16:39.007574,-0.00942357773437541,-0.013105859887695304,-0.032847328244274776,,,6.265717631148666e-07,5.42093912457136e-05,3.1417900579774303,-1.5209149632525658e-06,0.0006380670033890016,3.0303168960027845e-06,0.0001981714525410584,3.1417885611358285,,,,
2025-04-30 00:16:39.021006,-0.016606182714844042,0.010836156713867173,0.21142748091603053,,,6.265717631148666e-07,5.42093912457136e-05,3.141839623572414,-1.2167319706020527e-06,0.0005104536027112013,3.0098879268103456e-06,0.0002067419850625279,3.141780860635586,,,,
2025-04-30 00:16:39.034115,0.00015322890624958063,-0.0011348515869140652,-0.04048091603053433,,,6.265717631148666e-07,5.42093912457136e-05,3.141830361754753,-9.733855764816423e-07,0.00040836288216896104,2.993937825449163e-06,0.00021343350538100504,3.1418292341154577,,,,
2025-04-30 00:16:39.047092,-0.014211981054687683,-0.0178942632080078,0.1274580152671756,,,6.265717631148666e-07,5.42093912457136e-05,3.141859230700722,-7.787084611853138e-07,0.0003266903057351689,2.9813058487699637e-06,0.00021873297819922203,3.141820065281507,,,,
2025-04-30 00:16:39.061045,-0.035759795996094024,-0.020288464868164047,-0.032847328244274776,0.0,0.0,6.265717631148666e-07,5.42093912457136e-05,3.141851231272686,-6.229667689482511e-07,0.00026135224458813513,2.970440181262108e-06,0.0002232914341774131,3.141851105590574,,,,
2025-04-30 00:16:39.073564,-0.002240972753906334,0.12815203806152342,0.18852671755725192,0.0,0.0,9.690023996144441e-07,3.773397302117032e-05,3.1418924227695886,2.7353651672971686e-05,-0.001316070477476808,2.962641481850438e-06,0.00022656320997301333,3.141843928726535,,,,
2025-04-30 00:16:39.086791,-0.00942357773437541,0.013230358374023421,-0.05574809160305344,0.0,0.0,9.690023996144441e-07,3.773397302117032e-05,3.1418795533062838,2.188292133837735e-05,-0.0010528563819814465,3.3244413260823893e-06,0.00020915587805835458,3.141887450174602,,,,
2025-04-30 00:16:39.099941,-0.004635174414062693,0.008441955053710926,-0.3763587786259542,0.0,0.0,9.690023996144441e-07,3.773397302117032e-05,3.1417931766221314,1.750633707070188e-05,-0.0008422851055851573,3.612196015179046e-06,0.00019531109215542415,3.1418746556403065,,,,
2025-04-30 00:16:39.112986,0.004941632226562298,0.0012593500732421825,0.37936641221374046,0.0,0.0,9.690023996144441e-07,3.773397302117032e-05,3.141879550564759,1.4005069656561505e-05,-0.0006738280844681259,3.840567452448126e-06,0.00018432342184061343,3.141788966474092,,,,
2025-04-30 00:16:39.125833,-0.0190003843750004,-0.0059232549072265606,0.24959541984732828,0.0,0.0,9.690023996144441e-07,3.773397302117032e-05,3.1419355162675533,1.1204055725249205e-05,-0.0005390624675745007,4.02049317515297e-06,0.00017566662769036466,3.141874030165922,,,,
2025-04-30 00:16:39.138526,-0.00942357773437541,0.020412963354492164,0.02822137404580155,0.0,0.0,9.690023996144441e-07,3.773397302117032e-05,3.141941768361673,8.963244580199364e-06,-0.0004312499740596006,4.162708122557008e-06,0.00016882421791005335,3.1419293249242233,,,,
2025-04-30 00:16:39.151725,0.00015322890624958063,-0.0178942632080078,0.020587786259541996,0.0,0.0,9.690023996144441e-07,3.773397302117032e-05,3.1419465112061595,7.170595664159491e-06,-0.00034499997924768047,4.281016940050684e-06,0.00016313200745895405,3.141935826331738,,,,
2025-04-30 00:16:39.164705,-0.014211981054687683,0.06350859323730473,0.1427251908396947,0.0,0.0,3.410634231909308e-06,2.286135042543494e-05,3.14197884347728,0.00018811436739018506,-0.0011458541595110818,4.374087739867971e-06,0.0001586540776593392,3.141940490188785,,,,
2025-04-30 00:16:39.177128,0.00015322890624958063,0.008441955053710926,0.012954198473282441,0.0,0.0,3.410634231909308e-06,2.286135042543494e-05,3.141981652298384,0.00015049149391214804,-0.0009166833276088656,6.711084615058794e-06,0.00014441881414728954,3.1419714368759872,,,,
2025-04-30 00:16:39.191208,-0.014211981054687683,0.020412963354492164,-0.04048091603053433,0.0,0.0,3.410634231909308e-06,2.286135042543494e-05,3.1419717043889612,0.00012039319512971844,-0.0007333466620870925,8.830012013853877e-06,0.00013151186925362682,3.1419746202820384,,,,
2025-04-30 00:16:39.206743,-0.023788787695312674,0.03956657663574226,0.3259312977099237,0.0,0.0,3.410634231909308e-06,2.286135042543494e-05,3.142060077051394,9.631455610377475e-05,-0.000586677329669674,1.0700334289363073e-05,0.00012011924364639071,3.14196364432989,,,,
2025-04-30 00:16:39.222630,-0.011817779394531325,-0.013105859887695304,0.04348854961832066,0.0,0.0,3.410634231909308e-06,2.286135042543494e-05,3.142072135593074,7.70516448830198e-05,-0.00046934186373573925,1.2230485762879306e-05,0.00011079868799221335,3.142054018834735,,,,
2025-04-30 00:16:39.234823,-0.0190003843750004,-0.0059232549072265606,0.09692366412213743,0.0,0.0,3.410634231909308e-06,2.286135042543494e-05,3.1420927616638092,6.164131590641584e-05,-0.00037547349098859145,1.3169973737752494e-05,0.00010507601928405356,3.142063273518911,,,,
2025-04-30 00:16:39.246956,-0.007029376074219051,0.008441955053710926,-0.07101526717557255,0.0,0.0,3.410634231909308e-06,2.286135042543494e-05,3.142077724150094,4.931305272513268e-05,-0.00030037879279087317,1.3917831223173146e-05,0.00010052062236100352,3.1420837971469493,,,,
2025-04-30 00:16:39.258961,0.019306842187499562,0.027595568334960907,0.058755725190839714,0.0,0.0,3.410634231909308e-06,2.286135042543494e-05,3.142090035385325,3.9450442180106146e-05,-0.00024030303423269855,1.4509850651645983e-05,9.691447608925221e-05,3.1420689171389786,,,,
2025-04-30 00:16:39.271405,0.014518438867187289,-0.029865271508789037,0.15799236641221376,0.0,0.0,3.410634231909308e-06,2.286135042543494e-05,3.142124349606658,3.156035374408492e-05,-0.00019224242738615885,1.5000772716224149e-05,9.392414048917614e-05,3.1420816782425978,,,,
2025-04-30 00:16:39.283377,0.016912640527343648,-0.008317456567382808,-0.032847328244274776,0.0,0.0,3.410634231909308e-06,2.286135042543494e-05,3.142117485885543,2.5248282995267936e-05,-0.0001537939419089271,1.537862675913877e-05,9.16225319902158e-05,3.142114692055267,,,,
2025-04-30 00:16:39.295323,-0.016606182714844042,0.00365355173339843,0.15799236641221376,0.0,0.0,3.410634231909308e-06,2.286135042543494e-05,3.142150426065366,2.019862639621435e-05,-0.00012303515352714167,1.5680235791577743e-05,8.978535193235521e-05,3.1421078436427545,,,,
2025-04-30 00:16:39.307923,-0.023788787695312674,0.00365355173339843,-0.25422137404580153,0.0,0.0,3.410634231909308e-06,2.286135042543494e-05,3.142094521166885,1.615890111697148e-05,-9.842812282171334e-05,1.5934732558898552e-05,8.823514509030255e-05,3.14214258716988,,,,
2025-04-30 00:16:39.324863,0.02170104384765592,0.020412963354492164,0.1503587786259542,0.0,0.0,3.410634231909308e-06,2.286135042543494e-05,3.142138977617299,1.2927120893577186e-05,-7.874249825737068e-05,1.6208473937674456e-05,8.656771425100858e-05,3.1420674217554443,,,,
2025-04-30 00:16:39.338728,0.0025474305664059393,-0.003529053247070313,-0.05574809160305344,0.0,0.0,3.410634231909308e-06,2.286135042543494e-05,3.14212548761189,1.0341696714861749e-05,-6.299399860589654e-05,1.6387702227803952e-05,8.547598752861016e-05,3.1421038057944073,,,,
2025-04-30 00:16:39.352217,0.048037262109374534,-0.029865271508789037,0.09692366412213743,0.0,0.0,-5.021644033562019e-06,2.7349435432552887e-05,3.1421483065209856,-0.0006251111466997676,0.00033271577110705297,1.652720392265808e-05,8.462624596168406e-05,3.142090680922932,,,,
2025-04-30 00:16:39.365852,0.0025474305664059393,-0.0011348515869140652,0.11982442748091604,0.0,0.0,-5.021644033562019e-06,2.7349435432552887e-05,3.1421768221477806,-0.0005000889173598141,0.0002661726168856424,8.003714333024208e-06,8.916287824909393e-05,3.1421137466624627,,,,
2025-04-30 00:16:39.378835,-0.03815399765625038,0.020412963354492164,-0.1778854961832061,0.0,0.0,-5.021644033562019e-06,2.7349435432552887e-05,3.142136515209161,-0.00040007113388785127,0.00021293809350851395,1.5112565099875472e-06,9.261849269842184e-05,3.1421408975879017,,,,
2025-04-30 00:16:39.391566,0.028883648828124553,0.00365355173339843,0.17325954198473287,0.0,0.0,-5.021644033562019e-06,2.7349435432552887e-05,3.1421750126165375,-0.00032005690711028103,0.00017035047480681116,-3.5819838312489473e-06,9.53293728299226e-05,3.14210137231654,,,,
2025-04-30 00:16:39.404907,-0.04773080429687537,-0.0059232549072265606,0.4022671755725191,0.0,0.0,-5.021644033562019e-06,2.7349435432552887e-05,3.142268676240953,-0.0002560455256882248,0.00013628037984544892,-7.85177072255577e-06,9.760196938415784e-05,3.1421417139542682,,,,
2025-04-30 00:16:39.418118,0.15338213515624988,0.020412963354492164,-0.11681679389312977,0.0,0.0,-3.4571874253192076e-05,2.5605079298140438e-05,3.142241739673903,-0.002236666705365345,-0.00013203089313153116,-1.1234574343964062e-05,9.940246857752954e-05,3.1422344719934667,,,,
2025-04-30 00:16:39.433421,0.009730035546874571,0.006047753393554678,-0.21605343511450376,0.0,0.0,-3.4571874253192076e-05,2.5605079298140438e-05,3.1421840366395477,-0.0017893333642922762,-0.00010562471450522493,-4.546098691455121e-05,9.738207644241938e-05,3.1422032728437395,,,,
2025-04-30 00:16:39.447238,0.004941632226562298,0.008441955053710926,0.17325954198473287,0.0,0.0,-3.4571874253192076e-05,2.5605079298140438e-05,3.1422258202087465,-0.001431466691433821,-8.449977160417994e-05,-7.018518790893762e-05,9.59226018003452e-05,3.1421511690256563,,,,
2025-04-30 00:16:39.459852,0.00015322890624958063,-0.010711658227539056,-0.39925954198473285,0.0,0.0,-3.4571874253192076e-05,2.5605079298140438e-05,3.142137925794362,-0.0011451733531470567,-6.759981728334396e-05,-8.824070173044766e-05,9.485678112617672e-05,3.1421893109969252,,,,
2025-04-30 00:16:39.472985,0.1438053285156249,0.018018761694335916,-0.10918320610687021,0.0,0.0,-7.36173080314931e-05,2.167660626346155e-05,3.1421128989173304,-0.00297301296320347,-0.000299123357778811,-0.00010328059253428677,9.396897329559195e-05,3.1420977930811462,,,,
2025-04-30 00:16:39.486241,-0.016606182714844042,-0.003529053247070313,0.04348854961832066,0.0,0.0,-7.36173080314931e-05,2.167660626346155e-05,3.1421229603393885,-0.002378410370562776,-0.00023929868622304883,-0.0001426903605771253,9.000384354602108e-05,3.1420725326774774,,,,
2025-04-30 00:16:39.499066,-0.0190003843750004,0.020412963354492164,0.1274580152671756,0.0,0.0,-7.36173080314931e-05,2.167660626346155e-05,3.142151490374508,-0.0019027282964502207,-0.00019143894897843906,-0.00017319350261292262,8.693483497408394e-05,3.1420822670974373,,,,
2025-04-30 00:16:39.512191,0.0025474305664059393,0.018018761694335916,0.1503587786259542,0.0,0.0,-7.36173080314931e-05,2.167660626346155e-05,3.1421859348323595,-0.0015221826371601766,-0.00015315115918275126,-0.00019816760992039903,8.442211843776205e-05,3.142111465407472,,,,
2025-04-30 00:16:39.524721,0.016912640527343648,-0.003529053247070313,0.005320610687022942,0.0,0.0,-7.36173080314931e-05,2.167660626346155e-05,3.1421870983593396,-0.0012177461097281413,-0.000122520927346201,-0.00021723996712928964,8.250319389902305e-05,3.1421443463126795,,,,
2025-04-30 00:16:39.538309,0.004941632226562298,0.010836156713867173,0.21142748091603053,0.0,0.0,-7.36173080314931e-05,2.167660626346155e-05,3.1422372410964,-0.0009741968877825131,-9.801674187696082e-05,-0.00023378722306921333,8.083832703835454e-05,3.1421456081637005,,,,
2025-04-30 00:16:39.551786,0.00015322890624958063,0.0012593500732421825,0.04348854961832066,0.0,0.0,-7.36173080314931e-05,2.167660626346155e-05,3.1422474704531274,-0.0007793575102260105,-7.841339350156866e-05,-0.0002469165593013229,7.951734687857619e-05,3.1421953400389473,,,,
2025-04-30 00:16:39.565221,-0.002240972753906334,0.027595568334960907,0.1274580152671756,0.0,0.0,-7.36173080314931e-05,2.167660626346155e-05,3.1422773566620235,-0.0006234860081808084,-6.273071480125493e-05,-0.0002573869535177949,7.84638904981088e-05,3.142205537184068,,,,
2025-04-30 00:16:39.577902,-0.014211981054687683,0.015624560034179669,0.2953969465648855,0.0,0.0,-7.36173080314931e-05,2.167660626346155e-05,3.142342736718302,-0.0004987888065446467,-5.018457184100395e-05,-0.0002652935328427864,7.766838688426394e-05,3.142233747401906,,,,
2025-04-30 00:16:39.590221,-0.0190003843750004,0.0012593500732421825,0.07402290076335882,0.0,0.0,-7.36173080314931e-05,2.167660626346155e-05,3.142358651665931,-0.0003990310452357174,-4.0147657472803163e-05,-0.00027143791819409825,7.705018265827532e-05,3.1422972578410535,,,,
2025-04-30 00:16:39.603008,0.02170104384765592,-0.0178942632080078,-0.23132061068702287,0.0,0.0,-7.36173080314931e-05,2.167660626346155e-05,3.142307027174565,-0.00031922483618857395,-3.2118125978242534e-05,-0.0002765402743938592,7.653681997269474e-05,3.142313777746435,,,,
2025-04-30 00:16:39.616033,-0.026182989355469033,-0.0059232549072265606,-0.2236870229007633,0.0,0.0,-7.36173080314931e-05,2.167660626346155e-05,3.142256175489093,-0.00025537986895085915,-2.5694500782594027e-05,-0.00028069826848552593,7.611847226627114e-05,3.142261190686241,,,,
2025-04-30 00:16:39.627331,0.00015322890624958063,0.029989769995117155,0.08929007633587788,0.0,0.0,-7.36173080314931e-05,2.167660626346155e-05,3.1422737822664417,-0.00020430389516068733,-2.0555600626075225e-05,-0.0002835835352306103,7.582817730706342e-05,3.142217082675927,,,,
2025-04-30 00:16:39.638746,0.02170104384765592,0.006047753393554678,-0.07101526717557255,0.0,0.0,-7.36173080314931e-05,2.167660626346155e-05,3.1422596336406796,-0.00016344311612854988,-1.644448050086018e-05,-0.00028591571387011724,7.559353012784706e-05,3.142234872257303,,,,
2025-04-30 00:16:39.649952,0.016912640527343648,-0.0178942632080078,0.04348854961832066,0.0,0.0,-7.36173080314931e-05,2.167660626346155e-05,3.142268138952587,-0.0001307544929028399,-1.3155584400688146e-05,-0.00028774720401914834,7.540925865311838e-05,3.1422209833830403,,,,
2025-04-30 00:16:39.661238,0.02409524550781228,-0.020288464868164047,-0.15498473282442743,0.0,0.0,-7.36173080314931e-05,2.167660626346155e-05,3.142237610336824,-0.00010460359432227193,-1.0524467520550517e-05,-0.0002892229018776111,7.526078446079104e-05,3.142229549679844,,,,
2025-04-30 00:16:39.672788,-0.035759795996094024,0.006047753393554678,0.3411984732824428,0.0,0.0,-7.36173080314931e-05,2.167660626346155e-05,3.1423063949709342,-8.368287545781754e-05,-8.419574016440414e-06,-0.00029043114294314453,7.513921986319198e-05,3.1421983052019966,,,,
2025-04-30 00:16:39.684740,-0.026182989355469033,0.018018761694335916,-0.2084198473282442,0.0,0.0,-7.36173080314931e-05,2.167660626346155e-05,3.1422629202388865,-6.694630036625404e-05,-6.735659213152331e-06,-0.0002914312743549233,7.503859377450215e-05,3.1422694765054557,,,,
2025-04-30 00:16:39.698773,-0.021394586035156316,0.027595568334960907,0.04348854961832066,0.0,0.0,-7.36173080314931e-05,2.167660626346155e-05,3.1422735716038557,-5.355704029300323e-05,-5.388527370521866e-06,-0.0002923707370865845,7.494407173565448e-05,3.1422184296004603,,,,
2025-04-30 00:16:39.713717,-0.033365594335937665,-0.003529053247070313,-0.02521374045801522,0.0,0.0,-7.36173080314931e-05,2.167660626346155e-05,3.142266995271874,-4.284563223440259e-05,-4.3108218964174925e-06,-0.0002931710975958765,7.486354517020183e-05,3.142229772429191,,,,
2025-04-30 00:16:39.725548,0.007335833886718657,-0.022682666528320294,0.07402290076335882,0.0,0.0,-7.36173080314931e-05,2.167660626346155e-05,3.142282280003841,-3.427650578752207e-05,-3.4486575171339943e-06,-0.00029367799599015965,7.481254466948848e-05,3.1422245661313997,,,,
2025-04-30 00:16:39.737218,0.0025474305664059393,-0.003529053247070313,0.2572290076335878,0.0,0.0,-7.36173080314931e-05,2.167660626346155e-05,3.142334673964431,-2.7421204630017657e-05,-2.7589260137071956e-06,-0.00029407801484472845,7.477229762568665e-05,3.1422396435636886,,,,
2025-04-30 00:16:39.749253,-0.007029376074219051,0.0012593500732421825,0.02822137404580155,0.0,0.0,-7.36173080314931e-05,2.167660626346155e-05,3.142340601587091,-2.1936963704014127e-05,-2.2071408109657565e-06,-0.00029440801303391663,7.473909556177619e-05,3.1422936719923538,,,,
2025-04-30 00:16:39.760650,0.00015322890624958063,-0.032259473168945285,-0.2236870229007633,0.0,0.0,-7.36173080314931e-05,2.167660626346155e-05,3.142296104500695,-1.7549570963211302e-05,-1.7657126487726052e-06,-0.0002946580417752454,7.47139394532852e-05,3.1422992859475256,,,,
2025-04-30 00:16:39.772258,0.17492995009765577,-0.010711658227539056,-0.02521374045801522,0.0,0.0,-9.691805732517372e-05,2.3054900116945592e-05,3.1422909961973846,-0.002007279534289389,0.00011873528226346407,-0.00029486175936725993,7.469344284229957e-05,3.1422539669611758,,,,
2025-04-30 00:16:39.783763,-0.007029376074219051,-0.015500061547851551,-0.12445038167938932,0.0,0.0,-9.691805732517372e-05,2.3054900116945592e-05,3.142266007304482,-0.0016058236274315114,9.498822581077126e-05,-0.00031795480809420013,7.605945072116128e-05,3.142248904192774,,,,
2025-04-30 00:16:39.795542,0.05043146376953089,0.06350859323730473,-0.31529007633587786,0.0,0.0,-0.00012230619982300924,1.5512189503425857e-05,3.1422011901624756,-0.0021554041703352256,-0.0006403615354450709,-0.00033686953399142324,7.717830102575421e-05,3.142223319759049,,,,
2025-04-30 00:16:39.807660,0.009730035546874571,0.006047753393554678,0.24959541984732828,0.0,0.0,-0.00012230619982300924,1.5512189503425857e-05,3.1422539818616,-0.0017243233362681807,-0.0005122892283560567,-0.000362989967458804,6.941802983770072e-05,3.1421566330431747,,,,
2025-04-30 00:16:39.821331,0.028883648828124553,0.00365355173339843,0.28012977099236647,0.0,0.0,-0.00012230619982300924,1.5512189503425857e-05,3.142320820384518,-0.0013794586690145446,-0.0004098313826848454,-0.00038656264501824684,6.241468624011983e-05,3.142216186117918,,,,
2025-04-30 00:16:39.834501,-0.045336602636719014,-0.015500061547851551,-0.032847328244274776,0.0,0.0,-0.00012230619982300924,1.5512189503425857e-05,3.1423132700999337,-0.0011035669352116356,-0.00032786510614787634,-0.00040473012105662995,5.70172053355101e-05,3.1422805767275808,,,,
2025-04-30 00:16:39.847961,0.02170104384765592,0.00365355173339843,-0.08628244274809155,0.0,0.0,-0.00012230619982300924,1.5512189503425857e-05,3.142293000633965,-0.0008828535481693085,-0.0002622920849183011,-0.0004195840446938706,5.26041669464047e-05,3.1422728602353165,,,,
2025-04-30 00:16:39.861338,-0.035759795996094024,0.02520136667480466,0.08929007633587788,0.0,0.0,-0.00012230619982300924,1.5512189503425857e-05,3.1423138469810623,-0.0007062828385354468,-0.00020983366793464087,-0.00043139372305137335,4.909556105698271e-05,3.1422527160734592,,,,
2025-04-30 00:16:39.875461,-0.05970181259765672,0.02280716501464841,0.08929007633587788,0.0,0.0,-0.00012040835113182749,8.158568207320603e-06,3.142335856288742,0.00013438034905831624,-0.0005206854483209442,-0.00044136852941340285,4.613208793873082e-05,3.1422747253811387,,,,
2025-04-30 00:16:39.889470,-0.11237424912109395,0.12575783640136717,0.1274580152671756,0.0,0.0,-9.69321416696898e-05,-2.3159713140342e-05,3.1423670201756306,0.0016757949428483257,-0.0022355831159948714,-0.0004394859952551805,3.8837806081134886e-05,3.142296557086531,,,,
2025-04-30 00:16:39.902736,-0.00942357773437541,-0.013105859887695304,-0.048114503816793885,0.0,0.0,-9.69321416696898e-05,-2.3159713140342e-05,3.14235587989307,0.0013406359542786606,-0.0017884664927958972,-0.00041725475445576147,9.180366911206662e-06,3.1423260683189467,,,,
2025-04-30 00:16:39.915515,-0.014211981054687683,-0.013105859887695304,0.05112213740458016,0.0,0.0,-9.69321416696898e-05,-2.3159713140342e-05,3.1423672821613713,0.0010725087634229286,-0.0014307731942367178,-0.0004001224514206605,-1.3674868191890323e-05,3.142315336872463,,,,
2025-04-30 00:16:39.928351,-0.014211981054687683,0.029989769995117155,-0.13971755725190832,0.0,0.0,-9.69321416696898e-05,-2.3159713140342e-05,3.1423359812224443,0.000858007010738343,-0.0011446185553893743,-0.0003863557509609028,-3.204024352742071e-05,3.1423267897702387,,,,
2025-04-30 00:16:39.940793,-0.021394586035156316,-0.02747106984863279,-0.10154961832061066,0.0,0.0,-9.69321416696898e-05,-2.3159713140342e-05,3.1423139295543985,0.0006864056085906744,-0.0009156948443114995,-0.00037568053622792673,-4.628144285703404e-05,3.14229644987095,,,,
2025-04-30 00:16:39.953653,0.007335833886718657,0.041960778295898504,-0.10918320610687021,0.0,0.0,-9.69321416696898e-05,-2.3159713140342e-05,3.142289423796146,0.0005491244868725396,-0.0007325558754491996,-0.00036685348274869306,-5.805711493814062e-05,3.142273657442646,,,,
2025-04-30 00:16:39.966397,0.0647966737304686,-0.0011348515869140652,0.26486259541984736,0.0,0.0,-0.00010038778041086522,-3.213615516208313e-05,3.1423483377679746,-0.0002711490140058187,-0.0007043425501843999,-0.00035985520596158255,-6.739311961645233e-05,3.142249371581071,,,,
2025-04-30 00:16:39.979767,0.02648944716796864,0.010836156713867173,0.11982442748091604,0.0,0.0,-0.00010038778041086522,-3.213615516208313e-05,3.142376298439487,-0.00021691921120465496,-0.00056347404014752,-0.0003634804136857733,-7.681003770028474e-05,3.142311176474965,,,,
2025-04-30 00:16:39.992501,0.02170104384765592,-0.010711658227539056,-0.14735114503816787,0.0,0.0,-0.00010038778041086522,-3.213615516208313e-05,3.142343550391013,-0.000173535368963724,-0.000450779232118016,-0.0003662425973880585,-8.398514589707708e-05,3.1423378068493575,,,,
2025-04-30 00:16:40.005538,-0.002240972753906334,0.015624560034179669,0.4175343511450382,0.0,0.0,-0.00010038778041086522,-3.213615516208313e-05,3.1424385553167022,-0.0001388282951709792,-0.00036062338569441284,-0.00036850497214923586,-8.986193956569177e-05,3.1423042788664595,,,,
2025-04-30 00:16:40.018786,-0.026182989355469033,-0.0178942632080078,0.2343282442748092,0.0,0.0,-0.00010038778041086522,-3.213615516208313e-05,3.142492737818226,-0.00011106263613678337,-0.00028849870855553026,-0.00037034419788913595,-9.463955217385785e-05,3.142400823163487,,,,
2025-04-30 00:16:40.031797,0.01212423720703093,0.07308539987792972,0.19616030534351148,0.0,0.0,-0.0001038041658551919,-4.794302015632383e-05,3.142537285215623,-0.00026256269600881686,-0.0012148199188786763,-0.0003717893109203242,-9.83934090758416e-05,3.142454038381524,,,,
2025-04-30 00:16:40.044063,0.1557763368164058,-0.003529053247070313,0.012954198473282441,0.0,0.0,-0.00012992810371703704,-6.20470463204112e-05,3.1425400584056074,-0.002129839775097939,-0.0011498770236002076,-0.0003750098215125153,-0.00011329400415589121,3.1424960317009285,,,,
2025-04-30 00:16:40.057315,-0.0190003843750004,-0.013105859887695304,0.1427251908396947,0.0,0.0,-0.00012992810371703704,-6.20470463204112e-05,3.14257307010579,-0.0017038718200783514,-0.0009199016188801662,-0.00040323500835139103,-0.0001285324714867747,3.142499027949268,,,,
2025-04-30 00:16:40.071981,-0.016606182714844042,0.015624560034179669,0.3259312977099237,0.0,0.0,-0.00012992810371703704,-6.20470463204112e-05,3.1426564991939725,-0.0013630974560626813,-0.000735921295104133,-0.00042822412958349525,-0.00014202382265821923,3.1425355615151336,,,,
2025-04-30 00:16:40.085897,0.009730035546874571,-0.0011348515869140652,-0.1931526717557252,0.0,0.0,-0.00012992810371703704,-6.20470463204112e-05,3.1426095878242584,-0.0010904779648501452,-0.0005887370360833065,-0.00044719236510494396,-0.00015226456398503957,3.1426147210911792,,,,
2025-04-30 00:16:40.098712,-0.00942357773437541,0.10899842478027344,-0.078648854961832,0.0,0.0,-0.0001420887324301068,-8.698067716291619e-05,3.1425919972403524,-0.0009489548392294435,-0.0019456962469486326,-0.00046116657873674803,-0.00015980908792809226,3.1425715206112637,,,,
2025-04-30 00:16:40.111341,-0.033365594335937665,0.008441955053710926,0.24196183206106875,0.0,0.0,-0.0001420887324301068,-8.698067716291619e-05,3.1426453320436294,-0.0007591638713835549,-0.001556556997558906,-0.0004731514123929785,-0.00018438227613604355,3.142554184318297,,,,
2025-04-30 00:16:40.124828,-0.002240972753906334,-0.17591157277832026,-0.0939160305343511,0.0,0.0,-0.00015175570667713928,-7.619518078081942e-05,3.1426232247442325,-0.0007167570356949077,0.0007996897703232163,-0.0004833903318991221,-0.00020537571695361656,3.1426111407572948,,,,
2025-04-30 00:16:40.137844,-0.026182989355469033,0.05632598825683599,0.02822137404580155,0.0,0.0,-0.00015654161898127515,-7.534160330714134e-05,3.1426296357271997,-0.0003677016984335845,6.558036730945612e-05,-0.000492719460186594,-0.00019496715716837328,3.142589806074188,,,,
2025-04-30 00:16:40.150739,-0.021394586035156316,0.020412963354492164,0.18089312977099237,0.0,0.0,-0.00015654161898127515,-7.534160330714134e-05,3.1426703479111073,-0.00029416135874686764,5.24642938475649e-05,-0.0004974610130309941,-0.0001941214912971586,3.14259615763531,,,,
2025-04-30 00:16:40.163827,-0.016606182714844042,0.013230358374023421,0.1427251908396947,0.0,0.0,-0.00015654161898127515,-7.534160330714134e-05,3.1427029498157895,-0.0002353290869974941,4.197143507805192e-05,-0.0005013109232013228,-0.00019343485176257354,3.1426374780254926,,,,
2025-04-30 00:16:40.176924,-0.00942357773437541,-0.013105859887695304,0.28012977099236647,0.0,0.0,-0.00015654161898127515,-7.534160330714134e-05,3.142766982563848,-0.0001882632695979953,3.357714806244154e-05,-0.0005043929833969945,-0.00019288515987764875,3.1426701024986223,,,,
2025-04-30 00:16:40.190393,0.028883648828124553,0.0012593500732421825,-0.08628244274809155,0.0,0.0,-0.00015654161898127515,-7.534160330714134e-05,3.142746699095414,-0.00015061061567839626,2.6861718449953232e-05,-0.0005069287426439802,-0.00019243290191002418,3.1427359560278734,,,,
2025-04-30 00:16:40.203813,0.00015322890624958063,0.02520136667480466,0.4099007633587787,0.0,0.0,-0.00015654161898127515,-7.534160330714134e-05,3.1428427098147123,-0.00012048849254271701,2.148937475996259e-05,-0.0005089499888259263,-0.00019207240842413726,3.142715746162141,,,,
2025-04-30 00:16:40.216979,0.016912640527343648,0.00365355173339843,-0.11681679389312977,0.0,0.0,-0.00015654161898127515,-7.534160330714134e-05,3.142815867064341,-9.639079403417361e-05,1.719149980797007e-05,-0.0005105363056610201,-0.0001917894854973251,3.1428099352209333,,,,
2025-04-30 00:16:40.233019,0.01212423720703093,0.12575783640136717,0.3640992366412214,0.0,0.0,-0.00016107178180756329,-0.00010678380510900647,3.1429177974925433,-0.00028242757648158607,-0.001960226418930245,-0.0005120824223588649,-0.00019151373234910772,3.142777232087764,,,,
2025-04-30 00:16:40.248058,-0.004635174414062693,0.11378682810058593,0.18852671755725192,0.0,0.0,-0.00016417217924019262,-0.00016089181942525318,3.1429672811052067,-0.00020616087247755753,-0.0035979114555018607,-0.0005163297740629209,-0.00022099304568139433,3.142872799155554,,,,
2025-04-30 00:16:40.263899,-0.026182989355469033,0.00365355173339843,-0.02521374045801522,0.0,0.0,-0.00016417217924019262,-0.00016089181942525318,3.1429603100674033,-0.00016492869798204603,-0.0028783291644014887,-0.0005195955699349306,-0.0002779875870704912,3.142924922595042,,,,
2025-04-30 00:16:40.277028,-0.0190003843750004,-0.032259473168945285,-0.2771221374045801,0.0,0.0,-0.00016417217924019262,-0.00016089181942525318,3.142896807982145,-0.00013194295838563682,-0.002302663331521191,-0.000521760957455834,-0.000315777845102637,3.142919144907589,,,,
2025-04-30 00:16:40.289780,-0.014211981054687683,0.018018761694335916,0.2572290076335878,0.0,0.0,-0.00016417217924019262,-0.00016089181942525318,3.1429540593206826,-0.00010555436670850946,-0.001842130665216953,-0.0005234435329237001,-0.0003451420861335861,3.1428574659645694,,,,
2025-04-30 00:16:40.302380,0.048037262109374534,0.010836156713867173,-0.08628244274809155,0.0,0.0,-0.00016417217924019262,-0.00016089181942525318,3.142935084903226,-8.444349336680758e-05,-0.0014737045321735623,-0.0005247735121459528,-0.00036835283132406,3.142914033331201,,,,
2025-04-30 00:16:40.315504,0.0025474305664059393,-0.013105859887695304,0.21142748091603053,0.0,0.0,-0.00016417217924019262,-0.00016089181942525318,3.1429835129300616,-6.755479469344607e-05,-0.00117896362573885,-0.0005258817275000082,-0.00038769336219008537,3.1428942701082048,,,,
2025-04-30 00:16:40.327733,0.004941632226562298,-0.010711658227539056,0.08165648854961832,0.0,0.0,-0.00016417217924019262,-0.00016089181942525318,3.1430009410014232,-5.404383575475686e-05,-0.00094317090059108,-0.0005267078366648712,-0.00040211058691384674,3.142939395404316,,,,
2025-04-30 00:16:40.341234,-0.026182989355469033,0.12336363474121093,0.2343282442748092,0.0,0.0,-0.00016017777297604058,-0.00019540135309122406,3.143056158067241,0.0002958563638369359,-0.002556040741211349,-0.0005274374915327874,-0.0004148444950327317,3.1429586369247597,,,,
2025-04-30 00:16:40.354123,0.00015322890624958063,-0.03465367482910153,0.020587786259541996,0.0,0.0,-0.00016017777297604058,-0.00019540135309122406,3.1430607892841427,0.00023668509106954873,-0.0020448325929690796,-0.0005236242965014638,-0.00044778846057007575,3.1430113489993703,,,,
2025-04-30 00:16:40.366767,-0.016606182714844042,0.010836156713867173,-0.05574809160305344,0.0,0.0,-0.00016017777297604058,-0.00019540135309122406,3.143048486775942,0.000189348072855639,-0.0016358660743752637,-0.000520631637782713,-0.0004736434312405205,3.143015892319186,,,,
2025-04-30 00:16:40.379429,0.02170104384765592,0.006047753393554678,-0.13208396946564888,0.0,0.0,-0.00016017777297604058,-0.00019540135309122406,3.1430192961184935,0.0001514784582845112,-0.001308692859500211,-0.0005182340347121289,-0.0004943574393834854,3.143003571948652,,,,
2025-04-30 00:16:40.391840,-0.0190003843750004,0.02520136667480466,-0.05574809160305344,0.0,0.0,-0.00016017777297604058,-0.00019540135309122406,3.1430072200211696,0.00012118276662760896,-0.0010469542876001688,-0.0005163539816442262,-0.0005106000923211367,3.14297496004779,,,,
2025-04-30 00:16:40.404870,0.016912640527343648,0.02520136667480466,0.05112213740458016,0.0,0.0,-0.00016017777297604058,-0.00019540135309122406,3.1430188452293435,9.694621330208718e-05,-0.0008375634300801351,-0.0005147750794400308,-0.0005242409628705231,3.142962282894543,,,,
2025-04-30 00:16:40.418315,-0.03815399765625038,0.0012593500732421825,0.06638931297709927,0.0,0.0,-0.00016017777297604058,-0.00019540135309122406,3.143034424827021,7.755697064166974e-05,-0.0006700507440641081,-0.0005134715779057665,-0.0005355025189330711,3.142974279740081,,,,
2025-04-30 00:16:40.431852,-0.007029376074219051,0.0012593500732421825,-0.15498473282442743,0.0,0.0,-0.00016017777297604058,-0.00019540135309122406,3.1429978068690936,6.20455765133358e-05,-0.0005360405952512865,-0.0005124216761256229,-0.0005445731087608985,3.1429899654210196,,,,
2025-04-30 00:16:40.444635,-0.002240972753906334,0.006047753393554678,0.05112213740458016,0.0,0.0,-0.00016017777297604058,-0.00019540135309122406,3.143009212541057,4.9636461210668646e-05,-0.0004288324762010292,-0.0005116285443854489,-0.0005514253427799379,3.1429553873475733,,,,
2025-04-30 00:16:40.460059,-0.035759795996094024,-0.0011348515869140652,0.1503587786259542,0.0,0.0,-0.00016017777297604058,-0.00019540135309122406,3.1430496884704935,3.970916896853492e-05,-0.0003430659809608234,-0.0005108629627898753,-0.0005580395582851557,3.1429691492046805,,,,
2025-04-30 00:16:40.474442,0.028883648828124553,-0.0011348515869140652,-0.08628244274809155,0.0,0.0,-0.00016017777297604058,-0.00019540135309122406,3.143028028452019,3.176733517482794e-05,-0.00027445278476865876,-0.0005102918132629136,-0.0005629739847119012,3.1430068947044494,,,,
2025-04-30 00:16:40.488628,0.01212423720703093,-0.022682666528320294,0.34883206106870235,0.0,0.0,-0.00016017777297604058,-0.00019540135309122406,3.1431143916916233,2.541386813986235e-05,-0.00021956222781492702,-0.0005098411875712859,-0.0005668671496649855,3.142985533046195,,,,
2025-04-30 00:16:40.502653,-0.004635174414062693,-0.003529053247070313,-0.08628244274809155,0.0,0.0,-0.00016017777297604058,-0.00019540135309122406,3.143093270947578,2.0331094511889884e-05,-0.00017564978225194163,-0.0005094847526998041,-0.0005699465563111038,3.1430709222915847,,,,
2025-04-30 00:16:40.516507,0.02648944716796864,0.027595568334960907,-0.2084198473282442,0.0,0.0,-0.00016017777297604058,-0.00019540135309122406,3.143042873631122,1.6264875609511908e-05,-0.0001405198258015533,-0.0005092030754770549,-0.0005723800968572017,3.1430500586184387,,,,
2025-04-30 00:16:40.529253,-0.00942357773437541,-0.008317456567382808,0.05112213740458016,0.0,0.0,-0.00016017777297604058,-0.00019540135309122406,3.1430542456919213,1.3011900487609527e-05,-0.00011241586064124265,-0.0005089957734502268,-0.0005741710754910106,3.1430036958625776,,,,
2025-04-30 00:16:40.542483,-0.011817779394531325,0.010836156713867173,0.08929007633587788,0.0,0.0,-0.00016017777297604058,-0.00019540135309122406,3.1430748631624312,1.0409520390087623e-05,-8.993268851299413e-05,-0.0005088236279981905,-0.0005756583201225353,3.1430155001884734,,,,
2025-04-30 00:16:40.555814,0.03127785048828091,0.02280716501464841,-0.13971755725190832,0.0,0.0,-0.00016017777297604058,-0.00019540135309122406,3.143042355255392,8.3276163120701e-06,-7.19461508103953e-05,-0.0005086848593435838,-0.0005768572070762505,3.1430362751974137,,,,
2025-04-30 00:16:40.568912,0.019306842187499562,-0.003529053247070313,0.18089312977099237,0.0,0.0,-0.00016017777297604058,-0.00019540135309122406,3.143083708012988,6.662093049656079e-06,-5.7556920648316245e-05,-0.0005085757842128026,-0.0005777995578660528,3.143004335309568,,,,
2025-04-30 00:16:40.582254,-0.002240972753906334,0.05872018991699224,0.10455725190839699,0.0,0.0,-0.00015968414940160084,-0.00020639834546808353,3.1431080569704526,3.699534223370253e-05,-0.0008241857107110145,-0.0005084868928555164,-0.0005785675316483924,3.1430464611214273,,,,
2025-04-30 00:16:40.595379,0.019306842187499562,0.00365355173339843,0.035854961832061105,0.0,0.0,-0.00015968414940160084,-0.00020639834546808353,3.143116269943222,2.9596273786962027e-05,-0.0006593485685688116,-0.0005080013575667203,-0.0005893843324376317,3.143070411108232,,,,
2025-04-30 00:16:40.609591,0.02648944716796864,-0.008317456567382808,-0.11681679389312977,0.0,0.0,-0.00015968414940160084,-0.00020639834546808353,3.143087292255786,2.3677019029569625e-05,-0.0005274788548550493,-0.0005075807102628381,-0.0005987555526014759,3.1430793053249144,,,,
2025-04-30 00:16:40.622988,0.0025474305664059393,-0.015500061547851551,-0.18551908396946565,0.0,0.0,-0.00015968414940160084,-0.00020639834546808353,3.143043917015009,1.89416152236557e-05,-0.0004219830838840395,-0.0005072635323310014,-0.000605821672371941,3.143051993005052,,,,
2025-04-30 00:16:40.635961,-0.002240972753906334,0.0371723749755859,0.10455725190839699,0.0,0.0,-0.00015968414940160084,-0.00020639834546808353,3.1430675924647513,1.5153292178924562e-05,-0.0003375864671072316,-0.0005070177878799529,-0.0006112963903448476,3.143009984940871,,,,
2025-04-30 00:16:40.648815,-0.0190003843750004,0.008441955053710926,0.005320610687022942,0.0,0.0,-0.00015968414940160084,-0.00020639834546808353,3.1430687860579436,1.212263374313965e-05,-0.00027006917368578527,-0.0005068230167964411,-0.0006156355188458379,3.1430334406739466,,,,
2025-04-30 00:16:40.661285,-0.035759795996094024,-0.0011348515869140652,-0.13971755725190832,0.0,0.0,-0.00015968414940160084,-0.00020639834546808353,3.143038375810321,9.698106994511722e-06,-0.00021605533894862822,-0.0005066718387987163,-0.0006190034764852481,3.14303459873233,,,,
2025-04-30 00:16:40.674466,-0.016606182714844042,0.018018761694335916,0.09692366412213743,0.0,0.0,-0.00015968414940160084,-0.00020639834546808353,3.1430606728263064,7.758485595609378e-06,-0.00017284427115890258,-0.0005065440106424633,-0.0006218512441621823,3.143002457101741,,,,
2025-04-30 00:16:40.687552,-0.007029376074219051,-0.010711658227539056,0.22669465648854964,0.0,0.0,-0.00015968414940160084,-0.00020639834546808353,3.143112446909216,6.206788476487503e-06,-0.00013827541692712207,-0.0005064424861745384,-0.000624113015798801,3.1430245931939624,,,,
2025-04-30 00:16:40.700501,-0.0190003843750004,-0.03465367482910153,0.3259312977099237,0.0,0.0,-0.00015968414940160084,-0.00020639834546808353,3.1431861081999366,4.965430781190003e-06,-0.00011062033354169766,-0.0005063621145334425,-0.0006259035427716064,3.1430758267548806,,,,
2025-04-30 00:16:40.714459,0.01212423720703093,0.02280716501464841,-0.0939160305343511,0.0,0.0,-0.00015968414940160084,-0.00020639834546808353,3.143163228675052,3.9723446249520025e-06,-8.849626683335813e-05,-0.0005062928059794882,-0.0006274476052494809,3.143155229101788,,,,
2025-04-30 00:16:40.726076,-0.03815399765625038,0.029989769995117155,0.2572290076335878,0.0,0.0,-0.00015968414940160084,-0.00020639834546808353,3.1432153818004642,3.1778756999616023e-06,-7.079701346668651e-05,-0.0005062466604164803,-0.0006284756404384392,3.143136187647001,,,,
2025-04-30 00:16:40.739196,-0.0405481993164063,-0.020288464868164047,0.46333587786259545,0.0,0.0,-0.00015968414940160084,-0.00020639834546808353,3.1433214792671675,2.542300559969282e-06,-5.6637610773349214e-05,-0.0005062049668907146,-0.0006294044927233614,3.143195089509293,,,,
2025-04-30 00:16:40.753817,-0.021394586035156316,-0.008317456567382808,-0.26948854961832064,0.0,0.0,-0.00015968414940160084,-0.00020639834546808353,3.1432527064868876,2.0338404479754256e-06,-4.5310088618679376e-05,-0.0005061677940466047,-0.0006302326328375516,3.1433133316259583,,,,
2025-04-30 00:16:40.767591,0.0025474305664059393,0.015624560034179669,-0.1778854961832061,0.0,0.0,-0.00015968414940160084,-0.00020639834546808353,3.1432099420337836,1.6270723583803406e-06,-3.62480708949435e-05,-0.000506139779609835,-0.0006308567410924055,3.1432485453972356,,,,
2025-04-30 00:16:40.780561,0.17253574843749986,-0.02747106984863279,0.05112213740458016,0.0,0.0,-0.00018811222420348807,-0.00020237696482322307,3.1432215140597357,-0.0021919185972619363,0.0003100645781878152,-0.0005061186773048635,-0.0006313268602255305,3.1432082791704525,,,,
2025-04-30 00:16:40.793469,-0.0190003843750004,-0.0178942632080078,-0.14735114503816787,0.0,0.0,-0.00018811222420348807,-0.00020237696482322307,3.143188317181074,-0.0017535348778095492,0.0002480516625502522,-0.0005344124454185621,-0.0006273244783458036,3.143219796525081,,,,
2025-04-30 00:16:40.807309,0.01212423720703093,0.008441955053710926,-0.23895419847328242,0.0,0.0,-0.00018811222420348807,-0.00020237696482322307,3.1431305961138087,-0.0014028279022476394,0.00019844133004020176,-0.0005586817162336591,-0.0006238913940936745,3.14318420281964,,,,
2025-04-30 00:16:40.821426,0.0025474305664059393,0.00365355173339843,0.34883206106870235,0.0,0.0,-0.00018811222420348807,-0.00020237696482322307,3.143216544208338,-0.0011222623217981116,0.0001587530640321614,-0.0005784854412187782,-0.0006210899973439372,3.1431253273310293,,,,
2025-04-30 00:16:40.834451,0.016912640527343648,0.008441955053710926,-0.4603282442748092,0.0,0.0,-0.00018811222420348807,-0.00020237696482322307,3.143111903568543,-0.0008978098574384893,0.00012700245122572915,-0.0005931021562006172,-0.0006190223450273791,3.143204622943465,,,,
2025-04-30 00:16:40.847313,0.014518438867187289,0.010836156713867173,-0.0939160305343511,0.0,0.0,-0.00018811222420348807,-0.00020237696482322307,3.143090820171361,-0.0007182478859507914,0.00010160196098058332,-0.0006046501851462894,-0.0006173887831202839,3.1431012829369425,,,,
2025-04-30 00:16:40.860482,-0.021394586035156316,-0.0178942632080078,0.3259312977099237,0.0,0.0,-0.00018811222420348807,-0.00020237696482322307,3.14316573329172,-0.0005745983087606332,8.128156878446667e-05,-0.0006141088276243959,-0.0006160507817940179,3.1430796969679102,,,,
2025-04-30 00:16:40.873365,-0.007029376074219051,-0.025076868188476542,-0.26948854961832064,0.0,0.0,-0.00018811222420348807,-0.00020237696482322307,3.143105137708052,-0.0004596786470085066,6.502525502757334e-05,-0.0006215114847069988,-0.0006150036161973331,3.1431529839303747,,,,
2025-04-30 00:16:40.886689,0.1461995301757808,0.029989769995117155,0.020587786259541996,0.0,0.0,-0.0002195411791419888,-0.00020678389823995284,3.143109925272108,-0.0023588610588786306,-0.0003307568974576498,-0.0006276361436514681,-0.0006141372337529607,3.1430903160127324,,,,
2025-04-30 00:16:40.899822,0.02170104384765592,-0.020288464868164047,0.07402290076335882,0.0,0.0,-0.0002195411791419888,-0.00020678389823995284,3.143126892735338,-0.0018870888471029046,-0.0002646055179661198,-0.0006586157439447062,-0.0006184811591566641,3.143095035126719,,,,
2025-04-30 00:16:40.912502,0.028883648828124553,-0.010711658227539056,-0.31529007633587786,0.0,0.0,-0.0002195411791419888,-0.00020678389823995284,3.1430571176146325,-0.0015096710776823239,-0.00021168441437289587,-0.0006825436819662405,-0.0006218363082498133,3.143111416729641,,,,
2025-04-30 00:16:40.925807,-0.04773080429687537,0.02280716501464841,-0.009946564885496112,0.0,0.0,-0.0002309394344386192,-0.00021348871394221428,3.143054807830052,-0.0008566775576762021,-0.0005039249421076219,-0.0007026301383034874,-0.0006246528090157315,3.143038200281037,,,,
2025-04-30 00:16:40.939074,-0.026182989355469033,0.008441955053710926,0.058755725190839714,0.0,0.0,-0.0002309394344386192,-0.00021348871394221428,3.1430684126813926,-0.0006853420461409617,-0.0004031399536860976,-0.0007139955096969039,-0.000631338281361937,3.143035897160172,,,,
2025-04-30 00:16:40.951863,0.007335833886718657,-0.0011348515869140652,-0.2084198473282442,0.0,0.0,-0.0002309394344386192,-0.00021348871394221428,3.1430218912143126,-0.0005482736369127694,-0.0003225119629488781,-0.0007227603566648507,-0.0006364940426648077,3.1430490120461596,,,,
2025-04-30 00:16:40.964024,-0.04773080429687537,-0.022682666528320294,0.11219083969465649,0.0,0.0,-0.00023056068649847882,-0.0002140348415037235,3.1430457036950967,3.1144431162832974e-05,-4.4908052144772005e-05,-0.000729427921390252,-0.0006404161159561413,3.143004774979898,,,,
2025-04-30 00:16:40.976814,0.15817053847656215,0.0371723749755859,0.18089312977099237,0.0,0.0,-0.00025551607517032386,-0.00022059428027422907,3.143086082419376,-0.0019512422222447343,-0.000512877360939668,-0.0007290296000666503,-0.0006409904669429085,3.143029818070193,,,,
2025-04-30 00:16:40.991639,-0.057307610937500364,-0.07056669973144525,-0.08628244274809155,0.0,0.0,-0.00027154395598852246,-0.00021282793440185243,3.1430637567452484,-0.0010811135799313895,0.000523856028398778,-0.0007579574374059615,-0.0006485940502926014,3.143076624360541,,,,
2025-04-30 00:16:41.005175,-0.030971392675781306,0.046749181616211,-0.3534580152671755,0.0,0.0,-0.0002803124515609092,-0.00021426549700838017,3.142980251752941,-0.0006477804676925418,-0.00010620122572980534,-0.000772591623077912,-0.0006415030225529954,3.14305624000255,,,,
2025-04-30 00:16:41.016451,-0.04773080429687537,0.0012593500732421825,0.4022671755725191,0.0,0.0,-0.0002803124515609092,-0.00021426549700838017,3.1430594159704275,-0.0005182243741540335,-8.496098058384428e-05,-0.0007798956910850434,-0.0006427004976450344,3.142986681189671,,,,
2025-04-30 00:16:41.027912,0.09352709365234357,-0.008317456567382808,-0.2618549618320611,0.0,0.0,-0.00029817408941158866,-0.0002141661028058831,3.143007036460917,-0.0015584684962587855,8.67237005908566e-06,-0.0007858350707508851,-0.0006436742371016035,3.143067147709004,,,,
2025-04-30 00:16:41.039368,0.02409524550781228,-0.03465367482910153,0.06638931297709927,0.0,0.0,-0.00029817408941158866,-0.0002141661028058831,3.1430203109577337,-0.0012467747970070285,6.937896047268529e-06,-0.0008036892772446755,-0.0006435748842521894,3.1430147899920544,,,,
2025-04-30 00:16:41.051486,0.00015322890624958063,0.02280716501464841,-0.1931526717557252,0.0,0.0,-0.00029817408941158866,-0.0002141661028058831,3.1429794598239043,-0.000997419837605623,5.550316837814824e-06,-0.0008187975230543925,-0.0006434908117804519,3.1430288311061876,,,,
2025-04-30 00:16:41.068421,0.0408546571289059,-0.010711658227539056,-0.05574809160305344,0.0,0.0,-0.00029817408941158866,-0.0002141661028058831,3.1429629826331933,-0.0007979358700844984,4.440253470251859e-06,-0.0008356884622055102,-0.0006433968192003544,3.1429717419159156,,,,
2025-04-30 00:16:41.081298,0.02648944716796864,0.02280716501464841,0.3411984732824428,0.0,0.0,-0.00029817408941158866,-0.0002141661028058831,3.1430396669866707,-0.0006383486960675988,3.5522027762014875e-06,-0.0008459636626390348,-0.000643339641053472,3.1429592125328822,,,,
2025-04-30 00:16:41.095080,-0.004635174414062693,0.018018761694335916,0.10455725190839699,0.0,0.0,-0.00029817408941158866,-0.0002141661028058831,3.143064817801197,-0.000510678956854079,2.8417622209611903e-06,-0.0008547615521276317,-0.0006432906836612839,3.1430412864145265,,,,
2025-04-30 00:16:41.108398,-0.045336602636719014,-0.015500061547851551,0.24959541984732828,0.0,0.0,-0.00029817408941158866,-0.0002141661028058831,3.1431228347661797,-0.00040854316548326325,2.273409776768952e-06,-0.0008615628060495861,-0.0006432528368963228,3.14306559012341,,,,
2025-04-30 00:16:41.122083,-0.0190003843750004,-0.0011348515869140652,0.05112213740458016,0.0,0.0,-0.00029817408941158866,-0.0002141661028058831,3.143135044766062,-0.0003268345323866106,1.8187278214151618e-06,-0.0008671535195670714,-0.0006432217263948052,3.1431252034377515,,,,
2025-04-30 00:16:41.137184,0.004941632226562298,-0.003529053247070313,-0.18551908396946565,0.0,0.0,-0.00029817408941158866,-0.0002141661028058831,3.1430861475522787,-0.0002614676259092885,1.4549822571321295e-06,-0.000872089189294723,-0.0006431942609988281,3.1431386776854042,,,,
2025-04-30 00:16:41.150226,0.03127785048828091,-0.013105859887695304,-0.10918320610687021,0.0,0.0,-0.00029817408941158866,-0.0002141661028058831,3.1430612946843945,-0.00020917410072743083,1.1639858057057037e-06,-0.0008754992430420169,-0.0006431752851593492,3.14309644883494,,,,
2025-04-30 00:16:41.162763,-0.002240972753906334,0.02520136667480466,0.2572290076335878,0.0,0.0,-0.00029817408941158866,-0.0002141661028058831,3.1431175805414626,-0.0001673392805819447,9.31188644564563e-07,-0.0008781217091500415,-0.0006431606919888034,3.1430725577878547,,,,
2025-04-30 00:16:41.175878,0.009730035546874571,0.03477817331542965,0.13509160305343515,0.0,0.0,-0.00029817408941158866,-0.0002141661028058831,3.143148502271059,-0.00013387142446555575,7.449509156516504e-07,-0.0008803163120703284,-0.0006431484797376715,3.1431314361018177,,,,
2025-04-30 00:16:41.189358,0.0025474305664059393,0.013230358374023421,0.020587786259541996,0.0,0.0,-0.00029817408941158866,-0.0002141661028058831,3.1431533460344214,-0.0001070971395724446,5.959607325213204e-07,-0.0008821209238341114,-0.0006431384376604232,3.143163219594671,,,,
2025-04-30 00:16:41.202671,-0.10279744248046896,-0.008317456567382808,0.012954198473282441,0.0,0.0,-0.00028171848072869034,-0.00021268572767339203,3.1431563560285034,0.001236050525996438,0.00011119725173638159,-0.0008835467139477001,-0.0006431305036023904,3.143168003303592,,,,
2025-04-30 00:16:41.215018,-0.026182989355469033,-0.03944207814941403,-0.02521374045801522,0.0,0.0,-0.00028171848072869034,-0.00021268572767339203,3.143150922790602,0.0009888404207971505,8.895780138910527e-05,-0.0008682858085653708,-0.0006417576060534362,3.1431707947673275,,,,
2025-04-30 00:16:41.228486,0.0025474305664059393,0.008441955053710926,-0.14735114503816787,0.0,0.0,-0.00028171848072869034,-0.00021268572767339203,3.1431162849953553,0.0007910723366377205,7.116624111128422e-05,-0.0008549676074499409,-0.0006405594775538635,3.143164867779932,,,,
2025-04-30 00:16:41.241256,-0.033365594335937665,0.006047753393554678,0.2953969465648855,0.0,0.0,-0.00028171848072869034,-0.00021268572767339203,3.143182121085793,0.0006328578693101765,5.693299288902738e-05,-0.0008448658517473699,-0.0006396507060690307,3.143132027144903,,,,
2025-04-30 00:16:41.254011,-0.014211981054687683,-0.0011348515869140652,0.035854961832061105,0.0,0.0,-0.00028171848072869034,-0.00021268572767339203,3.143190103098077,0.0005062862954481412,4.5546394311221906e-05,-0.0008367936511748255,-0.0006389245168880438,3.1431977882539828,,,,
2025-04-30 00:16:41.268824,0.0025474305664059393,-0.02747106984863279,-0.23895419847328242,0.0,0.0,-0.00028171848072869034,-0.00021268572767339203,3.1431283261439313,0.000405029036358513,3.643711544897752e-05,-0.0008292941801660723,-0.0006382498514531679,3.1432070578560536,,,,
2025-04-30 00:16:41.281972,0.014518438867187289,0.02280716501464841,-0.032847328244274776,0.0,0.0,-0.00028171848072869034,-0.00021268572767339203,3.1431207882975865,0.0003240232290868104,2.914969235918202e-05,-0.0008239687337279745,-0.0006377707650438899,3.1431522223449844,,,,
2025-04-30 00:16:41.297912,0.1605647401367185,0.0012593500732421825,0.08165648854961832,0.0,0.0,-0.00031663813430965856,-0.00021260596272311676,3.143143505850278,-0.0021906674248896056,5.004015226291181e-06,-0.0008188037420987827,-0.000637306113427853,3.143143083929613,,,,
2025-04-30 00:16:41.310503,-0.021394586035156316,-0.010711658227539056,0.06638931297709927,0.0,0.0,-0.00031663813430965856,-0.00021260596272311676,3.1431580947850017,-0.0017525339399116846,4.003212181032945e-06,-0.0008463856617786617,-0.0006372431096398382,3.143161027799308,,,,
2025-04-30 00:16:41.323498,-0.026182989355469033,0.006047753393554678,-0.1778854961832061,0.0,0.0,-0.00031663813430965856,-0.00021260596272311676,3.1431177486149764,-0.0014020271519293477,3.202569744826356e-06,-0.0008691602663206372,-0.0006371910869244748,3.143176085544693,,,,
2025-04-30 00:16:41.337741,0.0025474305664059393,-0.003529053247070313,-0.4832290076335877,0.0,0.0,-0.00031663813430965856,-0.00021260596272311676,3.1429976229851264,-0.0011216217215434781,2.562055795861085e-06,-0.0008891295155825551,-0.000637145472320346,3.1431318650882787,,,,
2025-04-30 00:16:41.351269,0.03127785048828091,-0.010711658227539056,-0.2084198473282442,0.0,0.0,-0.00031663813430965856,-0.00021260596272311676,3.1429484129673493,-0.0008972973772347825,2.049644636688868e-06,-0.0009043029360361269,-0.0006371108125513085,3.143017769869609,,,,
2025-04-30 00:16:41.363586,-0.033365594335937665,0.008441955053710926,-0.3610916030534351,0.0,0.0,-0.00031663813430965856,-0.00021260596272311676,3.1428707931814928,-0.0007178379017878261,1.6397157093510946e-06,-0.000915354254184071,-0.0006370855686627774,3.142972968207701,,,,
2025-04-30 00:16:41.376645,-0.05012500595703129,-0.003529053247070313,0.3411984732824428,0.0,0.0,-0.0003174481166087534,-0.0002119837628663814,3.142948563675394,-6.202190735034863e-05,4.7643043447943334e-05,-0.000924728941595458,-0.0006370641546051183,3.142890663407088,,,,
2025-04-30 00:16:41.389709,0.016912640527343648,0.0323839716552734,0.1503587786259542,0.0,0.0,-0.0003174481166087534,-0.0002119837628663814,3.1429828454587008,-4.961752588027891e-05,3.811443475835467e-05,-0.0009255391604893532,-0.0006364417730045954,3.1429684566176515,,,,
2025-04-30 00:16:41.402543,0.019306842187499562,-0.010711658227539056,0.17325954198473287,0.0,0.0,-0.0003174481166087534,-0.0002119837628663814,3.143021655044241,-3.969402070422313e-05,3.049154780668374e-05,-0.0009261759553945712,-0.0006359526096003591,3.1430021365051424,,,,
2025-04-30 00:16:41.414979,0.02170104384765592,0.013230358374023421,-0.28475572519083964,0.0,0.0,-0.0003174481166087534,-0.0002119837628663814,3.1429598494892894,-3.175521656337851e-05,2.4393238245346992e-05,-0.0009266695867860803,-0.0006355734193619794,3.1430397420779044,,,,
2025-04-30 00:16:41.428748,0.15338213515624988,0.02280716501464841,0.005320610687022942,0.0,0.0,-0.0003463688357893408,-0.00021593111978139465,3.142961128122482,-0.002100399780821693,-0.000286681238711521,-0.0009271068291192465,-0.0006352375452109534,3.1429713104366166,,,,
2025-04-30 00:16:41.441886,-0.007029376074219051,0.018018761694335916,-0.13971755725190832,0.0,0.0,-0.0003463688357893408,-0.00021593111978139465,3.1429290899795252,-0.0016803198246573546,-0.0002293449909692168,-0.0009547024994192439,-0.000639004047672491,3.1429725304871896,,,,
2025-04-30 00:16:41.460802,0.15338213515624988,0.013230358374023421,-0.009946564885496112,0.0,0.0,-0.00043129408001814487,-0.00022489343335056454,3.142925806216327,-0.0044896807528529824,-0.0004738040743707129,-0.0009864868465358728,-0.0006433422579914178,3.142926404072899,,,,
2025-04-30 00:16:41.479070,-0.002240972753906334,0.00365355173339843,-0.16261832061068698,0.0,0.0,-0.00043129408001814487,-0.00022489343335056454,3.1428739558589145,-0.0035917446022823863,-0.00037904325949657036,-0.001068506961912967,-0.0006519979880945724,3.1429232326409076,,,,
2025-04-30 00:16:41.491178,0.02170104384765592,0.027595568334960907,-0.21605343511450376,0.0,0.0,-0.00043129408001814487,-0.00022489343335056454,3.142828301748206,-0.002873395681825909,-0.0003032346075972563,-0.0011119926946229711,-0.0006565871155780584,3.1428888698694553,,,,
2025-04-30 00:16:41.502784,-0.026182989355469033,-0.032259473168945285,0.09692366412213743,0.0,0.0,-0.00043129408001814487,-0.00022489343335056454,3.1428479356573877,-0.0022987165454607275,-0.00024258768607780506,-0.0011453426318680938,-0.000660106594359864,3.1428451037411125,,,,
2025-04-30 00:16:41.514253,0.014518438867187289,0.018018761694335916,-0.21605343511450376,0.0,0.0,-0.00043129408001814487,-0.00022489343335056454,3.1428046864765973,-0.001838973236368582,-0.00019407014886224405,-0.0011717074490429896,-0.0006628889208737407,3.142864505742614,,,,
2025-04-30 00:16:41.525645,-0.04773080429687537,-0.008317456567382808,0.1503587786259542,0.0,0.0,-0.00043129408001814487,-0.00022489343335056454,3.142834581678236,-0.0014711785890948658,-0.00015525611908979525,-0.0011926568080324494,-0.0006650997443578723,3.1428215487495703,,,,
2025-04-30 00:16:41.537043,0.1557763368164058,0.00365355173339843,-0.032847328244274776,0.0,0.0,-0.0004675563108848405,-0.00022711715549021,3.142828047638803,-0.0031816337539349172,-0.0001951084985608635,-0.00120942436261912,-0.0006668692545118737,3.1428514583416494,,,,
2025-04-30 00:16:41.548534,-0.02857719101562539,-0.025076868188476542,0.1427251908396947,0.0,0.0,-0.0004675563108848405,-0.00022711715549021,3.1428566721514994,-0.002545307003147934,-0.0001560867988486908,-0.0012459847078011576,-0.0006691112580254811,3.142844870585425,,,,
2025-04-30 00:16:41.559864,-0.011817779394531325,0.006047753393554678,0.5091374045801527,0.0,0.0,-0.0004675563108848405,-0.00022711715549021,3.1429573530719432,-0.002036245602518347,-0.00012486943907895264,-0.001274823361223417,-0.0006708797413912285,3.142873094211218,,,,
2025-04-30 00:16:41.571234,0.18450675673828076,0.08984481149902346,-0.10918320610687021,0.0,0.0,-0.000513603685590129,-0.00023992184297561724,3.142935686888556,-0.004050006037491416,-0.0011262110371328972,-0.0012979748734392447,-0.0006722994701020699,3.1429741268220956,,,,
2025-04-30 00:16:41.582625,-0.08124962753906262,-0.03465367482910153,-0.078648854961832,0.0,0.0,-0.000548490698497495,-0.00024807396300551845,3.142920049468518,-0.00306244611425916,-0.0007156080795691751,-0.0013441120486362207,-0.0006851291289835547,3.142952418385834,,,,
2025-04-30 00:16:41.594000,-0.07167282089843763,-0.0873261113525391,0.28012977099236647,0.0,0.0,-0.0005735552489033719,-0.00024496640330417353,3.142975660229306,-0.00220362512892387,0.00027321043212924143,-0.0013789450308838026,-0.0006932686235581031,3.142936805183981,,,,
2025-04-30 00:16:41.605331,0.14859373183593716,0.05632598825683599,-0.28475572519083964,0.0,0.0,-0.0006167166865531827,-0.0002490453018862669,3.142919342050217,-0.0038088785916041198,-0.000359951621924901,-0.0014039160627290438,-0.0006901726584996165,3.142992208454979,,,,
2025-04-30 00:16:41.616700,-0.0190003843750004,0.020412963354492164,-0.0939160305343511,0.0,0.0,-0.0006167166865531827,-0.0002490453018862669,3.1429007074207,-0.003047102873283296,-0.0002879612975399208,-0.0014472173489218088,-0.0006942647732314636,3.1429357077978324,,,,
2025-04-30 00:16:41.628160,-0.15307567734375027,-0.05141308645019527,0.33356488549618324,0.0,0.0,-0.000631245360452865,-0.0002456346628461503,3.1429674284713407,-0.0012677125601142768,0.0002975983891596895,-0.0014821388014478667,-0.000697564965971772,3.1429169223185998,,,,
2025-04-30 00:16:41.639418,0.08634448867187494,0.010836156713867173,0.15799236641221376,0.0,0.0,-0.000655954223005015,-0.0002437123228914065,3.1429984719479305,-0.002194804655709199,0.00017075495375890688,-0.001496410566054351,-0.0006942146369689788,3.1429824635466304,,,,
2025-04-30 00:16:41.650963,0.11507490859374991,-0.010711658227539056,-0.0023129770992366128,0.0,0.0,-0.00069581937448718,-0.0002404023624682494,3.1429980058893716,-0.0034530401735177584,0.00028670219198912746,-0.0015217494603842344,-0.0006922432807854815,3.14301429857632,,,,
2025-04-30 00:16:41.662914,-0.030971392675781306,0.006047753393554678,-0.032847328244274776,0.0,0.0,-0.00069581937448718,-0.0002404023624682494,3.142991154879864,-0.002762432138814207,0.00022936175359130197,-0.0015630141690503756,-0.0006888171166426175,3.143013816155711,,,,
2025-04-30 00:16:41.675010,-0.030971392675781306,-0.020288464868164047,0.06638931297709927,0.0,0.0,-0.00069581937448718,-0.0002404023624682494,3.1430051711307327,-0.002209945711051366,0.00018348940287304157,-0.0015964296670674192,-0.0006860426639729474,3.143006881358943,,,,
2025-04-30 00:16:41.688487,0.014518438867187289,0.04914338327636725,0.07402290076335882,0.0,0.0,-0.0007275790926537714,-0.00024673008898220633,3.1430225827635545,-0.0023565714250713297,-0.0004695173745006039,-0.0016262132977266659,-0.0006835697613230191,3.143022497422741,,,,
2025-04-30 00:16:41.701999,-0.00942357773437541,0.010836156713867173,0.005320610687022942,0.0,0.0,-0.0007275790926537714,-0.00024673008898220633,3.1430238374854738,-0.0018852571400570638,-0.00037561389960048315,-0.0016580544842028113,-0.0006899137193784434,3.1430399537189406,,,,
2025-04-30 00:16:41.714761,0.009730035546874571,-0.0178942632080078,0.020587786259541996,0.0,0.0,-0.0007275790926537714,-0.00024673008898220633,3.1430284233831176,-0.001508205712045651,-0.00030049111968038654,-0.0016821151661913496,-0.0006947075092529051,3.143041138876767,,,,
2025-04-30 00:16:41.729052,-0.016606182714844042,0.03477817331542965,-0.15498473282442743,0.0,0.0,-0.0007275790926537714,-0.00024673008898220633,3.142989766185631,-0.001206564569636521,-0.00024039289574430924,-0.001703669006491368,-0.0006990018422828337,3.1430462740026903,,,,
2025-04-30 00:16:41.742166,-0.016606182714844042,0.008441955053710926,-0.18551908396946565,0.0,0.0,-0.0007275790926537714,-0.00024673008898220633,3.1429473041972043,-0.0009652516557092168,-0.0001923143165954474,-0.0017194918647267957,-0.000702154348833985,3.143010800779178,,,,
2025-04-30 00:16:41.756722,0.03367205214843727,0.05872018991699224,-0.1778854961832061,0.0,0.0,-0.000748323385876003,-0.00026167463765309454,3.1429021133186548,-0.0014251670249329036,-0.0010267150459206404,-0.0017335417711791424,-0.0007049536169229144,3.1429636706276356,,,,
2025-04-30 00:16:41.771594,0.02170104384765592,-0.015500061547851551,0.08165648854961832,0.0,0.0,-0.000748323385876003,-0.00026167463765309454,3.1429233079410888,-0.001140133619946323,-0.0008213720367365124,-0.0017547362812449876,-0.00072022250961747,3.142917498963938,,,,
2025-04-30 00:16:41.785540,0.15098793349609352,-0.03465367482910153,0.4328015267175573,0.0,0.0,-0.0007926964014292709,-0.0002663366265956279,3.14302865742606,-0.003181652021114838,-0.00033427582859722716,-0.001770637192631568,-0.0007316778019999343,3.1429373752085494,,,,
2025-04-30 00:16:41.802245,-0.021394586035156316,0.00365355173339843,0.13509160305343515,0.0,0.0,-0.0007926964014292709,-0.0002663366265956279,3.143068043885677,-0.0025453216168918706,-0.00026742066287778173,-0.0018237860461384695,-0.00073726181210761,3.1430635601043457,,,,
2025-04-30 00:16:41.815168,-0.11476845078125031,0.05632598825683599,0.05112213740458016,0.0,0.0,-0.000806134693779098,-0.0002789135769007156,3.1430795742167676,-0.0010398930547959346,-0.0009732399721860918,-0.0018566786362508633,-0.0007407176261757609,3.1430940293098573,,,,
2025-04-30 00:16:41.829520,-0.054913409277344005,-0.003529053247070313,0.13509160305343515,0.0,0.0,-0.0008096767122758477,-0.00029187340309559586,3.1431134145861743,-0.00024678653049039746,-0.0009029626878933358,-0.001871603763758469,-0.0007546861113131354,3.1431068353760785,,,,
2025-04-30 00:16:41.842229,-0.026182989355469033,-0.003529053247070313,-0.0939160305343511,0.0,0.0,-0.0008096767122758477,-0.00029187340309559586,3.1430925836473254,-0.00019742922439231798,-0.0007223701503146687,-0.001874740032001002,-0.0007661613453812379,3.1431367992161836,,,,
2025-04-30 00:16:41.854221,0.07437348037109359,0.010836156713867173,-0.1778854961832061,0.0,0.0,-0.0008224771655737496,-0.0003019057413301233,3.143055350822457,-0.001067375595809206,-0.0008365542025135468,-0.0018771076929971848,-0.0007748243365618552,3.1431171418568584,,,,
2025-04-30 00:16:41.867529,0.004941632226562298,0.006047753393554678,0.11219083969465649,0.0,0.0,-0.0008224771655737496,-0.0003019057413301233,3.143081409772501,-0.0008539004766473648,-0.0006692433620108375,-0.001891312633407435,-0.0007859574397012805,3.1430758237842675,,,,
2025-04-30 00:16:41.880085,0.07676768203124995,0.006047753393554678,0.2572290076335878,0.0,0.0,-0.0008448410708914817,-0.00031109269513265885,3.1431377759079617,-0.0017812574540407326,-0.0007317295306074834,-0.0019020334583882304,-0.0007943598720103098,3.143100407963656,,,,
2025-04-30 00:16:41.893097,0.04324885878906226,0.05632598825683599,-0.2923893129770992,0.0,0.0,-0.0008747200386543785,-0.00032978198573125456,3.143071369117731,-0.002296106156170553,-0.0014362141135004084,-0.0019252127586586788,-0.0008038817850095956,3.1431588292259702,,,,
2025-04-30 00:16:41.906328,0.1461995301757808,0.06590279489746098,-0.20078625954198476,0.0,0.0,-0.0009295536442593049,-0.00035974444999508124,3.143025005018155,-0.004144539957528394,-0.0022646811019899336,-0.001955590986564481,-0.0008228833627651337,3.1430913128169653,,,,
2025-04-30 00:16:41.919618,0.24436179824218707,0.12096943308105468,-0.42979389312977095,0.0,0.0,-0.001025803737894186,-0.00041023615079040227,3.142925311243126,-0.007242203554404238,-0.0037991773426729472,-0.002010672614136661,-0.0008529813524836246,3.143044739004476,,,,
2025-04-30 00:16:41.932014,0.35688927626953104,-0.032259473168945285,0.5244045801526718,0.0,0.0,-0.0011675304471427642,-0.00045160829111520994,3.1430387654131597,-0.011433391743117194,-0.0033375775821838376,-0.0021004459465418907,-0.0009000754182452508,3.1429517537193044,,,,
2025-04-30 00:16:41.945548,0.311399444726562,-0.053807288110351514,1.8144809160305344,0.0,0.0,-0.001375097173696467,-0.0004863223136724424,3.1434673788789786,-0.015336338919638206,-0.0025648909343084928,-0.002255188985930913,-0.0009452472194804092,3.143075627639721,,,,
2025-04-30 00:16:41.958833,0.6298282655273435,0.027595568334960907,2.6618091603053435,0.0,0.0,-0.0016837018412326488,-0.0005247611162809776,3.144084583072405,-0.02322886046095289,-0.002893311981339657,-0.0024589383597528867,-0.0009793228176088406,3.1434963584896134,,,,
2025-04-30 00:16:41.972058,0.6034920472656249,0.09463321481933595,3.6618091603053435,0.0,0.0,-0.0020881296029713536,-0.0005788232408794489,3.1449297756542145,-0.03058147001463362,-0.004087996420492297,-0.0027661307883532302,-0.0010175857162878462,3.1441107382286972,,,,
2025-04-30 00:16:41.985193,0.5771558290039058,0.06350859323730473,4.906083969465649,0.0,0.0,-0.0025792954071879896,-0.0006426153628696374,3.146054445917561,-0.03739514789052557,-0.004856844299000466,-0.0031678024800346548,-0.001071279421561694,3.1449501710427863,,,,
2025-04-30 00:16:41.997769,0.653770282128906,0.24067951608886717,5.371732824427481,0.0,0.0,-0.0031413067325112213,-0.0007403516772030469,3.147233533587089,-0.04468798175981597,-0.0077714423809717124,-0.003638096635173942,-0.0011323607547049225,3.146027049454862,,,,
2025-04-30 00:16:42.011182,0.6465876771484371,0.11139262644042969,6.669442748091603,0.0,0.0,-0.003842556980371155,-0.000862962426190584,3.1487948235967527,-0.052282502081517156,-0.009141382493226144,-0.004237483753957408,-0.0012365968887634755,3.147284550734974,,,,
2025-04-30 00:16:42.024512,0.30661104140624973,-0.022682666528320294,8.310664122137405,0.0,0.0,-0.0045789970576512575,-0.0009789219227301221,3.1507283861248654,-0.055244912753903336,-0.008698837104266903,-0.00493443353546628,-0.0013584557187293674,3.148836266024099,,,,
2025-04-30 00:16:42.037507,0.6322224671874999,0.25025632272949216,9.654175572519083,0.0,0.0,-0.005386665826123053,-0.0011322931990420731,3.1529179270315644,-0.062154529957549616,-0.011802758705398254,-0.005652315090982045,-0.0014714929994543362,3.1507211021678554,,,,
2025-04-30 00:16:42.049859,1.151764227441406,0.7434618647216796,9.127458015267175,0.0,0.0,-0.0063098258093832495,-0.0013886283386932829,3.1548857647542965,-0.0747334274657539,-0.020751336619243547,-0.006420091664075126,-0.0016172889959499143,3.1528024977592355,,,,
2025-04-30 00:16:42.063255,0.7854513734374997,0.2646215326904297,10.37936641221374,0.0,0.0,-0.007428296024820275,-0.0017097505601453365,3.157312466605942,-0.08349418179774995,-0.023971882994433383,-0.007421204686781837,-0.0018952694664377038,3.1549365027058576,,,,
2025-04-30 00:16:42.076357,2.50927656875,0.23349691110839843,10.005320610687022,0.0,0.0,-0.008921688828364485,-0.0020644188186173355,3.1596003815719462,-0.11398364801697254,-0.027070159867198153,-0.008515130108575715,-0.0022093446708561478,3.157309950661816,,,,
2025-04-30 00:16:42.089106,5.50921124892578,-0.1423927495361328,6.318297709923664,0.0,0.0,-0.011223727526862695,-0.002397003356504665,3.1610063266045603,-0.1805600770690198,-0.026086220805964996,-0.009968357051045219,-0.0025544738743898975,3.159536330528376,,,,
2025-04-30 00:16:42.101481,7.414995770410156,-0.14718115285644529,-0.8954427480916032,0.0,0.0,-0.014526556703726932,-0.0027126699203113306,3.160812923036531,-0.26689277772542874,-0.02550816937174747,-0.012202809012626324,-0.0028772938919502875,3.160900997698415,,,,
2025-04-30 00:16:42.114336,1.3289351502929685,0.37475480905761716,-1.330557251908397,0.0,0.0,-0.018102678862811177,-0.003098747255858196,3.1605144118306403,-0.27820353290059685,-0.03003479018443029,-0.01563353890513447,-0.003205184514966112,3.1607001046559278,,,,
2025-04-30 00:16:42.127430,1.6186335511718746,-0.13521014455566405,1.5625725190839694,0.0,0.0,-0.021945109943192646,-0.0034666972994702294,3.160871523456432,-0.2934402252315706,-0.0280997476370512,-0.019276454257471015,-0.0035984728284763584,3.1603960179926625,,,,
2025-04-30 00:16:42.140507,1.3217525453124996,0.02280716501464841,0.3259312977099237,0.0,0.0,-0.025926852255880917,-0.0038348966516509693,3.160945908990952,-0.30450055991462754,-0.028157751078457596,-0.02311356825613461,-0.003965913709943631,3.1607526354543025,,,,
2025-04-30 00:16:42.153249,-1.173005584570313,-0.8031924077392578,3.203793893129771,0.0,0.0,-0.029545238386504077,-0.004054992818448374,3.161658415955189,-0.2839669084332911,-0.017272901726691357,-0.026993599943069387,-0.0043247076853894185,3.1608251208660447,,,,
2025-04-30 00:16:42.165778,2.4135085023437495,-0.10647972463378907,5.516770992366412,0.0,0.0,-0.03340357903239266,-0.004258603274090564,3.1628648168984763,-0.30794362925127605,-0.016250649804800267,-0.030551527306461816,-0.004541126316833654,3.1615257227181277,,,,
2025-04-30 00:16:42.179058,7.42457257705078,1.0858327021240233,2.3106641221374047,0.0,0.0,-0.0386898034459337,-0.004685671101395643,3.163400359328529,-0.3980759130060836,-0.03216008288155771,-0.0346408456443881,-0.004756925813681705,3.1628043442689577,,,,
2025-04-30 00:16:42.192266,4.965727472070312,1.7562091669677733,10.799213740458015,0.0,0.0,-0.044684166094507684,-0.005422778373827375,3.165889945733869,-0.45382175835029065,-0.05580498513004281,-0.03989888217594376,-0.005181716375291254,3.163337031011163,,,,
2025-04-30 00:16:42.204821,4.1493047059570305,4.674740990698242,-31.345824427480917,0.0,0.0,-0.050895903667757876,-0.00684248955093744,3.159021582222435,-0.49478541790139147,-0.11308468520799618,-0.04559634529007456,-0.005882314877925461,3.165703308719977,,,,
2025-04-30 00:16:42.217428,-1.163428777929688,-3.1734520512939453,6.654175572519084,0.0,0.0,-0.05683721945977103,-0.007742020802901712,3.1604857638472166,-0.47125862046755684,-0.07134982749747072,-0.05183427132338251,-0.007308011505807854,3.158805988437372,,,,
2025-04-30 00:16:42.230770,-1.1825823912109379,-2.7185537358642575,19.325931297709925,0.0,0.0,-0.06280401563931226,-0.008195986224568219,3.164986163903554,-0.44720626644927863,-0.034024319787668685,-0.05812198316272592,-0.008259988054578152,3.160355536123335,,,,
2025-04-30 00:16:42.244865,-2.884859771582031,1.837612023413086,0.058755725190839714,0.0,0.0,-0.06841145503155177,-0.009010503847270404,3.1650006181259713,-0.3978298934797232,-0.05778742067643683,-0.06442538588847371,-0.00873956315488733,3.1651098185101443,,,,
2025-04-30 00:16:42.259479,0.5316659974609372,-3.9994516240478517,9.348832061068702,0.0,0.0,-0.07424173898167889,-0.009004212969825825,3.1673850931912937,-0.39896210547776306,0.0004304801845092132,-0.07023912411320567,-0.009584047046122089,3.165124804506336,,,,
2025-04-30 00:16:42.275353,0.39759070449218736,3.4728517572998046,7.005320610687023,0.0,0.0,-0.0805227193099202,-0.00985755123345879,3.1693259894179993,-0.39566761158667163,-0.05375567108991612,-0.07657240250860105,-0.00957721343757941,3.167714994717438,,,,
2025-04-30 00:16:42.289214,6.184376117089843,-1.8135455083251952,18.92135114503817,0.0,0.0,-0.08707219529100865,-0.010284088025287581,3.173903424838672,-0.47251308642315953,-0.030772571204476823,-0.08205672790199511,-0.010322317619382744,3.1694097152715215,,,,
2025-04-30 00:16:42.304852,2.437450518945312,3.451303942358398,5.967152671755725,0.0,0.0,-0.09486925147993909,-0.011602139321946854,3.175532054137592,-0.49860076172367235,-0.08428583359937755,-0.08944582829588527,-0.010803535229098596,3.174573965047773,,,,
2025-04-30 00:16:42.321608,-0.7659913023437501,-1.0809198003173828,18.150358778625954,0.0,0.0,-0.10285747985432506,-0.012680702697885803,3.180839870526847,-0.4767570929834879,-0.06437131183679207,-0.0978000548211096,-0.012215773237565185,3.1763189746718044,,,,
2025-04-30 00:16:42.335132,-5.15216874375,2.5439015131591796,19.89845038167939,0.0,0.0,-0.10823382501855124,-0.013948906829993243,3.185536935157345,-0.3975183956086966,-0.09376899296833546,-0.10424808520080413,-0.013086380472178057,3.180603399167916,,,,
2025-04-30 00:16:42.346942,0.1701415467773435,-4.109584900415038,23.768679389312975,0.0,0.0,-0.11288530312485613,-0.014474250493081573,3.190436242482856,-0.3938571359076828,-0.0444827097499956,-0.10894280301965484,-0.014193798309961512,3.184704957446544,,,,
2025-04-30 00:16:42.358801,3.548360089257812,-0.40575493215332026,25.20379389312977,0.0,0.0,-0.11795385347922291,-0.014961793296775055,3.1956527571402433,-0.4274119106842116,-0.041112662733524666,-0.113613437309137,-0.01472130549595829,3.1896244415903534,,,,
2025-04-30 00:16:42.373204,4.331264032128906,1.1600529535888673,9.325931297709923,0.0,0.0,-0.1248527715593588,-0.015827224087546884,3.1979971634872455,-0.47898033005340485,-0.060085410637910314,-0.11976959774678163,-0.0153134652872032,3.1959603165271653,,,,
2025-04-30 00:16:42.385803,2.2123955628906247,1.1935717768310545,39.486236641221375,0.0,0.0,-0.13109785332471194,-0.016776718822818382,3.2066796167385787,-0.49569984914930726,-0.07536561004746573,-0.1258040384074209,-0.016070452207781312,3.198010954151947,,,,
2025-04-30 00:16:42.398334,4.807710162499999,-3.8318575078369137,13.303030534351144,0.0,0.0,-0.13796316190612937,-0.017164205346598172,3.209588984473996,-0.5478849866673025,-0.030923307582922648,-0.13201543771747096,-0.01701482590297953,3.206646579138327,,,,
2025-04-30 00:16:42.413690,1.3959727967773434,2.299692943823242,35.623641221374044,0.0,0.0,-0.14648898552256903,-0.018184452797281186,3.2191369110443713,-0.5551916798280909,-0.06643732282859138,-0.14042905580315118,-0.01748970093383472,3.2102120866033315,,,,
2025-04-30 00:16:42.429330,3.3520355531249995,2.807263695776367,27.05875572519084,0.0,0.0,-0.15574178753279605,-0.01994136543805812,3.2265229103573767,-0.591628648912347,-0.1123378465000116,-0.14911200024916255,-0.018528750336450052,3.2199359701499377,,,,
2025-04-30 00:16:42.447372,-0.9766810484375004,0.8224705195068359,18.997687022900763,0.0,0.0,-0.16586867667382313,-0.022160706864451696,3.232505322924662,-0.5612777053724625,-0.12300587533812939,-0.15978649824336869,-0.020555613165595215,3.228456830616285,,,,
2025-04-30 00:16:42.462873,-4.833739922949219,-3.276402722680664,15.585473282442749,0.0,0.0,-0.17333495081313186,-0.023153142388920838,3.2367216827327803,-0.4816855626966788,-0.06402682986515038,-0.16848647503555636,-0.022462242006365412,3.233596301363112,,,,
2025-04-30 00:16:42.475170,7.620897113183593,0.6644532099365235,2.7992137404580153,0.0,0.0,-0.18025495669333455,-0.024130757882528307,3.2373224895641304,-0.5627105146056155,-0.07949625000581197,-0.17441006601129266,-0.02324962028997205,3.236941476003611,,,,
2025-04-30 00:16:42.488312,-1.970274737402344,1.4305977411865234,7.783946564885496,0.0,0.0,-0.18714665583056292,-0.025363109923821077,3.239107884903779,-0.5244077803028516,-0.09377295579184769,-0.18180513472247242,-0.02429434971267731,3.237583528608319,,,,
2025-04-30 00:16:42.500284,2.396749090722656,-1.6363745854736327,7.806847328244275,0.0,0.0,-0.19365688716721344,-0.026267892946846005,3.240739092813221,-0.5438011936398661,-0.07557674412215068,-0.1880831936977749,-0.025416972543348633,3.239209951499591,,,,
2025-04-30 00:16:42.511995,-4.781067486425782,-1.179082068383789,-1.7198702290076335,0.0,0.0,-0.19927419236519786,-0.02691419161509728,3.240387555442601,-0.4796556527102371,-0.05518674856353798,-0.19445171506188924,-0.02630206090873179,3.24080565246372,,,,
2025-04-30 00:16:42.523797,-1.7021241514648442,-4.411254309594726,3.623641221374046,0.0,0.0,-0.20465070912058483,-0.02693020554106948,3.241133994186549,-0.4555430122050513,-0.0013568323891665435,-0.20011281968761854,-0.026953398917169143,3.2404513740749206,,,,
2025-04-30 00:16:42.535443,1.8867841371093745,0.3675722040771484,-1.6206335877862594,0.0,0.0,-0.2100943535903769,-0.02701914131162638,3.240804595083404,-0.46744395074678463,-0.007636885212199781,-0.20541787111716578,-0.026969199984056245,3.2411878910627427,,,,
2025-04-30 00:16:42.547135,-6.682063604589844,2.2182900873779294,4.211427480916031,0.0,0.0,-0.21453008775700724,-0.027312919814293544,3.241664016371442,-0.37937271992892296,-0.025125840599720454,-0.210883359262177,-0.027058492626576076,3.240857170182052,,,,
2025-04-30 00:16:42.558759,1.9514275819335933,-0.527859216821289,6.677076335877863,0.0,0.0,-0.21911600752568125,-0.027555773224667287,3.243018681254368,-0.3945102475475521,-0.020891808814181366,-0.21529331531992926,-0.0273505638460871,3.2417115969743193,,,,
2025-04-30 00:16:42.571461,4.666452264550781,5.112879894506836,5.524404580152671,0.0,0.0,-0.2246776081781847,-0.028695486329728532,3.2442433259164187,-0.4378774212677687,-0.08973219520978362,-0.2203040976613143,-0.027615916412557697,3.2431917647958826,,,,
2025-04-30 00:16:42.583279,-2.60473817734375,-0.2932274541259765,14.944251908396947,0.0,0.0,-0.22939863309915778,-0.029657191523409746,3.2473257546096246,-0.39947977949760266,-0.08137677414214586,-0.22547890330663728,-0.028676365405324686,3.2443312385745045,,,,
2025-04-30 00:16:42.595028,14.690974615624999,-1.59327895559082,-36.84964122137404,0.0,0.0,-0.23599772144501954,-0.030574523358368407,3.239768935070287,-0.5616367567347381,-0.07807249268890169,-0.2301726886148078,-0.029632521702835125,3.2473958821118383,,,,
2025-04-30 00:16:42.608318,9.284867266992187,-6.271548999536133,-16.80383969465649,0.0,0.0,-0.2450145292724766,-0.030661937009056412,3.235871303821582,-0.6784814254845534,-0.006577553770748587,-0.23763666701435895,-0.030670080929579794,3.238848650304237,,,,
2025-04-30 00:16:42.620368,12.2776193421875,1.8232468134521485,23.04348854961832,0.0,0.0,-0.25473969511041183,-0.031170691316912996,3.240717691076616,-0.8070575358061614,-0.04221974255985338,-0.24581247120185712,-0.030749341451154096,3.23531455370439,,,,
2025-04-30 00:16:42.632244,11.267266241601561,9.678622460424803,29.608374045801526,0.0,0.0,-0.265540162165875,-0.033155874114290114,3.24685446104201,-0.9094830687746659,-0.1671677838898601,-0.25539659500427325,-0.031250717402244846,3.240090654823973,,,,
2025-04-30 00:16:42.644444,11.023057672265624,-0.5733490483642578,19.35646564885496,0.0,0.0,-0.27802145579229454,-0.03524694494015662,3.2509760761030484,-1.0230470341104503,-0.1713976027284049,-0.26649239495398325,-0.03329018394292192,3.2463952314245708,,,,
2025-04-30 00:16:42.656558,-0.7659913023437501,-7.3178151250244134,41.25722900763359,0.0,0.0,-0.2901814460804341,-0.03622367570675242,3.2596990929982557,-1.0037924799351519,-0.08062794255571351,-0.2788856358357009,-0.03536650273017012,3.25048776940998,,,,
2025-04-30 00:16:42.668895,-0.06209601425781264,2.759379662573242,-1.0023129770992367,0.0,0.0,-0.30225968882376986,-0.03760608553255091,3.2594832784018175,-0.9790472683082897,-0.11205641353559702,-0.29126915359735206,-0.03636118796509893,3.2593711346181204,,,,
2025-04-30 00:16:42.683574,7.1492393861328125,-2.538988611352539,20.39463358778626,0.0,0.0,-0.3179079948619294,-0.038871386036218314,3.264708388789942,-1.066019467736631,-0.08619686796495327,-0.30564077789126903,-0.03800608574193465,3.259114341774736,,,,
2025-04-30 00:16:42.697679,5.276973687890624,15.977767028295897,-16.887809160305345,0.0,0.0,-0.3332954515457026,-0.043278225428615195,3.260550945997991,-1.0909158249281934,-0.31242920320629824,-0.32067706942635255,-0.03922189959464408,3.2641350950056123,,,,
2025-04-30 00:16:42.711488,5.466115619042968,0.8871139643310546,5.448068702290076,0.0,0.0,-0.34905307591361345,-0.04779348484913512,3.2618640181528447,-1.1410957685916054,-0.3269746313626449,-0.3357417487104104,-0.0435362982290084,3.260064861464769,,,,
2025-04-30 00:16:42.725681,4.534771173242187,-0.719395349633789,15.119824427480916,0.0,0.0,-0.3658310181723045,-0.05231132565652918,3.2656094973474774,-1.1821032794241149,-0.3183080709179441,-0.3519376592118969,-0.04817714609784423,3.261414455705974,,,,
2025-04-30 00:16:42.738640,4.403090081933593,1.0738616938232421,14.616007633587786,0.0,0.0,-0.38153986154846903,-0.05662109932565332,3.268915306168588,-1.2121953233988347,-0.33256983735331447,-0.367256539686421,-0.0523021014865509,3.264834216438115,,,,
2025-04-30 00:16:42.751744,-3.6917057310546872,-0.1328159428955078,33.56257251908397,0.0,0.0,-0.39649337071802354,-0.060785942138792966,3.276590891891779,-1.1412064143070144,-0.31784815718122394,-0.3831402340439775,-0.056659846106659695,3.2681768213429874,,,,
2025-04-30 00:16:42.771723,22.110605560449216,7.765655333959961,-48.55956488549619,0.0,0.0,-0.42707005471977605,-0.07104512907038203,3.2596575978159223,-1.530386367886857,-0.5134801348899386,-0.4059412133543332,-0.06301036181080125,3.279880486969894,,,,
2025-04-30 00:16:42.784917,22.253659109643554,-18.987154016625976,-150.46796183206106,0.0,0.0,-0.4509104672860158,-0.07477284024576135,3.225009056141874,-1.8069669628145169,-0.2825391935693048,-0.4261325301559105,-0.06978501708246,3.2686985842769696,,,,
2025-04-30 00:16:42.798730,-16.972342339941406,18.78616557565918,112.06638931297711,0.0,0.0,-0.47182959392521084,-0.08173905541864324,3.252026319113983,-1.5144500231165805,-0.5043224275835266,-0.4510921987821288,-0.07368773627463855,3.23242336814289,,,,
2025-04-30 00:16:42.810683,-6.528834698339844,-6.147050513208008,44.52440458015267,0.0,0.0,-0.48876544380516906,-0.08668306435196092,3.2613152400231242,-1.4168282849630671,-0.41360851374361984,-0.4691949558447959,-0.07971608072209102,3.255803261410801,,,,
2025-04-30 00:16:42.822682,22.12736497207031,17.40231701608887,65.02822137404581,0.0,0.0,-0.5081941390533784,-0.09439549018030985,3.2749337317298535,-1.6191752939585426,-0.6427487383076458,-0.48619566297656824,-0.08467902315060571,3.2651277550184927,,,,
2025-04-30 00:16:42.834723,-16.972342339941406,-5.100784387719726,49.241961832061065,0.0,0.0,-0.5250173353527653,-0.10091726562096498,3.2852818500961725,-1.3972040618451504,-0.5416480301342828,-0.5056915294410625,-0.09241811330287239,3.27879333020871,,,,
2025-04-30 00:16:42.846821,11.549782037499998,7.444832311499024,48.616007633587785,0.0,0.0,-0.5430556684296766,-0.10864819818011005,3.295546977300974,-1.4910380469398359,-0.6390343572691737,-0.5225946743981631,-0.09897088209241978,3.2891906258038106,,,,
2025-04-30 00:16:42.858791,-10.27815449814453,-6.161415723168945,10.959519083969466,0.0,0.0,-0.559256083522055,-0.1150654916929547,3.2978366946887814,-1.3533593416113638,-0.536091456542749,-0.5404431751889391,-0.1066204556592787,3.2993477245917706,,,,
2025-04-30 00:16:42.871434,11.231353216699217,2.1991364740966794,33.24959541984733,0.0,0.0,-0.5777035805151146,-0.1223339146402823,3.3051733967970267,-1.4591511952020282,-0.5749142029846677,-0.5575531857670054,-0.11339805729857151,3.3017660014385535,,,,
2025-04-30 00:16:42.883450,11.540205230859373,-2.560536426293945,16.27249618320611,0.0,0.0,-0.5965557688721108,-0.12901784085753412,3.3085859256037646,-1.5689784914677931,-0.5562715730841952,-0.5750857353353239,-0.12030598554788732,3.3087388223816436,,,,
2025-04-30 00:16:42.895627,-2.4132020445312503,5.469615941870117,49.32593129770992,0.0,0.0,-0.6147939605761846,-0.13637665325781367,3.319069300864289,-1.4977292299004172,-0.604309276274931,-0.594191545608427,-0.12707983183925659,3.312197260558601,,,,
2025-04-30 00:16:42.907913,3.282603704980468,-4.789538171899414,4.2724961832061075,0.0,0.0,-0.6334309329062588,-0.14304170648396966,3.3199854710284753,-1.5169045950461746,-0.542483493881063,-0.6125929258315173,-0.13450448814099336,3.3227744371405947,,,,
2025-04-30 00:16:42.919976,4.216342352441406,-5.474279846704102,33.99768702290076,0.0,0.0,-0.6520984032228814,-0.14879848123041156,3.327143328038904,-1.5474947707109452,-0.47722474792671793,-0.6308913860506516,-0.14104848086455518,3.323673966474352,,,,
2025-04-30 00:16:42.932948,8.099737445214844,1.4497513544677734,25.08165648854962,0.0,0.0,-0.6730371406778703,-0.15535388156077715,3.332821969153546,-1.614134247319563,-0.5053454727573314,-0.6509656684535513,-0.14723909587718775,3.3313712516763525,,,,
2025-04-30 00:16:42.945381,-7.0914720884765625,2.452921850073242,2.4480687022900764,0.0,0.0,-0.6915786390598544,-0.1616711195822812,3.333353184231217,-1.491335663212634,-0.5081100869186441,-0.6710338987475342,-0.15352196196602552,3.336813808940872,,,,
2025-04-30 00:16:42.957363,11.664703717187498,4.576578722631836,22.387,0.0,0.0,-0.7105743223634512,-0.16858936318063933,3.3380348594408034,-1.585356384571178,-0.5773881088341265,-0.6889030291420917,-0.15961011879208853,3.3373257606340365,,,,
2025-04-30 00:16:42.970370,-1.5249532286132816,2.4385566401123047,16.07402290076336,0.0,0.0,-0.7304540177380995,-0.17629504402497131,3.341683815596368,-1.5284211208833234,-0.5924399308594249,-0.7095232636801452,-0.16712002529608463,3.3424078226641174,,,,
2025-04-30 00:16:42.983467,-0.6007913877929689,-1.2221776982666015,9.264862595419848,0.0,0.0,-0.7500145010798769,-0.18367778695516707,3.343801716202455,-1.4934488672494801,-0.5636746737615693,-0.7295417969757111,-0.17487952188998018,3.3460822627859406,,,,
2025-04-30 00:16:42.996107,-3.023723467871094,0.36517800241699216,3.9213511450381677,0.0,0.0,-0.7680392408896274,-0.1906207868830694,3.3446668202541687,-1.4259810680158378,-0.5492776349020219,-0.7484193458121725,-0.1820045038128015,3.348126219033013,,,,
2025-04-30 00:16:43.008676,0.2659096131835934,1.7202961420654297,1.0511221374045803,0.0,0.0,-0.785589744676654,-0.1976554376807012,3.344897395720173,-1.3963910053103623,-0.5597060471035413,-0.7663417515275243,-0.1889080853847369,3.3489864115220285,,,,
2025-04-30 00:16:43.021067,-4.010134551855469,-1.753690466821289,-9.788572519083969,0.0,0.0,-0.8020086100756975,-0.20407319935826873,3.3427803854361877,-1.325003132694605,-0.5179136390362147,-0.7836452245495086,-0.19584372049658372,3.3492137415408103,,,,
2025-04-30 00:16:43.032933,5.080649151757812,1.1648413569091796,7.272496183206107,0.0,0.0,-0.8180707913488894,-0.21039434033218232,3.3442865064903686,-1.353647273661794,-0.532716889458291,-0.7993675186204863,-0.20198920825836575,3.347186545542356,,,,
2025-04-30 00:16:43.044894,4.1684583192382805,0.544743126928711,0.738145038167939,0.0,0.0,-0.8344939737589555,-0.21683087432643447,3.3444405913561233,-1.3731450149560485,-0.5381596786250934,-0.8155575028188763,-0.20836064503540316,3.348704650440646,,,,
2025-04-30 00:16:43.056761,-2.3389817930664063,-0.6068678716064453,-1.765671755725191,0.0,0.0,-0.8501641889207862,-0.2229426735188255,3.3440748797850084,-1.3204549700477524,-0.5150124319405802,-0.8318530057484297,-0.21474713919595137,3.348857537397547,,,,
2025-04-30 00:16:43.068644,6.296903595117187,4.327581749975586,-3.8267404580152675,0.0,0.0,-0.8662754497910916,-0.22970160811361828,3.343281206190122,-1.3557948299298928,-0.5687778661907196,-0.8475443139171079,-0.22086716522000266,3.348491333557718,,,,
2025-04-30 00:16:43.080281,4.570684198144531,5.6515752680419915,-10.9336106870229,0.0,0.0,-0.8821835209835378,-0.23704359700182276,3.3410605062720182,-1.367000340806432,-0.6309062356433432,-0.8633219842168474,-0.22748615317337204,3.347714093315224,,,,
2025-04-30 00:16:43.091973,9.406971551660156,-2.165493152368164,-7.383992366412214,0.0,0.0,-0.8991384703917252,-0.2442356225003655,3.3395537861267264,-1.4502153908795021,-0.6151587845227035,-0.8793040388586008,-0.2348622873489689,3.3454830656183576,,,,
2025-04-30 00:16:43.103741,-0.2440553404296879,-4.327457251489257,-10.597732824427482,0.0,0.0,-0.9159455345247537,-0.25074767028165557,3.3373770510260314,-1.4281591637240196,-0.5533530805764992,-0.8963706681953899,-0.24210168573402652,3.343966420913918,,,,
2025-04-30 00:16:43.115426,-1.6590285215820315,0.24546791940917967,10.318297709923664,0.0,0.0,-0.9320758775363526,-0.25707291535369986,3.3394814063886065,-1.3804158702112028,-0.5413070679369061,-0.9130588979406058,-0.2485676900656474,3.3418050764240443,,,,
2025-04-30 00:16:43.127006,10.572947760156248,-3.752848853051758,-22.11681679389313,0.0,0.0,-0.9491996991742937,-0.2629989683789712,3.3350113995566892,-1.4787423016533439,-0.5117493907372357,-0.9290441004476625,-0.25483602070875183,3.343890496839059,,,,
2025-04-30 00:16:43.139046,10.807579522851562,-1.5525775273681641,-12.26185496183206,0.0,0.0,-0.9681968178459892,-0.2691118259222045,3.3324347437073993,-1.5778469045558765,-0.5077166447853141,-0.9468480096281111,-0.2609974321092702,3.3392429597790425,,,,
2025-04-30 00:16:43.154016,-4.587137151953124,0.029989769995117155,-4.803839694656489,0.0,0.0,-0.9903539199408061,-0.27637686762772345,3.331179631310897,-1.480117569355594,-0.48531237633982405,-0.9704681028410147,-0.26859786180935397,3.3360392712413445,,,,
2025-04-30 00:16:43.167958,-8.956555181738281,2.5893913447021486,-14.43742748091603,0.0,0.0,-1.0088093399141098,-0.2831769912757165,3.3276664562616367,-1.3237053561289356,-0.48773531614063215,-0.991104259691061,-0.27536420424509545,3.3348703143909484,,,,
2025-04-30 00:16:43.180537,-1.6709995298828129,1.0571022822021483,-1.0481145038167938,0.0,0.0,-1.024842223895205,-0.28930271188993256,3.3274363486521747,-1.2745790260319125,-0.48698132060441407,-1.0077551020213649,-0.28149940934219375,3.3317006588692313,,,,
2025-04-30 00:16:43.195702,-6.119426214453126,0.12336363474121093,-15.147351145038169,0.0,0.0,-1.0424227497396783,-0.2963178508353884,3.3234272622760983,-1.1593124734152576,-0.46259925067968494,-1.0270836006115385,-0.28888429295984375,3.331423251846869,,,,
2025-04-30 00:16:43.210820,-2.8633119566406253,2.9461273920654296,-15.231320610687023,0.0,0.0,-1.0588516341049188,-0.30370803218103,3.3194081205348445,-1.0866499835785397,-0.48880619397835934,-1.0446110573425436,-0.29587825579213983,3.327426267421649,,,,
2025-04-30 00:16:43.224079,-2.8393699400390626,9.671439855444335,-23.551931297709924,0.0,0.0,-1.0722033643913422,-0.31161692747029185,3.3139580177422983,-1.0070168806039663,-0.5965062873771769,-1.0590186187011827,-0.3023591883266749,3.3239016196148445,,,,
2025-04-30 00:16:43.236750,-4.946267400976563,-1.61243256887207,-18.933610687022902,0.0,0.0,-1.0839828414217894,-0.3186434422892852,3.309770996682285,-0.9296761182205338,-0.5545562850248987,-1.0717780431737096,-0.30991723136227095,3.318693292794484,,,,
2025-04-30 00:16:43.250837,-3.0668190977539065,-0.3889955205322265,-14.002312977099237,0.0,0.0,-1.0962416873387022,-0.3261270303970075,3.3063282173752153,-0.8701969378152681,-0.5312241869543565,-1.084874798391571,-0.31772950896858326,3.3140380445374276,,,,
2025-04-30 00:16:43.264746,-1.556077850195313,0.7003662348388672,-13.345824427480917,0.0,0.0,-1.1077907366635853,-0.33345172372494725,3.303088390149607,-0.8303231762552411,-0.5266115381503094,-1.0969784559126292,-0.3251183600968587,3.3106388484029963,,,,
2025-04-30 00:16:43.278198,-8.803326275488281,-2.6323624760986326,-17.246587786259543,0.0,0.0,-1.1172682338164581,-0.33968821826162093,3.299039191130936,-0.7045390843692683,-0.46360912376641544,-1.1081480073449224,-0.332202366455367,3.3075054808148776,,,,
2025-04-30 00:16:43.293681,-4.347716985937501,0.22392010446777344,-11.811473282442748,0.0,0.0,-1.126940898445957,-0.3466176173488291,3.295847453885888,-0.6247416182288829,-0.44755857511008335,-1.1190561493393643,-0.3393802707961747,3.3028450480922964,,,,
2025-04-30 00:16:43.308506,12.88335236220703,-18.870436685693356,-90.23895419847328,0.0,0.0,-1.1392989939656495,-0.34945255766343614,3.2724987792015066,-0.833605813294116,-0.1912287150420952,-1.1283178608942426,-0.34601526725812526,3.2997889150767423,,,,
2025-04-30 00:16:43.322267,22.253659109643554,3.7146661249755857,99.79921374045803,0.0,0.0,-1.1545155596645882,-0.35334978359165825,3.29646893766766,-1.105732889419977,-0.2831973371386999,-1.1397895442875627,-0.34864686511851634,3.2781149764665383,,,,
2025-04-30 00:16:43.337216,-7.077106878515625,-8.955449060571288,-11.76567175572519,0.0,0.0,-1.1694787149947024,-0.35532553582274284,3.2933992456471595,-1.000973257208547,-0.13216965957745877,-1.1563187101357566,-0.35288027067072697,3.304152831034614,,,,
2025-04-30 00:16:43.353652,1.5468075013671871,-0.3028042607666015,-19.64353435114504,0.0,0.0,-1.1860183384929837,-0.35743474710385764,3.2877643033454933,-1.0063131409451442,-0.1283298274254014,-1.1727705680440497,-0.3550525929016123,3.3007777316101063,,,,
2025-04-30 00:16:43.369513,-4.778673284765626,-2.3450582768798824,-5.1702519083969465,0.0,0.0,-1.2005776507379338,-0.35868743746436443,3.2863330581236996,-0.9179433534196596,-0.07898029597647625,-1.1887314954592718,-0.3570880061118791,3.2953399473053304,,,,
2025-04-30 00:16:43.382109,0.6657412904296871,-2.7233421391845702,-10.78093893129771,0.0,0.0,-1.2120714857991755,-0.3592579083076086,3.2839629339460465,-0.9124893695621277,-0.04528937272301812,-1.2002940296122249,-0.35808285221674635,3.294203298713706,,,,
2025-04-30 00:16:43.394840,-1.1969476011718752,-0.12563333791503906,6.364099236641222,0.0,0.0,-1.2232712295058403,-0.35977598478150213,3.285377084549151,-0.8796840791730203,-0.040692326343772116,-1.2119114355834224,-0.3586594562262338,3.291807693188898,,,,
2025-04-30 00:16:43.408548,-0.3757364317382814,3.295680834448242,-3.040480916030534,0.0,0.0,-1.2349336493839997,-0.3609134621988666,3.2846496568685057,-0.850782404463758,-0.08297984314395244,-1.2239700360406265,-0.3592172615982658,3.293330288487128,,,,
2025-04-30 00:16:43.420367,-3.004569854589844,1.600586059057617,4.6083740458015265,0.0,0.0,-1.2443495351576872,-0.36203241639957057,3.2856002843976313,-0.7966652686769111,-0.09467319064469351,-1.2340255389647068,-0.3601980106722898,3.2927030900800904,,,,
2025-04-30 00:16:43.435079,3.383160174707031,-0.9252966924072266,12.119824427480916,0.0,0.0,-1.2565737522002323,-0.3633083883477737,3.2887121949826756,-0.8309361214575194,-0.08673366793459217,-1.245745584468905,-0.3615907839561386,3.293886345502542,,,,
2025-04-30 00:16:43.450433,-4.297438751074219,-1.4376558476806638,-2.2389541984732824,0.0,0.0,-1.2681431803722747,-0.36413993278713064,3.288112198727476,-0.753504640678731,-0.05415761130703008,-1.258503907714398,-0.36292250626691713,3.297134223138949,,,,
2025-04-30 00:16:43.464597,1.9801580018554685,1.2989166498779297,-15.399259541984733,0.0,0.0,-1.2789519403107383,-0.36519989628894733,3.2843051874427966,-0.7630779661163366,-0.07483141430919815,-1.2691770645021188,-0.3636896318365854,3.2965807079601035,,,,
2025-04-30 00:16:43.480598,-4.769096478125,0.3556011957763672,-3.8496412213740454,0.0,0.0,-1.2897200814354157,-0.3662926907626867,3.28323014661578,-0.6729974279809132,-0.06829849847091402,-1.2813865186346918,-0.3648869547331352,3.2922803506640665,,,,
2025-04-30 00:16:43.496067,-1.089208526464844,3.001194030249023,11.287763358778626,0.0,0.0,-1.299568283835079,-0.3679876929515833,3.2862776878306654,-0.6366381233272361,-0.10957360224557715,-1.2917971658176945,-0.36594346927709526,3.2912410003595145,,,,
2025-04-30 00:16:43.510641,1.2690801087890622,-4.011422632348632,-1.2542213740458015,0.0,0.0,-1.3090426564709399,-0.3687643786662735,3.285958657593103,-0.6500850517615733,-0.053292370106464704,-1.30107556223406,-0.3675404005338825,3.2941122142460086,,,,
2025-04-30 00:16:43.526327,2.9593864808593744,-0.6619345097900391,-8.177885496183206,0.0,0.0,-1.319765328973311,-0.36952670444411256,3.283719705614322,-0.683560023214652,-0.04859753259102006,-1.3112731291952533,-0.3683763719367147,3.2937688319097607,,,,
2025-04-30 00:16:43.540170,3.8811541200195308,0.38912001901855464,-7.803839694656489,0.0,0.0,-1.3297499567988655,-0.3703602126794524,3.281834276043945,-0.7212856207649763,-0.06021230990714694,-1.320735528322228,-0.36904909888730464,3.2917930318240387,,,,
2025-04-30 00:16:43.552772,2.054378253320312,0.9924588373779297,-7.269488549618321,0.0,0.0,-1.338952651934392,-0.37130094091365456,3.280235457487578,-0.730292901534775,-0.07465282089580744,-1.3298247193298212,-0.36980785681897393,3.2900766904845384,,,,
2025-04-30 00:16:43.566502,0.9410744813476559,-3.3314693608642574,-13.30002290076336,0.0,0.0,-1.3490344495094275,-0.3717190750497774,3.2770483123007352,-0.7342870718927832,-0.030453943176993684,-1.3398516767495945,-0.3708328437178129,3.288334669766635,,,,
2025-04-30 00:16:43.581007,-6.164916045996094,-11.56034046682129,-22.14735114503817,0.0,0.0,-1.3585208462836802,-0.3696236580250702,3.2714412472059884,-0.6539805712568039,0.14445548246080273,-1.3505029694887543,-0.37127459719033934,3.28496749083504,,,,
2025-04-30 00:16:43.595188,-5.67649890732422,-2.93403188527832,3.203793893129771,0.0,0.0,-1.3665753192219057,-0.36689720231884126,3.2722341703365325,-0.5679995302838207,0.19226901280257733,-1.3597766898572923,-0.36922615751350113,3.27948613105068,,,,
2025-04-30 00:16:43.609202,-6.370817388769531,0.1640650629638672,-14.353458015267176,0.0,0.0,-1.3731560780139629,-0.36413234445408954,3.268723271104796,-0.46956045940187197,0.19728240620529397,-1.367737044755064,-0.36653156095813433,3.2802697887243966,,,,
2025-04-30 00:16:43.622044,0.9147382630859371,-0.03944207814941403,-2.4832290076335877,0.0,0.0,-1.379212657698685,-0.3616620012633279,3.268166725721068,-0.47165125135440195,0.19237598080921328,-1.3737667761105845,-0.36399821325653303,3.2770528680238193,,,,
2025-04-30 00:16:43.635090,0.45744574599609367,3.717060326635742,-5.689335877862596,0.0,0.0,-1.3852411125299016,-0.3598270931429141,3.266871262387342,-0.4620828255188385,0.140646243952559,-1.3799200631575208,-0.3614884252988933,3.2764874361003584,,,,
2025-04-30 00:16:43.649828,3.354429754785156,-2.5054697881103514,-3.567198473282443,0.0,0.0,-1.3926900765376513,-0.3573549582482418,3.265953649114799,-0.5054065083561566,0.16773246105120718,-1.3867304984783568,-0.3594155022325969,3.2750239318539354,,,,
2025-04-30 00:16:43.663389,-3.9646447203124997,1.7586033686279297,-1.8649083969465647,0.0,0.0,-1.3986585154643836,-0.3553520540376181,3.2655122623725488,-0.4401253079248431,0.14769839203621732,-1.3935842008762473,-0.3571409205809878,3.27417964689299,,,,
2025-04-30 00:16:43.676316,5.47808662734375,-2.8646000371337887,-3.544297709923664,0.0,0.0,-1.4051823364851748,-0.3531254880425281,3.2647125843138793,-0.5046548127623643,0.17223759538684238,-1.3992738300306895,-0.35523158007667627,3.2737588790996157,,,,
2025-04-30 00:16:43.688793,0.04324885878906226,-2.280414832055664,0.18852671755725192,0.0,0.0,-1.411401991970826,-0.350675125402185,3.2647536369551067,-0.49851186474467407,0.19639911759682221,-1.4055701276647796,-0.35308266732104543,3.2729870904418967,,,,
2025-04-30 00:16:43.702108,4.518011761621093,3.7026951166748043,-17.27712213740458,0.0,0.0,-1.4186097018933064,-0.34884445871131364,3.260738679585041,-0.5413337850284448,0.13749189958436592,-1.4122076755388802,-0.3504676672825856,3.273030901368745,,,,
2025-04-30 00:16:43.715518,-0.6319160093750003,1.5000295893310547,-11.269488549618321,0.0,0.0,-1.4255827535221797,-0.34728712717746857,3.2581009592070562,-0.5199669026310292,0.11612718464180981,-1.4194672692021626,-0.3486238227811328,3.2689870428622907,,,,
2025-04-30 00:16:43.729087,-0.6582522276367189,-0.7984040044189453,-4.658801526717557,0.0,0.0,-1.4323955040658949,-0.3455861827518178,3.2569976737618727,-0.5020953217568981,0.1253585072883037,-1.4265225127886156,-0.3470481348469368,3.2663182314479915,,,,
2025-04-30 00:16:43.742302,-2.760361285253907,2.8048694941162107,-2.94887786259542,0.0,0.0,-1.438373753162242,-0.3443854988197439,3.2563175257131047,-0.4523813613661899,0.09085720969606208,-1.4331577351030549,-0.34539151402451285,3.265243695670099,,,,
2025-04-30 00:16:43.755126,5.16444620986328,-1.791997693383789,9.188526717557252,0.0,0.0,-1.4449196883880027,-0.3430537240466795,3.2583741970227154,-0.5104227979391793,0.10384584974462037,-1.4389593158725669,-0.34422631252515773,3.2645836472551606,,,,
2025-04-30 00:16:43.770323,-4.496157488867187,-2.5725074345947263,-23.216053435114503,0.0,0.0,-1.4515741647275822,-0.3408162067278027,3.2522166022733794,-0.43789354600798963,0.14723839157555166,-1.446715987472395,-0.3426482126504533,3.2670207205513733,,,,
2025-04-30 00:16:43.786619,1.2020424623046873,-0.9013546758056641,5.799213740458015,0.0,0.0,-1.4589043465249354,-0.3382668026746164,3.253865974751796,-0.44982385745754916,0.15644670174977962,-1.4538517568339149,-0.3402488641945957,3.260417770340006,,,,
2025-04-30 00:16:43.801396,0.46223414931640594,1.2246963984130859,-13.819106870229009,0.0,0.0,-1.465488539513626,-0.3362724374295534,3.2503018243912134,-0.4455576223235522,0.1349602962977185,-1.4604989937793238,-0.337936985269951,3.261913472626575,,,,
2025-04-30 00:16:43.815285,-4.433908245703124,2.7162840326904294,1.967152671755725,0.0,0.0,-1.4706640405968852,-0.334854546587182,3.2507786902076083,-0.37262470639107126,0.10208502526300599,-1.4666874829413112,-0.3360624795066301,3.258563524361686,,,,
2025-04-30 00:16:43.832202,-2.7699380918945313,2.086608996069336,-12.025213740458016,0.0,0.0,-1.476007295095279,-0.33366217274270676,3.2472282595890865,-0.3158602696944603,0.07048579179707447,-1.4729909937961672,-0.33433555680444016,3.259144323940625,,,,
2025-04-30 00:16:43.847920,-3.322998675390625,-1.1527458501220702,-5.567198473282443,0.0,0.0,-1.4801016042797266,-0.3322151881170708,3.2457009605852134,-0.2604777543618111,0.09205638580335214,-1.4779558308371676,-0.33322762869965866,3.2558453402497607,,,,
2025-04-30 00:16:43.862813,-2.0373123838867193,0.029989769995117155,-13.910709923664122,0.0,0.0,-1.4834619698263183,-0.33083371094604797,3.242085225952175,-0.22564028325966945,0.0927627949591715,-1.4818350161438254,-0.3318566717821771,3.254398288845533,,,,
2025-04-30 00:16:43.876272,-1.1011795347656252,2.3787015986083984,-4.681702290076336,0.0,0.0,-1.486201742557363,-0.33001096954820114,3.2409854591919687,-0.20356125070700823,0.06112852575558975,-1.4848719551140515,-0.3306081582502454,3.2511305594093094,,,,
2025-04-30 00:16:43.888821,0.33773566298828106,-2.2947800420166016,-6.971778625954198,0.0,0.0,-1.4887916537657409,-0.3289118300152692,3.2394584709996734,-0.20638120909933433,0.08758668831641886,-1.4874264782079816,-0.32984104648315715,3.250105153340021,,,,
2025-04-30 00:16:43.900705,3.107826983789062,2.129704625952148,-24.177885496183205,0.0,0.0,-1.4915961199867163,-0.3282251485035698,3.2344437281614176,-0.23599197272493352,0.05778330413383047,-1.489879057941436,-0.3288001894321557,3.2486591345415645,,,,
2025-04-30 00:16:43.913005,2.035224640039062,1.7969105951904296,-23.903076335877863,0.0,0.0,-1.4947179559700168,-0.3278204593593969,3.229312416763131,-0.2538124242009285,0.03290215542385175,-1.4927817063619861,-0.3280894677303048,3.2434688294239415,,,,
2025-04-30 00:16:43.926202,-0.8162695372070314,0.8655661493896484,-18.208419847328244,0.0,0.0,-1.49784935652952,-0.3275305289628454,3.225118468783513,-0.23728222814579022,0.021969508273911652,-1.4961312550128159,-0.3276552597885292,3.2379632303908537,,,,
2025-04-30 00:16:43.938873,0.11746911025390583,-1.9188903813720701,-18.628267175572518,0.0,0.0,-1.5008381432672295,-0.3269582308874928,3.220998894555547,-0.23588070691735535,0.04516684742955204,-1.4991378000831799,-0.327376889523232,3.2339365038881653,,,,
2025-04-30 00:16:43.952197,-1.1753997862304688,-2.3330872685791015,-23.406893129770992,0.0,0.0,-1.5037443222258595,-0.32594850210919685,3.215555472198788,-0.21810793263009107,0.07577986747762297,-1.5022807923573427,-0.32677506390394084,3.2296043814894766,,,,
2025-04-30 00:16:43.965393,-2.647833807226563,-6.657015466821289,-52.208419847328244,0.0,0.0,-1.506184238295433,-0.3238066906753365,3.203531168293162,-0.18489827510074192,0.16230773043806676,-1.5051589427859264,-0.32577507341561396,3.2242134580081316,,,,
2025-04-30 00:16:43.980751,9.313597686914061,11.41681286569824,-44.67406870229008,0.0,0.0,-1.510985246295415,-0.32410695518972826,3.191556782680343,-0.3126166215163935,-0.019551660411889608,-1.5079985170018964,-0.32328243336176055,3.2102195736441623,,,,
2025-04-30 00:16:43.995574,-4.192093878027343,-0.7217895512939452,-16.42979389312977,0.0,0.0,-1.514631984237246,-0.3241944601031821,3.187306034551674,-0.24600768052068686,-0.0059030512025572525,-1.5126326442475089,-0.3235722608244598,3.198661411979353,,,,
2025-04-30 00:16:44.010383,-3.492986993261719,-1.7273542485595703,-15.719870229007633,0.0,0.0,-1.5174675616951847,-0.3238779781598536,3.1832431457043975,-0.19148417951960878,0.02137176153709361,-1.5162756284100352,-0.3236596756645005,3.1944150393694652,,,,
2025-04-30 00:16:44.023022,0.4909645692382809,-1.9500150029541015,-17.979412213740456,0.0,0.0,-1.519927787215319,-0.3233110492080344,3.1792767894611753,-0.194641775723875,0.044852822226372026,-1.5186959426689044,-0.32338954170714096,3.19094715039266,,,,
2025-04-30 00:16:44.036914,-0.4379856749023441,1.7131135370849608,-29.46032824427481,0.0,0.0,-1.5224848425977828,-0.32302173087403246,3.1721342057119983,-0.18407709080889317,0.020827424234133016,-1.521399754414733,-0.3227664812818124,3.1865880863512546,,,,
2025-04-30 00:16:44.049516,-4.8074037046875,-3.3290751592041015,-22.11681679389313,0.0,0.0,-1.524023560740246,-0.32222732182034586,3.1672695645524045,-0.12209791630037595,0.06303668454186585,-1.523719554521253,-0.322504007224098,3.1801082241410734,,,,
2025-04-30 00:16:44.067182,1.391184393457031,0.09463321481933595,-20.124450381679388,0.0,0.0,-1.526562303619147,-0.3211731904953303,3.1610644760930633,-0.14370508531871043,0.05966891458660511,-1.5258765778085552,-0.3213903797304344,3.1732888177949463,,,,
2025-04-30 00:16:44.083999,-2.4299614561523435,-1.9332555913330078,-13.826740458015268,0.0,0.0,-1.5282654817516468,-0.31964375558210495,3.1570063117562643,-0.10128091607980712,0.0909491298297357,-1.52829317679203,-0.3203869647293908,3.167382268302346,,,,
2025-04-30 00:16:44.098177,-4.867258746191407,0.9541516108154297,-18.582465648854964,0.0,0.0,-1.5287118918721423,-0.3185576029244839,3.1524077847629757,-0.031484441803168894,0.07660424476998079,-1.529729213874527,-0.31909741949114045,3.1639606212277935,,,,
2025-04-30 00:16:44.111708,2.454209930566406,2.2158958857177735,-22.399259541984733,0.0,0.0,-1.5295674850060084,-0.31794182647399066,3.1471181626975486,-0.06323443998778991,0.04551027522703522,-1.5301552138871088,-0.31806092631016425,3.159572341332113,,,,
2025-04-30 00:16:44.124447,0.6848949037109373,0.2885635492919922,-21.544297709923665,0.0,0.0,-1.5304658403711646,-0.3174196226912603,3.1423278996431,-0.07051776058795743,0.04099117426910446,-1.5309607839726027,-0.3174811518025925,3.154591981940702,,,,
2025-04-30 00:16:44.136838,-4.417148834082031,-0.37941871389160153,-32.81147328244275,0.0,0.0,-1.530657183982316,-0.3168690171248446,3.1352321887705403,-0.01544262600782919,0.044437312481038015,-1.531834542292876,-0.3169732460030211,3.149932876688523,,,,
2025-04-30 00:16:44.149868,-16.972342339941406,-0.015500061547851551,0.7915801526717557,0.0,0.0,-1.5280305449830507,-0.3163164612145192,3.135412204507445,0.20158684125037646,0.04240704588939988,-1.5320357568338234,-0.31639423609711037,3.142471116155595,,,,
2025-04-30 00:16:44.163073,-5.556788824316406,-3.0226173467041013,-58.59009923664122,0.0,0.0,-1.5244622602014313,-0.31526994114576523,3.121908849115094,0.27022119547692863,0.07925149515139018,-1.5293737922290895,-0.31583424887548067,3.142653552919866,,,,
2025-04-30 00:16:44.176108,-16.950794525,0.5088301020263671,-37.208419847328244,0.0,0.0,-1.518191307607656,-0.31442168948034355,3.1134437588203734,0.4810835613169448,0.06507463196248148,-1.5258514430096934,-0.31480120096230796,3.1293240301277168,,,,
2025-04-30 00:16:44.188390,-3.0859727110351565,-0.22379560598144532,-30.80383969465649,0.0,0.0,-1.5119437950009165,-0.31362122164349776,3.1068406631263668,0.5086766144445818,0.06517462146122446,-1.519942825375473,-0.31400196118595525,3.121348051830527,,,,
2025-04-30 00:16:44.201163,1.7981986756835933,3.4824285639404295,-12.94124427480916,0.0,0.0,-1.505884439104091,-0.31335098751347806,3.103955543774472,0.4743687598080833,0.021155817763142994,-1.5134452376242078,-0.3131694522597051,3.114480647728689,,,,
2025-04-30 00:16:44.213618,-11.027539617773437,1.2510326166748045,-22.76567175572519,0.0,0.0,-1.4984278613332345,-0.3133541379955813,3.099006919584043,0.5987050417438471,-0.0002529591425301189,-1.5075372072871471,-0.31290596692141986,3.111667580969239,,,,
2025-04-30 00:16:44.226506,1.0775439759765622,-1.8111513066650389,-13.429793893129771,0.0,0.0,-1.491027876128948,-0.3130548283716677,3.095986058763998,0.5741783991098169,0.023223981663818907,-1.4998211238233579,-0.31290922704739277,3.1065467335164683,,,,
2025-04-30 00:16:44.238881,1.094303387597656,-1.8710063481689452,-18.933610687022902,0.0,0.0,-1.4842144157297827,-0.3124845467815646,3.0918965751884104,0.550566874851852,0.04608203973521001,-1.4927154624349144,-0.3126218220352043,3.1036460231101257,,,,
2025-04-30 00:16:44.251983,0.06719087539062496,0.19040128122558592,-25.2923893129771,0.0,0.0,-1.4771584482903308,-0.311924227256454,3.0861130740630984,0.538558604876311,0.042767331952423646,-1.4855021677126294,-0.3120180746083298,3.099316556353957,,,,
2025-04-30 00:16:44.265098,1.4941350648437497,-0.21661300100097658,-18.80383969465649,0.0,0.0,-1.4704854250570747,-0.31132302376086807,3.08180866494398,0.5087834803828142,0.04583865456636154,-1.4784386245329146,-0.3114571534881547,3.0935268456900227,,,,
2025-04-30 00:16:44.278316,-1.6973357481445315,0.19997808786621096,-17.994679389312978,0.0,0.0,-1.4636068994456868,-0.3107819790220113,3.077657283580364,0.5203843272297828,0.04093191162435384,-1.4717134408228394,-0.3108512506142062,3.089188790646976,,,,
2025-04-30 00:16:44.290744,-1.8649298643554686,-0.3028042607666015,-14.666435114503816,0.0,0.0,-1.4569845566371158,-0.31025668182450855,3.074476165688416,0.5328854065566769,0.04226951378778903,-1.4652464530526337,-0.31034257624022,3.0852857838073247,,,,
2025-04-30 00:16:44.303719,-5.990139324804687,-1.9787454228759764,-10.864908396946564,0.0,0.0,-1.449199764835505,-0.3094622020454651,3.072015650727155,0.5999629456785326,0.06122943820004474,-1.4583320227964973,-0.3097941100944964,3.081964358378856,,,,
2025-04-30 00:16:44.316800,1.7120074159179683,-0.24534342092285155,-14.467961832061068,0.0,0.0,-1.4417919008722335,-0.3086153365545067,3.068712502092043,0.5663039669851136,0.06473975351199142,-1.4504838632502177,-0.3089931632970579,3.0794838149713897,,,,
2025-04-30 00:16:44.329777,1.5324422914062497,0.3220823725341797,-13.223687022900764,0.0,0.0,-1.4348465883129584,-0.3078258906236525,3.065717642665712,0.5352359579726205,0.06083813297992303,-1.4431354069372915,-0.3081530892765187,3.0762071560639677,,,,
2025-04-30 00:16:44.343016,-1.2975040708984378,1.636499083959961,-14.857274809160305,0.0,0.0,-1.4277022099233128,-0.307334425162665,3.0622845597480968,0.5396307375689618,0.03712147575871969,-1.4360492127209878,-0.30734762989055736,3.0731515476425484,,,,
2025-04-30 00:16:44.354866,-3.002175652929688,-0.4536389653564452,-11.002312977099237,0.0,0.0,-1.4210185522993701,-0.30687477733093815,3.0600090219132166,0.5640160937314334,0.03878845822592983,-1.429654524460578,-0.30690773599883286,3.0700787127739324,,,,
2025-04-30 00:16:44.370296,-0.016606182714844042,0.7769806879638672,-15.048114503816794,0.0,0.0,-1.4125013678754503,-0.30646919313980975,3.055956444231552,0.5519810364496469,0.026285069225213932,-1.4209516365511168,-0.3063092218644439,3.0671157018261908,,,,
2025-04-30 00:16:44.384986,0.7710861634765622,-0.6547519048095702,-7.887809160305343,0.0,0.0,-1.404705424042749,-0.30593859119507266,3.053934141291877,0.5307087530435857,0.036120718991421996,-1.4128432095990475,-0.3059231025058631,3.063257615812804,,,,
2025-04-30 00:16:44.401970,1.324146746972656,-0.9061430791259766,-5.330557251908397,0.0,0.0,-1.3962219173111585,-0.30504885913957885,3.0523539786378833,0.4994863165492751,0.05238505740315586,-1.4038294065582286,-0.3053096115000822,3.0609193947098454,,,,
2025-04-30 00:16:44.416702,-0.6654348326171875,-1.1671110600830077,-1.414526717557252,0.0,0.0,-1.3888475359132293,-0.30405799308981885,3.051990275696779,0.5005728660763934,0.06725996821447791,-1.396471032081896,-0.30453788091094486,3.0595488024642705,,,,
2025-04-30 00:16:44.428586,0.2946400331054684,-1.3466761845947264,-1.1931526717557253,0.0,0.0,-1.3830416075837244,-0.3030853707018876,3.051742798560775,0.48855107666076564,0.0818431933431548,-1.3905222371186368,-0.30373856519237735,3.0592554091465924,,,,
2025-04-30 00:16:44.442109,2.059166656640625,0.7913458979248047,-1.4221603053435115,0.0,0.0,-1.3769476288769151,-0.3021087876909012,3.05140715426813,0.45065851977158017,0.07221972299861171,-1.3839158606101698,-0.3026318498954309,3.0589738129840334,,,,
2025-04-30 00:16:44.454854,0.2706980165039061,-0.6930591313720702,1.669442748091603,0.0,0.0,-1.371351611070454,-0.301092955408167,3.051778526838503,0.4390542260369838,0.07970050705776914,-1.37817193889909,-0.3017113648347909,3.058657449138264,,,,
2025-04-30 00:16:44.468271,0.9362860780273434,-0.15915216115722652,3.3106641221374047,0.0,0.0,-1.3657409490521066,-0.3000024071719337,3.052553746780884,0.41819772082389534,0.08128537868613563,-1.3722814599525108,-0.3006420796963854,3.059048363245899,,,,
2025-04-30 00:16:44.482333,0.5556080140624995,-0.16872896779785151,2.7457786259541983,0.0,0.0,-1.3600821638911553,-0.29884014731019864,3.0532276462504977,0.4024120519441622,0.08265155197631283,-1.3664006940919737,-0.2994990311905339,3.0598609031844393,,,,
2025-04-30 00:16:44.496226,-0.21053651718750022,-1.2413313115478515,6.55493893129771,0.0,0.0,-1.3545432882588486,-0.29748437823648755,3.0548170659232525,0.39868422062580877,0.09758726723314723,-1.3608100281128654,-0.29835076235136254,3.0605266904039485,,,,
2025-04-30 00:16:44.508350,-2.8082453184570313,-0.939661902368164,12.04348854961832,0.0,0.0,-1.3493916904908052,-0.29622401186949626,3.057365575944406,0.4248985728451676,0.10395374303456915,-1.3559762610155153,-0.2971675850469499,3.061913774178358,,,,
2025-04-30 00:16:44.521038,-0.054913409277344005,-0.31477526906738273,14.0663893129771,0.0,0.0,-1.3440956741069792,-0.2948826130481081,3.060480580207112,0.41739829949917817,0.10572051640692566,-1.350585079963862,-0.29584860332869256,3.0645808067291562,,,,
2025-04-30 00:16:44.533885,0.7615093568359372,0.14251724802246096,11.074022900763358,0.0,0.0,-1.338965132370571,-0.29356487201278797,3.0629636605247748,0.39935142854568856,0.1025704091195559,-1.3452226867352086,-0.29449039228185686,3.0677348524410566,,,,
2025-04-30 00:16:44.546710,1.1757062440429684,-0.997122742211914,14.532038167938932,0.0,0.0,-1.3341226644147517,-0.2921011417119428,3.0662165533763712,0.37757296891723063,0.11412878730979932,-1.3401009045764147,-0.29317490107812716,3.0702136932971027,,,,
2025-04-30 00:16:44.559344,0.6848949037109373,0.5806561518310547,14.631274809160304,0.0,0.0,-1.3295612869148645,-0.2907709664670824,3.0694427701879228,0.36104555375140696,0.10528702302734184,-1.3353307230104328,-0.2917330207471959,3.0734180282887578,,,,
