timestamp,imu_accel_x,imu_accel_y,imu_gyro_z,gps_lat,gps_lng,odom_x,odom_y,odom_heading,odom_vx,odom_vy,ekf_x,ekf_y,ekf_heading,map_matched_lat,map_matched_lng,distance_to_path,progress
2025-04-30 00:02:19.723989,0.019007566979980517,-0.0019177555297853477,0.030862595419847372,,,0.0,0.0,3.141592653589793,0.0,0.0,0.0,0.0,3.141592653589793,,,,
2025-04-30 00:02:19.736352,-0.026482264562988522,0.03160106771240223,0.07666412213740459,,,0.0,0.0,3.1416091960564754,0.0,0.0,0.0,0.0,3.141592653589793,,,,
2025-04-30 00:02:19.748585,0.002248155358886894,-0.004311957189941595,-0.5034885496183206,,,0.0,0.0,3.1415017021904146,0.0,0.0,0.0,0.0,3.1416090212368486,,,,
2025-04-30 00:02:19.762231,-0.014511256262207173,0.01244745443115225,0.05376335877862598,,,0.0,0.0,3.1415145072238984,0.0,0.0,0.0,0.0,3.141489103361866,,,,
2025-04-30 00:02:19.777736,0.0070365586791991674,-0.0019177555297853477,-0.15997709923664122,,,0.0,0.0,3.1414712150823867,0.0,0.0,0.0,0.0,3.141503652512635,,,,
2025-04-30 00:02:19.791765,-0.007328651281738097,-0.028253973791504072,-0.16761068702290077,,,0.0,0.0,3.1414301758514016,0.0,0.0,0.0,0.0,3.141464482354428,,,,
2025-04-30 00:02:19.804031,0.004642357019042809,0.005264849450683395,-0.2744809160305343,,,0.0,0.0,3.141371414784503,0.0,0.0,0.0,0.0,3.141428600141065,,,,
2025-04-30 00:02:19.816757,-0.004934449621582182,-0.011494562170410338,0.3514732824427481,,,0.0,0.0,3.141449482609095,0.0,0.0,0.0,0.0,3.1413676335496428,,,,
2025-04-30 00:02:19.829906,0.021401768640136876,0.05554308431396471,-0.08364122137404578,,,-3.627556404156757e-06,-9.409886080938866e-06,3.1414302881679967,-0.000275890303290727,-0.000715659809404091,0.0,0.0,3.1414482915446675,,,,
2025-04-30 00:02:19.842897,0.0142191636596678,0.0004764461303709,-0.022572519083969456,,,-3.627556404156757e-06,-9.409886080938866e-06,3.141425170002795,-0.0002207122426325816,-0.0005725278475232728,-3.5842091146258626e-06,-9.297443154914121e-06,3.1414293264665076,,,,
2025-04-30 00:02:19.855740,0.016613365319824158,-0.016282965490722834,-0.045473282442748064,,,-3.627556404156757e-06,-9.409886080938866e-06,3.14141497713112,-0.0001765697941060653,-0.00045802227801861826,-6.418792963075873e-06,-1.6650357383958112e-05,3.1414242668187753,,,,
2025-04-30 00:02:19.868952,0.011824961999511885,-0.0019177555297853477,-0.11417557251908389,,,-3.627556404156757e-06,-9.409886080938866e-06,3.1413886486481775,-0.00014125583528485226,-0.0003664178224148946,-8.751669099422145e-06,-2.2701841148291778e-05,3.141413780840779,,,,
2025-04-30 00:02:19.881734,0.0070365586791991674,0.04596627767333972,-0.25158015267175565,,,-3.627556404156757e-06,-9.409886080938866e-06,3.1413325258072846,-0.00011300466822788182,-0.0002931342579319157,-1.0557147512436779e-05,-2.738525452501948e-05,3.141388310399561,,,,
2025-04-30 00:02:19.894701,-0.004934449621582182,-0.004311957189941595,-0.19814503816793888,,,-3.627556404156757e-06,-9.409886080938866e-06,3.141287681868266,-9.040373458230546e-05,-0.00023450740634553256,-1.2022491439719598e-05,-3.118635859863957e-05,3.1413313730917736,,,,
2025-04-30 00:02:19.907421,-0.004934449621582182,0.007659051110839643,-0.007305343511450346,,,-3.627556404156757e-06,-9.409886080938866e-06,3.1412860600252706,-7.232298766584438e-05,-0.00018760592507642606,-1.317243671012326e-05,-3.4169318141711994e-05,3.1412873833544324,,,,
2025-04-30 00:02:19.920313,0.02619017196044915,-0.0019177555297853477,-0.05310687022900762,,,-3.627556404156757e-06,-9.409886080938866e-06,3.141274110776463,-5.78583901326755e-05,-0.00015008474006114085,-1.4104807990094271e-05,-3.658789046759312e-05,3.141285739624217,,,,
2025-04-30 00:02:19.933064,-0.0001460463012694646,0.03399526937255848,-0.213412213740458,,,-3.627556404156757e-06,-9.409886080938866e-06,3.14122661349711,-4.62867121061404e-05,-0.00012006779204891269,-1.4842607633669498e-05,-3.8501743712892014e-05,3.14127392009521,,,,
2025-04-30 00:02:19.946374,-0.031270667883300796,0.019630059411620993,-0.22104580152671754,,,-3.627556404156757e-06,-9.409886080938866e-06,3.141175266753529,-3.702936968491232e-05,-9.605423363913016e-05,-1.5458648609693427e-05,-4.00997548145066e-05,3.1412243465582312,,,,
2025-04-30 00:02:19.959214,0.002248155358886894,-0.0019177555297853477,-0.06074045801526712,,,-3.627556404156757e-06,-9.409886080938866e-06,3.1411616540073326,-2.962349574792986e-05,-7.684338691130414e-05,-1.593413340824165e-05,-4.133316300698293e-05,3.1411748072479866,,,,
2025-04-30 00:02:19.971876,0.0070365586791991674,0.01244745443115225,0.13009923664122142,,,-3.627556404156757e-06,-9.409886080938866e-06,3.141190404413219,-2.369879659834389e-05,-6.147470952904331e-05,-1.6309217090465283e-05,-4.2306130571732325e-05,3.141161384318946,,,,
2025-04-30 00:02:19.984706,0.011824961999511885,0.007659051110839643,-0.213412213740458,,,-3.627556404156757e-06,-9.409886080938866e-06,3.1411426149658768,-1.8959037278675114e-05,-4.917976762323465e-05,-1.6613278751266046e-05,-4.309486691954973e-05,3.1411905174716823,,,,
2025-04-30 00:02:19.997108,-0.007328651281738097,-0.03304237711181657,0.038496183206106926,,,-3.627556404156757e-06,-9.409886080938866e-06,3.1411509472436254,-1.5167229822940092e-05,-3.934381409858772e-05,-1.6848396263980978e-05,-4.370476205660287e-05,3.141144325623771,,,,
2025-04-30 00:02:20.009822,-0.012117054602050814,-0.016282965490722834,-0.09890839694656484,,,-3.627556404156757e-06,-9.409886080938866e-06,3.1411289995123344,-1.2133783858352075e-05,-3.147505127887018e-05,-1.7041231045994418e-05,-4.420497573463415e-05,3.141152867910481,,,,
2025-04-30 00:02:20.022522,-0.031270667883300796,-0.0019177555297853477,0.0003282442748092085,,,-3.627556404156757e-06,-9.409886080938866e-06,3.141129072274476,-9.70702708668166e-06,-2.5180041023096147e-05,-1.7195339761032304e-05,-4.4604733944024e-05,3.1411309428159004,,,,
2025-04-30 00:02:20.034976,0.02379597030029279,0.029206866052245983,-0.03783969465648851,,,-3.627556404156757e-06,-9.409886080938866e-06,3.1411208476065733,-7.765621669345328e-06,-2.014403281847692e-05,-1.731622676703991e-05,-4.491831499651815e-05,3.1411310141616178,,,,
2025-04-30 00:02:20.047149,-0.040847474523925786,0.04357207601318347,-0.22104580152671754,,,2.2087207524019705e-06,-1.598117293145481e-05,3.1410738828540428,0.0004794281247745333,-0.0005398063949992446,-1.7410760896377007e-05,-4.5163536652287165e-05,3.141122974507016,,,,
2025-04-30 00:02:20.059823,0.021401768640136876,0.026812664392089736,-0.030206106870228955,,,2.2087207524019705e-06,-1.598117293145481e-05,3.141067201248231,0.00038354249981962667,-0.00043184511599939567,-1.133455844258142e-05,-5.2004964537669304e-05,3.1410740790661533,,,,
2025-04-30 00:02:20.072806,-0.0025402479614258233,0.02202426107177724,-0.045473282442748064,,,2.2087207524019705e-06,-1.598117293145481e-05,3.141056897302695,0.00030683399985570133,-0.00034547609279951655,-6.355085498994606e-06,-5.7611542875012306e-05,3.1410672345617914,,,,
2025-04-30 00:02:20.085985,-0.043241676184082145,0.01005325277099589,0.0003282442748092085,,,2.2087207524019705e-06,-1.598117293145481e-05,3.141056972802073,0.0002454671998845611,-0.00027638087423961327,-2.3114469496610588e-06,-6.21644296065161e-05,3.1410567752642287,,,,
2025-04-30 00:02:20.098246,0.0070365586791991674,0.0004764461303709,-0.18287786259541977,,,2.2087207524019705e-06,-1.598117293145481e-05,3.141017835878871,0.00019637375990764886,-0.00022110469939169063,6.98380812671641e-07,-6.555330937805128e-05,3.1410568455104073,,,,
2025-04-30 00:02:20.111227,-0.026482264562988522,-0.028253973791504072,-0.030206106870228955,,,2.2087207524019705e-06,-1.598117293145481e-05,3.1410109923800555,0.0001570990079261191,-0.0001768837595133525,3.24749640656561e-06,-6.84234557630248e-05,3.141015412682224,,,,
2025-04-30 00:02:20.123933,-0.0025402479614258233,0.01244745443115225,-0.045473282442748064,,,2.2087207524019705e-06,-1.598117293145481e-05,3.1410009086900126,0.00012567920634089528,-0.00014150700761068202,5.243490529162085e-06,-7.067082160595525e-05,3.141008714484893,,,,
2025-04-30 00:02:20.137042,0.021401768640136876,0.017235857751464745,0.24460305343511454,,,2.2087207524019705e-06,-1.598117293145481e-05,3.1410568725639165,0.00010054336507271623,-0.00011320560608854563,6.891015315691971e-06,-7.252583254447047e-05,3.140998310440426,,,,
2025-04-30 00:02:20.149592,0.0070365586791991674,0.007659051110839643,-0.08364122137404578,0.0,0.0,2.2087207524019705e-06,-1.598117293145481e-05,3.1410385513726093,8.043469205817299e-05,-9.056448487083651e-05,8.152870140098544e-06,-7.394660297610848e-05,3.141051889516182,,,,
2025-04-30 00:02:20.162661,-0.004934449621582182,0.0028706477905271477,0.06903053435114509,0.0,0.0,2.2087207524019705e-06,-1.598117293145481e-05,3.1410542972200552,6.434775364653839e-05,-7.245158789666921e-05,9.204083423604176e-06,-7.513020407003963e-05,3.141032810974717,,,,
2025-04-30 00:02:20.175523,-0.004934449621582182,0.005264849450683395,-0.18287786259541977,0.0,0.0,2.2087207524019705e-06,-1.598117293145481e-05,3.1410132448865653,5.147820291723072e-05,-5.796127031733537e-05,1.0031706771414959e-05,-7.606205673514777e-05,3.141048306915434,,,,
2025-04-30 00:02:20.188452,0.02379597030029279,-0.01867716715087908,-0.11417557251908389,0.0,0.0,2.2087207524019705e-06,-1.598117293145481e-05,3.140987479879528,4.118256233378458e-05,-4.6369016253868303e-05,1.0697291083901946e-05,-7.681146347564848e-05,3.141007038460958,,,,
2025-04-30 00:02:20.200506,0.028584373620605508,-0.004311957189941595,0.07666412213740459,0.0,0.0,2.2087207524019705e-06,-1.598117293145481e-05,3.1410036089041737,3.294604986702766e-05,-3.7095213003094644e-05,1.1193714130260487e-05,-7.73704051004757e-05,3.1409830175686326,,,,
2025-04-30 00:02:20.213578,0.04055538192138686,0.0004764461303709,-0.007305343511450346,0.0,0.0,2.2087207524019705e-06,-1.598117293145481e-05,3.1410019423139732,2.635683989362213e-05,-2.9676170402475718e-05,1.1624353930787565e-05,-7.785527886205371e-05,3.1410005071876355,,,,
2025-04-30 00:02:20.226358,-0.021693861242675805,0.007659051110839643,-0.08364122137404578,0.0,0.0,2.2087207524019705e-06,-1.598117293145481e-05,3.1409832852573616,2.1085471914897705e-05,-2.3740936321980574e-05,1.1961205623582749e-05,-7.823455301920223e-05,3.140998877653714,,,,
2025-04-30 00:02:20.238887,-0.0025402479614258233,0.026812664392089736,0.08429770992366414,0.0,0.0,2.2087207524019705e-06,-1.598117293145481e-05,3.1410017193806756,1.6868377531918164e-05,-1.899274905758446e-05,1.2225393369647818e-05,-7.85320120697605e-05,3.140980587090538,,,,
2025-04-30 00:02:20.252081,-0.007328651281738097,-0.02107136881103533,-0.20577862595419844,0.0,0.0,2.2087207524019705e-06,-1.598117293145481e-05,3.1409543343479407,1.3494702025534532e-05,-1.5194199246067569e-05,1.2447948119103577e-05,-7.878259494294962e-05,3.140999998483367,,,,
2025-04-30 00:02:20.264611,0.0381611802612305,-0.011494562170410338,0.06903053435114509,0.0,0.0,2.2087207524019705e-06,-1.598117293145481e-05,3.1409694307251392,1.0795761620427626e-05,-1.2155359396854055e-05,1.2617037928748268e-05,-7.897297960304509e-05,3.140954996488438,,,,
2025-04-30 00:02:20.278313,0.03337277694091778,-0.00910036051025409,-0.03783969465648851,0.0,0.0,2.2087207524019705e-06,-1.598117293145481e-05,3.1409603814490157,8.6366092963421e-06,-9.724287517483245e-06,1.2764963118741076e-05,-7.913953421136547e-05,3.140971504982282,,,,
2025-04-30 00:02:20.293501,0.05252639022216776,0.02202426107177724,0.10719847328244275,0.0,0.0,-9.539913428723358e-06,-2.1097571140624105e-05,3.1409887976455924,-0.0007735482369814717,-0.000336871567654767,1.2896135757158529e-05,-7.928722648348648e-05,3.1409614744270993,,,,
2025-04-30 00:02:20.309686,0.004642357019042809,0.017235857751464745,-0.20577862595419844,0.0,0.0,-9.539913428723358e-06,-2.1097571140624105e-05,3.1409306679637776,-0.0006188385895851774,-0.00026949725412381357,3.7603811623307813e-07,-8.473958836326714e-05,3.140991756547577,,,,
2025-04-30 00:02:20.324441,0.03337277694091778,0.007659051110839643,-0.15997709923664122,0.0,0.0,-9.539913428723358e-06,-2.1097571140624105e-05,3.140889470764362,-0.0004950708716681419,-0.00021559780329905086,-8.754784293174606e-06,-8.871595895269182e-05,3.140938764568542,,,,
2025-04-30 00:02:20.340881,-0.014511256262207173,0.04117787435302722,-0.07600763358778623,0.0,0.0,-9.539913428723358e-06,-2.1097571140624105e-05,3.1408676615291053,-0.00039605669733451353,-0.0001724782426392407,-1.6893825229615246e-05,-9.22604198516839e-05,3.1408928615713263,,,,
2025-04-30 00:02:20.354868,0.011824961999511885,-0.0019177555297853477,-0.07600763358778623,0.0,0.0,-9.539913428723358e-06,-2.1097571140624105e-05,3.1408491071533953,-0.0003168453578676108,-0.00013798259411139258,-2.2433306891514788e-05,-9.467280188841476e-05,3.140874307195616,,,,
2025-04-30 00:02:20.367348,-0.009722852941894455,0.05314888265380846,0.0919312977099237,0.0,0.0,-1.1936878824131481e-05,-3.089865507864383e-05,3.1408691313941315,-0.00019206421904330634,-0.0007853419727876949,-2.638754346034244e-05,-9.639482749475155e-05,3.1408577514067755,,,,
2025-04-30 00:02:20.380882,-0.009722852941894455,-0.035436578771972815,-0.07600763358778623,0.0,0.0,-1.1936878824131481e-05,-3.089865507864383e-05,3.140851177954495,-0.0001536513752346451,-0.000628273578230156,-2.898686228171882e-05,-0.00010702332551094702,3.1408794661073416,,,,
2025-04-30 00:02:20.393564,-0.004934449621582182,-0.00910036051025409,-0.09890839694656484,0.0,0.0,-1.1936878824131481e-05,-3.089865507864383e-05,3.1408292845513093,-0.00012292110018771607,-0.0005026188625841248,-3.0935536305879136e-05,-0.00011499136614900638,3.1408626417949606,,,,
2025-04-30 00:02:20.406512,-0.007328651281738097,0.007659051110839643,0.061396946564885535,0.0,0.0,-1.1936878824131481e-05,-3.089865507864383e-05,3.1408431599042483,-9.833688015017287e-05,-0.00040209509006729986,-3.252718177344535e-05,-0.00012149953304080626,3.1408402890723406,,,,
2025-04-30 00:02:20.419261,-0.03605907120361351,-0.028253973791504072,-0.1447099236641221,0.0,0.0,-1.1936878824131481e-05,-3.089865507864383e-05,3.1408109615196445,-7.86695041201383e-05,-0.0003216760720538399,-3.3780827507877066e-05,-0.00012662563419155466,3.1408539500739425,,,,
2025-04-30 00:02:20.431644,-0.007328651281738097,0.0028706477905271477,0.038496183206106926,0.0,0.0,-1.1936878824131481e-05,-3.089865507864383e-05,3.14081928178315,-6.293560329611064e-05,-0.00025734085764307196,-3.47550282439229e-05,-0.00013060909728399538,3.1408226736045233,,,,
2025-04-30 00:02:20.444474,0.028584373620605508,0.02202426107177724,-0.15997709923664122,0.0,0.0,-1.1936878824131481e-05,-3.089865507864383e-05,3.140783459404988,-5.0348482636888516e-05,-0.00020587268611445758,-3.5562478224794654e-05,-0.00013391072402146816,3.1408312937435254,,,,
2025-04-30 00:02:20.457605,-0.016905457922363087,0.036389471032714726,-0.22104580152671754,0.0,0.0,-1.1936878824131481e-05,-3.089865507864383e-05,3.140732799762019,-4.0278786109510816e-05,-0.00016469814889156608,-3.622361128279648e-05,-0.0001366140674272966,3.140794629926911,,,,
2025-04-30 00:02:20.470787,-0.0025402479614258233,0.04357207601318347,0.07666412213740459,0.0,0.0,-1.1936878824131481e-05,-3.089865507864383e-05,3.14075043740348,-3.2223028887608654e-05,-0.00013175851911325287,-3.6754553609919796e-05,-0.0001387850667768709,3.1407437752835006,,,,
2025-04-30 00:02:20.483198,-0.007328651281738097,-0.028253973791504072,0.15300000000000002,0.0,0.0,-1.1936878824131481e-05,-3.089865507864383e-05,3.140783578204526,-2.5778423110086924e-05,-0.0001054068152906023,-3.7154462044243005e-05,-0.00014042027441893052,3.1407603812339526,,,,
2025-04-30 00:02:20.496243,0.028584373620605508,-0.013888763830566586,-0.05310687022900762,0.0,0.0,-1.1936878824131481e-05,-3.089865507864383e-05,3.1407714861976412,-2.062273848806954e-05,-8.432545223248184e-05,-3.749076188224658e-05,-0.00014179538936507442,3.140795218102429,,,,
2025-04-30 00:02:20.509109,0.04055538192138686,-0.025859772131347825,-0.2439465648854961,0.0,0.0,-1.1936878824131481e-05,-3.089865507864383e-05,3.140716706919676,-1.6498190790455632e-05,-6.746036178598547e-05,-3.775609445226777e-05,-0.00014288032233709402,3.1407832927202963,,,,
2025-04-30 00:02:20.521722,0.03337277694091778,0.024418462731933488,0.10719847328244275,0.0,0.0,-1.1936878824131481e-05,-3.089865507864383e-05,3.1407403050803797,-1.3198552632364506e-05,-5.396828942878838e-05,-3.796418315761595e-05,-0.00014373118771528363,3.1407295914868274,,,,
2025-04-30 00:02:20.534205,0.0142191636596678,0.0028706477905271477,-0.08364122137404578,0.0,0.0,-1.1936878824131481e-05,-3.089865507864383e-05,3.1407220823863584,-1.0558842105891607e-05,-4.3174631543030705e-05,-3.812893912670467e-05,-0.00014440486747946456,3.1407529465376753,,,,
2025-04-30 00:02:20.547507,0.0142191636596678,-0.013888763830566586,-0.1447099236641221,0.0,0.0,-1.1936878824131481e-05,-3.089865507864383e-05,3.1406884863759266,-8.447073684713286e-06,-3.4539705234424565e-05,-3.826939125386853e-05,-0.00014497916992464946,3.14073352830239,,,,
2025-04-30 00:02:20.560872,-0.024088062902832164,-0.02107136881103533,0.07666412213740459,0.0,0.0,-1.1936878824131481e-05,-3.089865507864383e-05,3.1407063693390893,-6.75765894777063e-06,-2.7631764187539654e-05,-3.838228664951557e-05,-0.0001454407941312702,3.140699772718134,,,,
2025-04-30 00:02:20.573657,0.004642357019042809,0.007659051110839643,-0.15997709923664122,0.0,0.0,-1.1936878824131481e-05,-3.089865507864383e-05,3.140670673442973,-5.4061271582165044e-06,-2.2105411350031724e-05,-3.846867981226614e-05,-0.00014579405189686474,3.1407168788824085,,,,
2025-04-30 00:02:20.586495,-0.016905457922363087,-0.004311957189941595,-0.05310687022900762,0.0,0.0,-1.1936878824131481e-05,-3.089865507864383e-05,3.1406587732534423,-4.324901726573204e-06,-1.768432908002538e-05,-3.8538088216490044e-05,-0.00014607785974703468,3.140681031207837,,,,
2025-04-30 00:02:20.599444,-0.0001460463012694646,0.02202426107177724,-0.129442748091603,0.0,0.0,-1.1936878824131481e-05,-3.089865507864383e-05,3.1406295204836376,-3.4599213812585632e-06,-1.4147463264020305e-05,-3.8594088231717475e-05,-0.00014630684129629938,3.140669029584936,,,,
2025-04-30 00:02:20.612508,0.0070365586791991674,-0.011494562170410338,-0.15997709923664122,0.0,0.0,-1.1936878824131481e-05,-3.089865507864383e-05,3.1405930423959223,-2.767937105006851e-06,-1.1317970611216244e-05,-3.8639290799754706e-05,-0.0001464916725685387,3.1406395139608776,,,,
2025-04-30 00:02:20.624969,0.030978575280761866,-0.0019177555297853477,0.13009923664122142,0.0,0.0,-1.1936878824131481e-05,-3.089865507864383e-05,3.1406213375117087,-2.2143496840054807e-06,-9.054376488972996e-06,-3.8673782577348864e-05,-0.00014663270789930295,3.1406047207471515,,,,
2025-04-30 00:02:20.637681,-0.019299659582519446,-0.01867716715087908,0.1453664122137405,0.0,0.0,-1.1936878824131481e-05,-3.089865507864383e-05,3.140653586998098,-1.7714797472043846e-06,-7.243501191178398e-06,-3.870192928275054e-05,-0.00014674779851460722,3.1406335832161183,,,,
2025-04-30 00:02:20.649759,-0.016905457922363087,-0.016282965490722834,2.198801526717557,0.0,0.0,-1.1936878824131481e-05,-3.089865507864383e-05,3.1411171163616345,-1.4171837977635078e-06,-5.794800952942719e-06,-3.87233261427476e-05,-0.00014683528931495128,3.1406642279103822,,,,
2025-04-30 00:02:20.662626,-0.0025402479614258233,-0.03304237711181657,-0.15234351145038166,0.0,0.0,-1.1936878824131481e-05,-3.089865507864383e-05,3.1410829044179485,-1.1337470382108064e-06,-4.635840762354176e-06,-3.874156100965227e-05,-0.00014690985086743494,3.141158015097594,,,,
2025-04-30 00:02:20.675171,0.0980162217651368,-0.013888763830566586,-0.06074045801526712,0.0,0.0,-2.706752324616813e-05,-2.880556761718086e-05,3.1410696048321465,-0.0012060761782231894,0.00016684173230133555,-3.875578425989918e-05,-0.0001469680090994263,3.141124658325714,,,,
2025-04-30 00:02:20.688069,0.0070365586791991674,0.01005325277099589,0.0003282442748092085,0.0,0.0,-2.706752324616813e-05,-2.880556761718086e-05,3.141069678723876,-0.0009648609425785516,0.00013347338584106843,-5.431171656464345e-05,-0.0001448160897263819,3.141110984918908,,,,
2025-04-30 00:02:20.700473,0.004642357019042809,0.019630059411620993,-0.17524427480916033,0.0,0.0,-2.706752324616813e-05,-2.880556761718086e-05,3.1410317408148796,-0.0007718887540628413,0.00010677870867285475,-6.627958788194643e-05,-0.0001431605223430016,3.141111055979155,,,,
2025-04-30 00:02:20.713387,0.028584373620605508,-0.00910036051025409,-0.03783969465648851,0.0,0.0,-2.706752324616813e-05,-2.880556761718086e-05,3.1410232124102464,-0.0006175110032502732,8.54229669382838e-05,-7.624734667728069e-05,-0.00014178163917243316,3.1410715589879974,,,,
2025-04-30 00:02:20.726677,0.019007566979980517,0.057937285974120956,-0.4042519083969465,0.0,0.0,-3.8407257169326456e-05,-3.771985375348483e-05,3.1409294415995372,-0.0008532270980345624,-0.0006707309485979525,-8.445431817128381e-05,-0.00014064633332216392,3.1410627816420624,,,,
2025-04-30 00:02:20.739787,0.011824961999511885,-0.011494562170410338,0.13773282442748097,0.0,0.0,-3.8407257169326456e-05,-3.771985375348483e-05,3.1409609575738884,-0.0006825816784276499,-0.0005365847588783621,-9.564046607420705e-05,-0.00014943988384507614,3.140970280868704,,,,
2025-04-30 00:02:20.752575,-0.0001460463012694646,-0.011494562170410338,-0.1447099236641221,0.0,0.0,-3.8407257169326456e-05,-3.771985375348483e-05,3.1409286592298327,-0.0005460653427421199,-0.0004292678071026897,-0.00010436935970848436,-0.00015630176050255226,3.141001021968129,,,,
2025-04-30 00:02:20.766784,0.011824961999511885,0.007659051110839643,0.06903053435114509,0.0,0.0,-3.8407257169326456e-05,-3.771985375348483e-05,3.1409457775535463,-0.00043685227419369596,-0.00034341424568215176,-0.00011212802909329144,-0.00016240093349918715,3.1409651365249527,,,,
2025-04-30 00:02:20.779504,0.04294958358154277,-0.035436578771972815,0.061396946564885535,0.0,0.0,-5.0659675659717226e-05,-3.637743770772493e-05,3.1409594081525154,-0.0009632322665302137,0.00010553495633518733,-0.0001176848372151591,-0.0001667691998040697,3.1409804618396953,,,,
2025-04-30 00:02:20.793862,-0.019299659582519446,0.038783672692870974,0.09956488549618325,0.0,0.0,-5.0659675659717226e-05,-3.637743770772493e-05,3.1409843594571734,-0.000770585813224171,8.442796506814988e-05,-0.00013151542746791988,-0.00016525387396923983,3.1409958481268503,,,,
2025-04-30 00:02:20.811440,0.05013218856201185,-0.0498017887329103,0.007961832061068708,0.0,0.0,-7.910445936325998e-05,-1.98341848426563e-05,3.1409868020503957,-0.0016182360370412632,0.0009411528045054501,-0.00014506051377205167,-0.0001637698289041672,3.1410263934225333,,,,
2025-04-30 00:02:20.828939,0.009430760339355526,-0.045013385412597806,0.1835343511450382,0.0,0.0,-7.910445936325998e-05,-1.98341848426563e-05,3.1410428568924065,-0.0012945888296330107,0.0007529222436043602,-0.00017337836350605226,-0.00014730039979452553,3.1410288251157588,,,,
2025-04-30 00:02:20.841647,0.011824961999511885,0.007659051110839643,-0.129442748091603,0.0,0.0,-7.910445936325998e-05,-1.98341848426563e-05,3.1410141476060893,-0.0010356710637064086,0.0006023377948834881,-0.00018982962326677524,-0.00013773248206988935,3.1410695314536086,,,,
2025-04-30 00:02:20.854249,-0.014511256262207173,0.05314888265380846,-0.17524427480916033,0.0,0.0,-8.964198557376087e-05,-2.066892306579421e-05,3.1409756015237895,-0.0008361412121835211,-6.62355676093045e-05,-0.00020288173793382299,-0.00013014147924802753,3.1410410597056644,,,,
2025-04-30 00:02:20.867740,-0.014511256262207173,0.038783672692870974,-0.213412213740458,0.0,0.0,-8.964198557376087e-05,-2.066892306579421e-05,3.1409253521818266,-0.0006689129697468169,-5.29884540874436e-05,-0.0002141618488533444,-0.0001310350418886003,3.140999797261788,,,,
2025-04-30 00:02:20.880968,0.016613365319824158,-0.01867716715087908,0.10719847328244275,0.0,0.0,-8.964198557376087e-05,-2.066892306579421e-05,3.140950101657278,-0.0005351303757974536,-4.239076326995488e-05,-0.00022301034869991312,-0.00013173598259250103,3.1409505256613333,,,,
2025-04-30 00:02:20.894173,-0.012117054602050814,0.019630059411620993,-0.03783969465648851,0.0,0.0,-8.964198557376087e-05,-2.066892306579421e-05,3.1409413811537275,-0.0004281043006379629,-3.391261061596391e-05,-0.00023007639007478493,-0.00013229572448106704,3.1409752305294716,,,,
2025-04-30 00:02:20.907162,-0.004934449621582182,-0.023465570471191577,0.1453664122137405,0.0,0.0,-8.964198557376087e-05,-2.066892306579421e-05,3.140974336555085,-0.00034248344051037035,-2.7130088492771128e-05,-0.00023563715782148542,-0.00013273622496433394,3.1409666520531534,,,,
2025-04-30 00:02:20.919682,0.0381611802612305,0.04117787435302722,-0.213412213740458,0.0,0.0,-9.971086866409375e-05,-2.7323778948086496e-05,3.1409277015709227,-0.0008042037670205188,-0.0005315247104871474,-0.00023992515778404456,-0.00013307590217111472,3.140998417621827,,,,
2025-04-30 00:02:20.933789,0.019007566979980517,-0.006706158850097843,0.1682671755725191,0.0,0.0,-9.971086866409375e-05,-2.7323778948086496e-05,3.1409691298046134,-0.0006433630136164151,-0.00042521976838971797,-0.00025126966793001944,-0.0001405738619149466,3.140945874450331,,,,
2025-04-30 00:02:20.948005,-0.0001460463012694646,0.005264849450683395,-0.022572519083969456,0.0,0.0,-9.971086866409375e-05,-2.7323778948086496e-05,3.1409635291285904,-0.0005146904108931321,-0.0003401758147117744,-0.0002604158353067537,-0.00014661886464478537,3.1409876247721367,,,,
2025-04-30 00:02:20.962396,-0.028876466223144437,0.024418462731933488,0.09956488549618325,0.0,0.0,-9.971086866409375e-05,-2.7323778948086496e-05,3.1409885376077975,-0.0004117523287145057,-0.00027214065176941956,-0.0002678229623491262,-0.00015151447844093178,3.1409819550586495,,,,
2025-04-30 00:02:20.975949,0.04773798690185549,0.036389471032714726,-0.045473282442748064,0.0,0.0,-0.00011377612815240712,-3.748281735240362e-05,3.1409777816086772,-0.001037840615957475,-0.0007496102495536993,-0.00027340320584628774,-0.00015520264483719897,3.1410055055868558,,,,
2025-04-30 00:02:20.989317,-0.004934449621582182,0.02202426107177724,-0.09127480916030534,0.0,0.0,-0.00011377612815240712,-3.748281735240362e-05,3.14095648518402,-0.0008302724927659801,-0.0005996881996429594,-0.00028727744128018845,-0.00016522371062134946,3.140994895667839,,,,
2025-04-30 00:02:21.002138,0.004642357019042809,0.04596627767333972,-0.2592137404580152,0.0,0.0,-0.00011377612815240712,-3.748281735240362e-05,3.14089848145686,-0.0006642179942127841,-0.00047975055971436755,-0.0002979223309444785,-0.00017291228849643914,3.140974471290961,,,,
2025-04-30 00:02:21.015198,0.019007566979980517,0.0004764461303709,0.13009923664122142,0.0,0.0,-0.00011377612815240712,-3.748281735240362e-05,3.140928135405169,-0.0005313743953702273,-0.00038380044777149404,-0.0003065967629482149,-0.00017917764662472795,3.1409153878477456,,,,
2025-04-30 00:02:21.028358,-0.040847474523925786,-0.004311957189941595,-0.022572519083969456,0.0,0.0,-0.00011377612815240712,-3.748281735240362e-05,3.1409229508325014,-0.0004250995162961818,-0.00030704035821719523,-0.00031358964484262463,-0.00018422845679863121,3.1409452697117883,,,,
2025-04-30 00:02:21.041095,0.004642357019042809,0.05075468099365221,0.007961832061068708,0.0,0.0,-0.00011982593896485917,-4.938462142823743e-05,3.140924720806463,-0.00047496903432747185,-0.0009344074656050847,-0.00031900425393119027,-0.00018813931402247464,3.1409402516743916,,,,
2025-04-30 00:02:21.053654,-0.021693861242675805,-0.025859772131347825,-0.4118854961832061,0.0,0.0,-0.00011982593896485917,-4.938462142823743e-05,3.1408344342186196,-0.0003799752274619775,-0.0007475259724840679,-0.00032496958662770023,-0.00019987492414352085,3.140941996932859,,,,
2025-04-30 00:02:21.066528,-0.0025402479614258233,0.007659051110839643,0.15300000000000002,0.0,0.0,-0.00011982593896485917,-4.938462142823743e-05,3.140868810143845,-0.000303980181969582,-0.0005980207779872544,-0.0003298610733753423,-0.00020949795512990255,3.140849454808557,,,,
2025-04-30 00:02:21.079457,0.0070365586791991674,0.0004764461303709,-0.1447099236641221,0.0,0.0,-0.00011982593896485917,-4.938462142823743e-05,3.140836155920055,-0.0002431841455756656,-0.0004784166223898035,-0.00033379122181185204,-0.00021722974346682157,3.140883979712678,,,,
2025-04-30 00:02:21.092508,-0.021693861242675805,0.03160106771240223,-0.17524427480916033,0.0,0.0,-0.00011982593896485917,-4.938462142823743e-05,3.1407962374370872,-0.0001945473164605325,-0.00038273329791184283,-0.0003369650841053237,-0.00022347368866636844,3.140851016578052,,,,
2025-04-30 00:02:21.105466,0.004642357019042809,-0.013888763830566586,0.030862595419847372,0.0,0.0,-0.00011982593896485917,-4.938462142823743e-05,3.140803217212784,-0.00015563785316842602,-0.0003061866383294743,-0.00033948599153175573,-0.00022843307454021325,3.1408113839511214,,,,
2025-04-30 00:02:21.118215,-0.019299659582519446,-0.011494562170410338,-0.15997709923664122,0.0,0.0,-0.00011982593896485917,-4.938462142823743e-05,3.14076761917383,-0.00012451028253474081,-0.00024494931066357944,-0.00034147028599352614,-0.00023233678072952823,3.140818251483282,,,,
2025-04-30 00:02:21.131192,0.02619017196044915,-0.04022498209228531,-0.08364122137404578,0.0,0.0,-0.00011982593896485917,-4.938462142823743e-05,3.1407486753265337,-9.960822602779266e-05,-0.00019595944853086357,-0.00034308604159161425,-0.00023551545972611693,3.1407820183713184,,,,
2025-04-30 00:02:21.143991,0.021401768640136876,0.005264849450683395,-0.03783969465648851,0.0,0.0,-0.00011982593896485917,-4.938462142823743e-05,3.140740222501802,-7.968658082223414e-05,-0.00015676755882469088,-0.00034436092972510435,-0.00023802354952492081,3.140763334167045,,,,
2025-04-30 00:02:21.156966,0.0070365586791991674,-0.00910036051025409,0.07666412213740459,0.0,0.0,-0.00011982593896485917,-4.938462142823743e-05,3.140757584196224,-6.37492646577873e-05,-0.0001254140470597527,-0.0003453948993153125,-0.00024005767982494583,3.140754764823298,,,,
2025-04-30 00:02:21.169513,0.004642357019042809,-0.028253973791504072,-0.39661832061068697,0.0,0.0,-0.00011982593896485917,-4.938462142823743e-05,3.140670731692379,-5.099941172622985e-05,-0.00010033123764780217,-0.00034619474716911995,-0.00024163122199702478,3.1407715529306963,,,,
2025-04-30 00:02:21.183309,-0.024088062902832164,-0.006706158850097843,0.023229007633587817,0.0,0.0,-0.00011982593896485917,-4.938462142823743e-05,3.1406763248437333,-4.079952938098388e-05,-8.026499011824174e-05,-0.00034689832753909946,-0.00024301537696892297,3.140676053960958,,,,
2025-04-30 00:02:21.196509,0.016613365319824158,0.04117787435302722,-0.07600763358778623,0.0,0.0,-0.00011982593896485917,-4.938462142823743e-05,3.140658814515381,-3.2639623504787104e-05,-6.421199209459339e-05,-0.0003474368636931597,-0.00024407484014753763,3.1406814053649126,,,,
2025-04-30 00:02:21.209590,-0.0025402479614258233,0.036389471032714726,-0.15234351145038166,0.0,0.0,-0.00011982593896485917,-4.938462142823743e-05,3.1406240320345375,-2.6111698803829683e-05,-5.136959367567472e-05,-0.00034786384057954197,-0.00024491483257113074,3.140664051596222,,,,
2025-04-30 00:02:21.223499,0.0142191636596678,0.0004764461303709,-0.2592137404580152,0.0,0.0,-0.00011982593896485917,-4.938462142823743e-05,3.1405611086421135,-2.088935904306375e-05,-4.1095674940539776e-05,-0.0003482270121716393,-0.00024562930072047427,3.1406270706455315,,,,
2025-04-30 00:02:21.237852,-0.012117054602050814,0.005264849450683395,0.2217022900763359,0.0,0.0,-0.00011982593896485917,-4.938462142823743e-05,3.140616646784242,-1.6711487234451e-05,-3.287653995243182e-05,-0.00034852683791239424,-0.0002462191484585246,3.140562135594323,,,,
2025-04-30 00:02:21.251858,0.0142191636596678,0.024418462731933488,-0.19051145038167933,0.0,0.0,-0.00011982593896485917,-4.938462142823743e-05,3.1405700732683086,-1.3369189787560801e-05,-2.6301231961945458e-05,-0.00034876091325923054,-0.0002466796453241942,3.140616334200856,,,,
2025-04-30 00:02:21.265510,0.021401768640136876,-0.013888763830566586,-0.213412213740458,0.0,0.0,-0.00011982593896485917,-4.938462142823743e-05,3.1405192253815892,-1.0695351830048641e-05,-2.1040985569556368e-05,-0.0003489434210290193,-0.00024703869319952154,3.140570942681421,,,,
2025-04-30 00:02:21.278697,0.002248155358886894,0.024418462731933488,-0.33554961832061064,0.0,0.0,-0.00011982593896485917,-4.938462142823743e-05,3.14044199683341,-8.556281464038914e-06,-1.6832788455645094e-05,-0.0003490844599021482,-0.00024731615923723654,3.1405218247133737,,,,
2025-04-30 00:02:21.292247,-0.026482264562988522,0.014841656091308497,-0.022572519083969456,0.0,0.0,-0.00011982593896485917,-4.938462142823743e-05,3.140436658499751,-6.845025171231131e-06,-1.3466230764516075e-05,-0.00034920039992479015,-0.00024754424825965555,3.1404424682261705,,,,
2025-04-30 00:02:21.306633,-0.03605907120361351,0.01244745443115225,-0.007305343511450346,0.0,0.0,-0.00011982593896485917,-4.938462142823743e-05,3.1404348242595255,-5.476020136984905e-06,-1.0772984611612862e-05,-0.0003492988720369229,-0.00024773797262920536,3.140436800673039,,,,
2025-04-30 00:02:21.320413,-0.021693861242675805,-0.023465570471191577,0.2598702290076336,0.0,0.0,-0.00011982593896485917,-4.938462142823743e-05,3.140497326317407,-4.380816109587924e-06,-8.61838768929029e-06,-0.00034937433354088106,-0.0002478864281864484,3.140435043646062,,,,
2025-04-30 00:02:21.335568,0.011824961999511885,-0.03064817545166032,-0.06074045801526712,0.0,0.0,-0.00011982593896485917,-4.938462142823743e-05,3.140481260102323,-3.5046528876703397e-06,-6.894710151432232e-06,-0.0003494407251462597,-0.00024801704051532813,3.1405037808787,,,,
2025-04-30 00:02:21.349213,-0.0025402479614258233,-0.013888763830566586,-0.2592137404580152,0.0,0.0,-0.00011982593896485917,-4.938462142823743e-05,3.1404195318401587,-2.803722310136272e-06,-5.515768121145786e-06,-0.00034948854339583236,-0.000248111113446748,3.14048931635645,,,,
2025-04-30 00:02:21.361777,0.011824961999511885,0.005264849450683395,-0.007305343511450346,0.0,0.0,-0.00011982593896485917,-4.938462142823743e-05,3.1404179298476556,-2.242977848109018e-06,-4.4126144969166285e-06,-0.0003495237705424631,-0.00024818041587790614,3.140432473243152,,,,
2025-04-30 00:02:21.374142,0.002248155358886894,-0.035436578771972815,0.046129770992366426,0.0,0.0,-0.00011982593896485917,-4.938462142823743e-05,3.140427885194521,-1.7943822784872144e-06,-3.530091597533303e-06,-0.00034955150519406115,-0.00024823497830963584,3.140430896664143,,,,
2025-04-30 00:02:21.388234,0.02619017196044915,0.0028706477905271477,-0.1447099236641221,0.0,0.0,-0.00011982593896485917,-4.938462142823743e-05,3.1403922942102116,-1.4355058227897716e-06,-2.8240732780266426e-06,-0.00034957679114485773,-0.0002482847234077194,3.140442242146982,,,,
2025-04-30 00:02:21.401583,0.03576697860107414,-0.047407587072754054,-0.2439465648854961,0.0,0.0,-0.00012608041270148956,-4.1134774078376284e-05,3.140335458323819,-0.0004685330275306993,0.0006180097827989285,-0.0003495959537928246,-0.00024832242212074465,3.1404085269078066,,,,
2025-04-30 00:02:21.415092,0.016613365319824158,-0.0019177555297853477,0.08429770992366414,0.0,0.0,-0.00012608041270148956,-4.1134774078376284e-05,3.140355334498453,-0.0003748264220245595,0.0004944078262391428,-0.0003559256063261107,-0.00023997341157626917,3.140351007853857,,,,
2025-04-30 00:02:21.428025,0.08604521346435545,0.05075468099365221,-0.33554961832061064,0.0,0.0,-0.00014494390435561567,-4.316877202807341e-05,3.1402795985794185,-0.0014586607639768406,-0.0001572833416862973,-0.0003607728849108375,-0.00023357969884036894,3.1403700344424297,,,,
2025-04-30 00:02:21.441215,0.0070365586791991674,-0.028253973791504072,0.15300000000000002,0.0,0.0,-0.00014494390435561567,-4.316877202807341e-05,3.1403148206283733,-0.0011669286111814726,-0.00012582667334903785,-0.00038001266568149473,-0.00023565427100111623,3.1402927877425397,,,,
2025-04-30 00:02:21.453945,-0.033664869543457154,0.01244745443115225,-0.09127480916030534,0.0,0.0,-0.00014494390435561567,-4.316877202807341e-05,3.140294539820337,-0.0009335428889451782,-0.00010066133867923028,-0.00039486864346738174,-0.00023725614985320196,3.140326783580582,,,,
2025-04-30 00:02:21.467021,-0.040847474523925786,-0.025859772131347825,-0.2439465648854961,0.0,0.0,-0.00014494390435561567,-4.316877202807341e-05,3.140238866232389,-0.0007468343111561426,-8.052907094338422e-05,-0.00040707571280336653,-0.0002385724042591445,3.140305952805131,,,,
2025-04-30 00:02:21.479979,0.019007566979980517,-0.004311957189941595,-0.12180916030534344,0.0,0.0,-0.00014494390435561567,-4.316877202807341e-05,3.1402113198230492,-0.0005974674489249141,-6.442325675470738e-05,-0.00041675251674368457,-0.00023961582717018984,3.1402507857559816,,,,
2025-04-30 00:02:21.493063,0.05013218856201185,0.007659051110839643,-0.11417557251908389,0.0,0.0,-0.00016101748606440862,-4.5267971788872604e-05,3.1401852464721145,-0.0012284751554422844,-0.00016043809022611732,-0.0004245698843282827,-0.0002404587522198385,3.1402229691844186,,,,
2025-04-30 00:02:21.506114,0.011824961999511885,-0.011494562170410338,0.046129770992366426,0.0,0.0,-0.00016101748606440862,-4.5267971788872604e-05,3.1401957538807115,-0.0009827801243538275,-0.00012835047218089386,-0.0004406024612549326,-0.00024255259678162693,3.140196962348346,,,,
2025-04-30 00:02:21.518945,0.05252639022216776,0.005264849450683395,0.0919312977099237,0.0,0.0,-0.00018185277532570214,-4.771985178607194e-05,3.1402163423731446,-0.0016237372183166186,-0.00019108008323621666,-0.000453213189111741,-0.00024419954998596683,3.140207293350569,,,,
2025-04-30 00:02:21.532434,-0.03605907120361351,0.029206866052245983,-0.3737175572519084,0.0,0.0,-0.00018185277532570214,-4.771985178607194e-05,3.1401283573898735,-0.001298989774653295,-0.00015286406658897333,-0.00047511618048716773,-0.0002467770763048361,3.14022893689804,,,,
2025-04-30 00:02:21.549464,-0.019299659582519446,-0.011494562170410338,0.09956488549618325,0.0,0.0,-0.00018185277532570214,-4.771985178607194e-05,3.140157950190714,-0.001039191819722636,-0.00012229125327117867,-0.0004972373578348661,-0.00024938027857254264,3.1401178600943336,,,,
2025-04-30 00:02:21.562679,0.0142191636596678,0.005264849450683395,-0.19051145038167933,0.0,0.0,-0.00018185277532570214,-4.771985178607194e-05,3.140114008618693,-0.0008313534557781088,-9.783300261694294e-05,-0.0005109705930451432,-0.0002509963945902581,3.1401408247905658,,,,
2025-04-30 00:02:21.575788,0.03576697860107414,0.024418462731933488,-0.10654198473282439,0.0,0.0,-0.00018185277532570214,-4.771985178607194e-05,3.140089633267568,-0.0006650827646224871,-7.826640209355436e-05,-0.0005218683830842381,-0.0002522788377123785,3.140097238372422,,,,
2025-04-30 00:02:21.588831,0.030978575280761866,0.10103291585693341,-0.15997709923664122,0.0,0.0,-0.00019554547909121214,-6.555795033812728e-05,3.14005321376101,-0.0010497607738122372,-0.0013675703834703597,-0.0005305434845956526,-0.0002532997166453639,3.1400729836101458,,,,
2025-04-30 00:02:21.602444,-0.016905457922363087,0.0004764461303709,-0.11417557251908389,0.0,0.0,-0.00019554547909121214,-6.555795033812728e-05,3.1400260875748254,-0.0008398086190497898,-0.0010940563067762877,-0.0005448333623395667,-0.00027191578048914826,3.1400349757553707,,,,
2025-04-30 00:02:21.615693,-0.016905457922363087,0.03160106771240223,-0.19051145038167933,0.0,0.0,-0.00019554547909121214,-6.555795033812728e-05,3.1399820334317092,-0.0006718468952398318,-0.0008752450454210302,-0.0005559601201447272,-0.00028641110629859485,3.1400085736309733,,,,
2025-04-30 00:02:21.628946,0.011824961999511885,-0.013888763830566586,-0.297381679389313,0.0,0.0,-0.00019554547909121214,-6.555795033812728e-05,3.139913246663004,-0.0005374775161918655,-0.0007001960363368242,-0.0005648640892813697,-0.0002980107057410336,3.13996450680379,,,,
2025-04-30 00:02:21.641937,0.02619017196044915,-0.004311957189941595,0.06903053435114509,0.0,0.0,-0.00019554547909121214,-6.555795033812728e-05,3.1399288977182427,-0.0004299820129534924,-0.0005601568290694594,-0.0005718461773577776,-0.000307106584636757,3.139897082480123,,,,
2025-04-30 00:02:21.654576,-0.024088062902832164,-0.025859772131347825,-0.03783969465648851,0.0,0.0,-0.00019554547909121214,-6.555795033812728e-05,3.1399205503904577,-0.00034398561036279394,-0.00044812546325556754,-0.0005772808421919679,-0.0003141865659589166,3.139912310417416,,,,
2025-04-30 00:02:21.667341,-0.024088062902832164,0.02202426107177724,-0.13707633587786255,0.0,0.0,-0.00019554547909121214,-6.555795033812728e-05,3.139890010003199,-0.00027518848829023517,-0.00035850037060445407,-0.0005816719587038002,-0.0003199070701363986,3.139903879794281,,,,
2025-04-30 00:02:21.680562,0.011824961999511885,-0.013888763830566586,-0.28211450381679387,0.0,0.0,-0.00019554547909121214,-6.555795033812728e-05,3.139824913135508,-0.00022015079063218815,-0.00028680029648356326,-0.00058531016710564,-0.000324646727192911,3.1398722499419356,,,,
2025-04-30 00:02:21.693945,0.0070365586791991674,0.0028706477905271477,-0.014938931297709901,0.0,0.0,-0.00019554547909121214,-6.555795033812728e-05,3.1398214237615982,-0.00017612063250575054,-0.00022944023718685062,-0.0005882564256934214,-0.00032848495023115893,3.139806354800602,,,,
2025-04-30 00:02:21.708056,0.009430760339355526,0.026812664392089736,-0.11417557251908389,0.0,0.0,-0.00019554547909121214,-6.555795033812728e-05,3.13979330460354,-0.00014089650600460044,-0.0001835521897494805,-0.0005907416293493444,-0.00033172253635698666,3.139802675640856,,,,
2025-04-30 00:02:21.720515,0.021401768640136876,0.0028706477905271477,-0.06074045801526712,0.0,0.0,-0.00019554547909121214,-6.555795033812728e-05,3.1397800965141567,-0.00011271720480368036,-0.0001468417517995844,-0.0005924970645095718,-0.000334009420373915,3.1397778480182716,,,,
2025-04-30 00:02:21.733617,0.021401768640136876,-0.028253973791504072,-0.030206106870228955,0.0,0.0,-0.00019554547909121214,-6.555795033812728e-05,3.1397731890374385,-9.017376384294429e-05,-0.00011747340143966752,-0.000593973918354688,-0.00033593338403275954,3.1397639580025407,,,,
2025-04-30 00:02:21.747537,-0.014511256262207173,-0.013888763830566586,-0.05310687022900762,0.0,0.0,-0.00019554547909121214,-6.555795033812728e-05,3.139760287110505,-7.213901107435543e-05,-9.397872115173402e-05,-0.0005952291003478012,-0.00033756856584033764,3.1397566196491016,,,,
2025-04-30 00:02:21.761264,-0.0025402479614258233,-0.016282965490722834,-0.25158015267175565,0.0,0.0,-0.00019554547909121214,-6.555795033812728e-05,3.139700012372821,-5.7711208859484344e-05,-7.518297692138722e-05,-0.0005962193661229136,-0.00033885862942395777,3.1397438960592705,,,,
2025-04-30 00:02:21.774491,-0.019299659582519446,-0.006706158850097843,-0.4729541984732824,0.0,0.0,-0.00019554547909121214,-6.555795033812728e-05,3.1395908248531694,-4.616896708758748e-05,-6.0146381537109784e-05,-0.0005969827389894308,-0.0003398531094520145,3.1396858155665877,,,,
2025-04-30 00:02:21.787774,-0.033664869543457154,-0.08092641031494152,0.1453664122137405,0.0,0.0,-0.00019029796575664392,-5.235941932678188e-05,3.1396245254878097,0.0003950544068571574,0.0009936397504174978,-0.0005975960020393553,-0.0003406520346979139,3.139576169490842,,,,
2025-04-30 00:02:21.801411,0.06928580184326183,-0.025859772131347825,-0.13707633587786255,0.0,0.0,-0.00019763552744317723,-3.4342688131000645e-05,3.1395919008568725,-0.0005380789623762751,0.001321205114367963,-0.000592208807440537,-0.0003271021777574348,3.1396107671879485,,,,
2025-04-30 00:02:21.819659,0.016613365319824158,-0.006706158850097843,-0.3737175572519084,0.0,0.0,-0.00019763552744317723,-3.4342688131000645e-05,3.1394728758886936,-0.00043046316990102013,0.0010569640914943705,-0.0006020277160419057,-0.0003029927195389807,3.139567109869208,,,,
2025-04-30 00:02:21.834253,0.0142191636596678,0.014841656091308497,-0.030206106870228955,0.0,0.0,-0.00019763552744317723,-3.4342688131000645e-05,3.139465181948836,-0.0003443705359208161,0.0008455712731954964,-0.0006083099291471029,-0.00028756730307690414,3.1394719185086792,,,,
2025-04-30 00:02:21.851728,0.08843941512451181,0.026812664392089736,0.2217022900763359,0.0,0.0,-0.00023001543989998325,-2.7831468303331042e-05,3.139532798974951,-0.00185296472204043,0.00037260942734840415,-0.0006143276841929414,-0.0002727912398975088,3.1394627059420595,,,,
2025-04-30 00:02:21.866153,0.002248155358886894,0.029206866052245983,-0.15234351145038166,0.0,0.0,-0.00023001543989998325,-2.7831468303331042e-05,3.139494444297571,-0.001482371777632344,0.00029808754187872336,-0.000641056773113919,-0.0002674163342676688,3.139518522692831,,,,
2025-04-30 00:02:21.878930,0.16505386824951174,0.03399526937255848,-0.49585496183206107,0.0,0.0,-0.00027499843828244076,-2.947974023411647e-05,3.139383863378589,-0.0035204666663096857,-0.00012899732338889482,-0.0006599978776878006,-0.0002636075007563386,3.1394845484729603,,,,
2025-04-30 00:02:21.892333,0.06449739852294911,0.007659051110839643,-0.9844045801526717,0.0,0.0,-0.00033259710929629523,-3.2494751477549205e-05,3.139153586131356,-0.00429746577892582,-0.000224951503457644,-0.0007071824771143719,-0.0002653364439926014,3.1393685553965978,,,,
2025-04-30 00:02:21.905379,0.019007566979980517,-0.07613800699462903,-0.4882213740458015,0.0,0.0,-0.0003906775117945556,-2.2663722764403695e-05,3.139042422054266,-0.004452042554919102,0.0007535787685160472,-0.0007632463037924723,-0.00026827111357453806,3.1391444143973435,,,,
2025-04-30 00:02:21.919879,0.11238143172607407,-0.006706158850097843,-0.23631297709923665,0.0,0.0,-0.0004770922482190926,-1.0513256905069826e-05,3.1389826180824945,-0.0059596769759176094,0.0008379687843147062,-0.000827800487767338,-0.0002573442947352645,3.1390208597046207,,,,
2025-04-30 00:02:21.933028,0.4212334458862306,0.14412854573974593,-0.6485267175572518,0.0,0.0,-0.0006253253384690494,-2.3938448804905946e-05,3.1388337879555066,-0.011273520278653753,-0.0010210215065503216,-0.0009061629968324549,-0.00024632602365740367,3.1389666283376805,,,,
2025-04-30 00:02:21.946129,0.37574361434326153,-0.0019177555297853477,-0.7782977099236641,0.0,0.0,-0.0008332631566915347,-3.653901364837617e-05,3.1386558277048424,-0.015872070878848444,-0.0009618118532680581,-0.0010538558359284634,-0.0002597022860273782,3.13881834063781,,,,
2025-04-30 00:02:21.958920,2.2001252793823243,0.19680098226318343,-5.419519083969466,0.0,0.0,-0.0013851070201250147,-7.868654496560151e-05,3.1374459545398445,-0.04314341224952001,-0.0032951137802002557,-0.001256874198588714,-0.00027200474291080347,3.1386445906243816,,,,
2025-04-30 00:02:21.971612,0.5457319322143555,-0.18627128336181653,-6.480587786259543,0.0,0.0,-0.002007756748277635,-8.978446713407641e-05,3.136010314920113,-0.04905577409300764,-0.0008743554171520364,-0.0018044801513111912,-0.00031382860029370205,3.137444008736835,,,,
2025-04-30 00:02:21.984964,0.21054369979248033,0.40270232503662096,-7.457687022900764,0.0,0.0,-0.0026869561523051393,-0.00017131226645663398,3.134272382405202,-0.050868145940577786,-0.006105965302033829,-0.002459480484270058,-0.0003255031299479106,3.1359337785280736,,,,
2025-04-30 00:02:21.998051,0.24406252303466802,-0.13599304849853533,-5.67906106870229,0.0,0.0,-0.003380108155343703,-0.0002264445631467314,3.132975241268236,-0.05296575367011585,-0.004212818592393194,-0.003125181523269214,-0.0004054106510595508,3.134230385571563,,,,
2025-04-30 00:02:22.011140,1.3166648667846679,-0.2892219547485353,-8.068374045801527,0.0,0.0,-0.004280068978060119,-0.0002296138494647934,3.131132026968139,-0.06875608886270958,-0.00024213024191243563,-0.003818459806505088,-0.00046055299189187634,3.1329330081181213,,,,
2025-04-30 00:02:22.023981,1.1825895738159178,0.7067659358764646,-11.076007633587787,0.0,0.0,-0.005337797863217895,-0.00034437389901162657,3.1286498382139465,-0.0823759004369578,-0.008937509931195792,-0.004701306620133783,-0.0004636620098143817,3.1311248451063536,,,,
2025-04-30 00:02:22.036775,1.2256852036987305,0.007659051110839643,-12.709595419847329,0.0,0.0,-0.00656727573392517,-0.0004545614572649554,3.1258117614565823,-0.09609608018595689,-0.008612267602112632,-0.005755244995880621,-0.000578010801756444,3.1286515515992934,,,,
2025-04-30 00:02:22.049680,-1.3720235975708008,-1.1319809391235354,-10.366083969465649,0.0,0.0,-0.007555378933541156,-0.00038281096992268224,3.1234768942295883,-0.07656533840569985,0.00555974350277385,-0.006995399434945043,-0.0006891552092754877,3.1257888294853724,,,,
2025-04-30 00:02:22.062223,-1.5611655287231443,-0.3395001896118165,-12.266847328244275,0.0,0.0,-0.008254783087181217,-0.00026714697028360455,3.120791536090281,-0.05576174040505482,0.009221600827672255,-0.00795573738919134,-0.0006194208776214333,3.12351957095339,,,,
2025-04-30 00:02:22.075489,-0.637003687902832,-0.41132623941650404,-11.053106870229009,0.0,0.0,-0.008868219681060564,-7.891275226860255e-05,3.1182324260927485,-0.046242623282791516,0.014189639352214144,-0.008695450875895511,-0.0004970907198523053,3.120679445366577,,,,
2025-04-30 00:02:22.088249,0.7683926866088866,0.3548182918334959,-9.763030534351145,0.0,0.0,-0.00957054248783201,4.5064258014776496e-05,3.1160580104760482,-0.05503718696135693,0.009715398429453093,-0.009285547331938003,-0.0003160184687592616,3.1182177048130555,,,,
2025-04-30 00:02:22.101578,3.3182174546752927,-0.24612632486572283,-11.282114503816794,0.0,0.0,-0.010865627459450166,0.000231055924325626,3.113433578551795,-0.09716969118811339,0.013954878000326666,-0.010019087110054652,-0.0001865309058636568,3.1159466403771163,,,,
2025-04-30 00:02:22.114595,3.3254000596557614,0.3452414851928709,-7.732496183206107,0.0,0.0,-0.012659010980726396,0.0003682942287179205,3.1116767160475236,-0.13776296545526592,0.010542282541818252,-0.011284031736996852,-4.867799494677282e-06,3.113383286516858,,,,
2025-04-30 00:02:22.128247,-0.7112239393676756,0.6445166927124022,-12.785931297709924,0.0,0.0,-0.0143761083417632,0.00038740581028335935,3.10863032252191,-0.12578204495068124,0.001399975252475575,-0.013164685088789574,0.00013904881069367087,3.111540931371905,,,,
2025-04-30 00:02:22.140656,1.9487341050659177,0.37397190511474593,-15.228679389312978,0.0,0.0,-0.016201721437514766,0.00035869221829126297,3.105332007775277,-0.14711476320319664,-0.0023138491372902054,-0.014725570913383597,0.00015642173166365808,3.1087716810206065,,,,
2025-04-30 00:02:22.153805,2.7507916612182615,0.23989661214599595,-14.366083969465649,0.0,0.0,-0.018564628498328295,0.00030669642035878296,3.1020352606933694,-0.17971187598459468,-0.00395456196510105,-0.01665988110194644,0.00012599853100312412,3.105276984453001,,,,
2025-04-30 00:02:22.167415,7.266255992272948,0.057937285974120956,-13.19814503816794,0.0,0.0,-0.022279907606826438,0.00029973936314802086,3.0989001537129486,-0.2729790667581711,-0.0005111677829084401,-0.019105782124042257,7.217644996708252e-05,3.1018644435236706,,,,
2025-04-30 00:02:22.180792,3.928738878015136,-0.19824229166259777,-8.18287786259542,0.0,0.0,-0.02654531491718492,0.0003584899118624643,3.096989648089876,-0.31885675738692904,0.004391845395936141,-0.02275747486678753,6.533846159918484e-05,3.0987829933623767,,,,
2025-04-30 00:02:22.194254,-0.1605575575317384,-0.31795237467041026,-5.915702290076336,0.0,0.0,-0.030720928248290404,0.0004715321733327306,3.0955996855201544,-0.3101707552839645,0.00839694694861921,-0.027050021808032836,0.0001244628241350273,3.0968603317097285,,,,
2025-04-30 00:02:22.206572,1.5752386460815428,-0.025859772131347825,-3.5263893129770993,0.0,0.0,-0.034698962268894434,0.0005876838754102422,3.094841554698103,-0.3229475274316379,0.009429508344730777,-0.030870672879520746,0.0002278955424359448,3.0955885276512025,,,,
2025-04-30 00:02:22.220684,5.4059613023315425,0.7977455989624022,-6.205778625954199,0.0,0.0,-0.04022636641147166,0.000613501240517961,3.0933131181733797,-0.39169448713976224,0.0018295241897135458,-0.03542795300361852,0.00036096022728185134,3.0947200045292518,,,,
2025-04-30 00:02:22.233933,4.510529881433105,0.5655080379272459,-4.106541984732825,0.0,0.0,-0.04609210701981824,0.0005782718864698784,3.092363498381901,-0.4427175429451965,-0.002658940124546342,-0.0406176688752699,0.0003852003201007698,3.0932849454876905,,,,
2025-04-30 00:02:22.246603,1.9559167100463866,-1.3714011051391601,-4.68669465648855,0.0,0.0,-0.05188576039105281,0.00077620061974186,3.091327091734197,-0.4572632992037083,0.015621498178078124,-0.04622702346300045,0.00035151080807713816,3.0923768326866656,,,,
2025-04-30 00:02:22.260197,-2.542788209387207,-1.1990185856079103,-1.8011984732824429,0.0,0.0,-0.05750644074294684,0.0011778280590987256,3.0908997495366783,-0.4134776568449301,0.029545172853308866,-0.052442911550129714,0.00056386435710966,3.0912648939284946,,,,
2025-04-30 00:02:22.273400,0.44517546248779283,0.32848207357177717,8.80185496183206,0.0,0.0,-0.06293495484402906,0.0015077547135279505,3.0929279610927662,-0.4111679862797161,0.024989394076479265,-0.05790191946311,0.000953939442731692,3.0908498437403056,,,,
2025-04-30 00:02:22.287566,-3.7758020643676753,-0.7704564884399415,-1.6561603053435112,0.0,0.0,-0.06789400740346083,0.001969590619554054,3.09251848311057,-0.350064358453556,0.03260144719506051,-0.06372657314600516,0.0013079421158431709,3.0930260617052734,,,,
2025-04-30 00:02:22.301139,0.6989608384643553,0.35721249349365214,0.3972748091603054,0.0,0.0,-0.07267983444320737,0.002345019141233074,3.092612599429202,-0.35258226473893567,0.027658633987781903,-0.06847822301579949,0.0017504626369377755,3.092633709340085,,,,
2025-04-30 00:02:22.314579,3.4905999742065426,1.7386668514038082,1.6797175572519085,0.0,0.0,-0.07795553285353655,0.0024319209362852826,3.0930065904738755,-0.39256107978351734,0.006466302629056537,-0.07321663899585347,0.0021221719552473903,3.0927268932902128,,,,
2025-04-30 00:02:22.328272,-1.4869452772583003,-0.4855464908813477,11.519412213740457,0.0,0.0,-0.0829464550332039,0.0025953053548978776,3.0957596578894955,-0.36447826830566366,0.011931676716308853,-0.07859210845545547,0.00221071718830566,3.0931283352725387,,,,
2025-04-30 00:02:22.345093,3.21766098494873,0.45776896322021465,18.32093893129771,0.0,0.0,-0.08985119235220816,0.0027012483732462345,3.10113824694689,-0.4104912383389162,0.00629838309351514,-0.08472287682780828,0.002411415975044129,3.096510158917756,,,,
2025-04-30 00:02:22.359892,-0.7926267958129882,-0.9548100162719727,8.236969465648855,0.0,0.0,-0.09562684068103425,0.0029908676357663514,3.1032658355461367,-0.3902634782947264,0.019569720027470483,-0.09079788298792724,0.002504627991570295,3.1012424115939714,,,,
2025-04-30 00:02:22.374906,-0.3018154554809569,0.4864993831420897,18.542312977099236,0.0,0.0,-0.10130609139576432,0.0031691674958309857,3.1081247880077547,-0.37825934496451263,0.011875437740472833,-0.09665736582039053,0.0027984511262333827,3.1034008824983736,,,,
2025-04-30 00:02:22.387401,0.4188392442260742,0.7642267757202147,21.31330534351145,0.0,0.0,-0.10600535675246786,0.00319954969297374,3.1127727851919658,-0.3760904343360372,0.0024315404328469456,-0.10138373180409133,0.0029468352064294535,3.107444582765285,,,,
2025-04-30 00:02:22.401522,1.4435575547729491,2.193565166833496,19.259870229007632,0.0,0.0,-0.11150236334296378,0.002811441618660025,3.117519632038856,-0.38927074120014443,-0.027483888779589582,-0.10669461540606417,0.0029811717038071093,3.1126975255454643,,,,
2025-04-30 00:02:22.416681,1.0533026841674804,0.029206866052245983,11.351473282442747,0.0,0.0,-0.11752244530431978,0.002401576864935218,3.120522873271157,-0.3971383115892319,-0.027038335577335242,-0.11259543559589905,0.0025645529635807676,3.117793078779949,,,,
2025-04-30 00:02:22.430607,-0.5627834364379884,-7.225224164221191,-10.51875572519084,0.0,0.0,-0.12280311085669321,0.0034028957874532198,3.1179661926823887,-0.3791874244402954,0.07190145626667828,-0.11812609000679503,0.0021880098662259433,3.1205521590507876,,,,
2025-04-30 00:02:22.443837,-9.263312269445802,-0.9883288395141602,21.046129770992366,0.0,0.0,-0.1261275804053755,0.004474817385238425,3.122825923992551,-0.2512810352294305,0.08102151781868909,-0.12314277200447961,0.003139272271071716,3.1181232884176646,,,,
2025-04-30 00:02:22.456643,2.1570296494995116,-4.254019903967285,36.725519083969466,0.0,0.0,-0.12962032116628883,0.0061787844383592305,3.1310338318477835,-0.2727590635547444,0.1330681231594855,-0.12636048181310042,0.00417677091221074,3.1228269576421788,,,,
2025-04-30 00:02:22.469411,1.9271862901245116,0.7785919856811522,21.259870229007632,0.0,0.0,-0.1333420259731056,0.007721279730102988,3.1357716468181978,-0.29147533111849105,0.12080467131252003,-0.1298432078264448,0.005875852174753046,3.1310113309350527,,,,
2025-04-30 00:02:22.484858,1.4387691514526366,2.243843401696777,21.206435114503815,0.0,0.0,-0.13809070043773733,0.009025339041283205,3.1414887101230367,-0.307428717207197,0.08442467138655023,-0.1343454595175892,0.007741852407526883,3.136742799863971,,,,
2025-04-30 00:02:22.498902,2.2240672959838865,6.8000091609741204,17.687351145038168,0.0,0.0,-0.14274639057757382,0.00887105506191082,3.1458242897469866,-0.33149506469989576,-0.010985348291671826,-0.13866314928078335,0.008927556666771686,3.1419409885144436,,,,
2025-04-30 00:02:22.512716,-2.2291477919067386,-0.035436578771972815,21.931625954198473,0.0,0.0,-0.14681721649551321,0.008732935901188428,3.1511118982041912,-0.29469409949976366,-0.009998683931282355,-0.14324233394494867,0.008775807986973756,3.1462053229370426,,,,
2025-04-30 00:02:22.524744,2.516159898522949,0.5439602229858397,22.18353435114504,0.0,0.0,-0.15064667441233004,0.008532894654714171,3.1557690241433036,-0.31836654691356975,-0.01663066738522451,-0.1467870488759271,0.00865553925990554,3.1508095641955114,,,,
2025-04-30 00:02:22.537982,2.9973944322143553,4.073013470056152,46.57284732824428,0.0,0.0,-0.15527407217287317,0.0076050305258034846,3.1665294881410206,-0.3495553803154866,-0.07009120789832522,-0.1510015703199686,0.008435383263607417,3.155934978174288,,,,
2025-04-30 00:02:22.550938,9.65327504744873,5.543053289392089,20.13773282442748,0.0,0.0,-0.16127239505506688,0.005756951928249307,3.171082928781656,-0.462996920408483,-0.14264898975019558,-0.15553020959145758,0.007527321724437368,3.166465791033087,,,,
2025-04-30 00:02:22.564373,-3.2490776991333004,0.21356039388427717,17.878190839694657,0.0,0.0,-0.16679281222032757,0.0038603401860206068,3.1752752096008314,-0.41088706342138037,-0.14116564127052822,-0.16175074164131825,0.005610780655787356,3.17118791486645,,,,
2025-04-30 00:02:22.577780,2.27913393416748,0.20637778890380842,15.29803816793893,0.0,0.0,-0.17259145913021984,0.0019542309109767415,3.178855018988474,-0.4324937837423086,-0.14216772040105954,-0.1672596971227286,0.0037181067254169883,3.175371491525066,,,,
2025-04-30 00:02:22.592544,0.12914084334716813,-0.7680622867797852,22.214068702290074,0.0,0.0,-0.17888332380449318,6.0083044788228086e-05,3.1845788069263294,-0.42618809726527956,-0.12830270783330286,-0.17364465338319696,0.0016192680587504785,3.1793132604784264,,,,
2025-04-30 00:02:22.606079,5.484969957116698,0.017235857751464745,20.664450381679387,0.0,0.0,-0.18552027931076231,-0.0016920706905630728,3.1894606426998955,-0.49032830795918153,-0.12944648725272406,-0.17941342380280453,-0.00011740377805965802,3.18456118303452,,,,
2025-04-30 00:02:22.619974,-5.171621632238769,2.8256344051147457,7.962160305343511,0.0,0.0,-0.19119321984811968,-0.0039400285385014135,3.1913915788942684,-0.40827105675360575,-0.16178137600273115,-0.18622655270043834,-0.0019160672218846069,3.1895726037606296,,,,
2025-04-30 00:02:22.633295,-1.4630032606567385,-1.1176157291625977,32.168267175572524,0.0,0.0,-0.19628012589722543,-0.005843407465865344,3.198870506818033,-0.3818733961445523,-0.14288641624710485,-0.19166509994997902,-0.004071144450436613,3.1914237579653655,,,,
2025-04-30 00:02:22.646773,1.642276292565918,-0.736937665197754,19.343839694656488,0.0,0.0,-0.20162400588605664,-0.007617842503128533,3.2034208779068196,-0.39648789536138823,-0.131653782429696,-0.19681200512362587,-0.005996973383405011,3.1989908984732827,,,,
2025-04-30 00:02:22.659025,2.628687376550293,-2.7360960514282224,21.48887786259542,0.0,0.0,-0.2067971211853389,-0.008822644121256737,3.2080159562041417,-0.4222312250377692,-0.09833627006541593,-0.20166971690770996,-0.007609976296760175,3.2031272921247407,,,,
2025-04-30 00:02:22.671623,-2.6672866957153323,1.3508061824584958,16.595748091603053,0.0,0.0,-0.21158146834630578,-0.01021724871295998,3.2116649834487636,-0.37976923608311824,-0.11070014415971377,-0.20698900180718213,-0.008848820336261502,3.2078522072261357,,,,
2025-04-30 00:02:22.684486,-3.3616051771606443,3.7545846492553707,-42.63325954198473,0.0,0.0,-0.21578789607761908,-0.012187463054222768,3.202093625689118,-0.32701357983315393,-0.15316722072241765,-0.2118740339424676,-0.010272773911802254,3.2115780270198875,,,,
2025-04-30 00:02:22.698590,-17.056438673254394,-3.2436668033813474,87.9087251908397,0.0,0.0,-0.21704597067651782,-0.013401500154885199,3.2237324450841847,-0.08920355888797649,-0.08608108779553095,-0.21648604139387082,-0.012432954426761088,3.201083808141735,,,,
2025-04-30 00:02:22.714802,-17.056438673254394,0.10821552083740221,-3.3813511450381677,0.0,0.0,-0.21408227129123344,-0.014440639138002129,3.2227756972478656,0.1828118326763804,-0.06409789834026898,-0.21793218702225295,-0.013828479340270629,3.225957439720434,,,,
2025-04-30 00:02:22.730598,-2.801361988684082,-6.902006940100097,3.4049083969465648,0.0,0.0,-0.2107079760257759,-0.013694609042522125,3.2237144290991426,0.21361135203516152,0.047227786787294036,-0.21504441399150134,-0.014840996853196379,3.2250252025938653,,,,
2025-04-30 00:02:22.747873,-4.319285841223144,2.82324020345459,16.76368702290076,0.0,0.0,-0.20576148438566985,-0.013607611813927726,3.228768663364697,0.2863444851571783,0.005036130341348391,-0.21135435945284425,-0.014025154870432757,3.226051778947111,,,,
2025-04-30 00:02:22.760873,0.5481261338745118,0.7354963557983396,20.32093893129771,0.0,0.0,-0.20219249394951946,-0.013673083341412777,3.233379595890179,0.27452238006028573,-0.00503598983323846,-0.20763167305931252,-0.01395968151624017,3.229855551499266,,,,
2025-04-30 00:02:22.774637,-1.3289279676879882,0.517624004724121,35.93925954198473,0.0,0.0,-0.19823444919545286,-0.01381189338759853,3.242013120783483,0.28756700059173035,-0.010085077636533614,-0.2038531732174126,-0.014028996399728075,3.2347371582533984,,,,
2025-04-30 00:02:22.788633,-8.375063453527833,1.6069857600952147,7.8323893129770985,0.0,0.0,-0.19265947250971083,-0.014092848714920352,3.2439263395282802,0.3983364623507632,-0.0200744787776775,-0.19982848686450738,-0.014170143590637412,3.243516045803835,,,,
2025-04-30 00:02:22.802808,4.572779124597168,1.9421739925170898,13.679717557251909,0.0,0.0,-0.18798105100575446,-0.014847025257792279,3.2473106926628645,0.330048811311774,-0.05320492633757014,-0.19418209212712015,-0.01445469808674643,3.2454537737731237,,,,
2025-04-30 00:02:22.816262,5.786639366296386,3.974851201989746,7.359106870229008,0.0,0.0,-0.1845743049539745,-0.016359675076763974,3.249038758638025,0.25321062167895175,-0.11242957215559271,-0.18974154979372354,-0.015170527744814949,3.248666045979161,,,,
2025-04-30 00:02:22.830609,-6.885870020910644,2.832817010095215,24.870557251908398,0.0,0.0,-0.17956913854805265,-0.01835068627817817,3.255266542220644,0.3488573620656341,-0.1387723922119142,-0.18610865728503218,-0.016783590213250023,3.2505088243489797,,,,
2025-04-30 00:02:22.843232,-0.21801839737548834,1.1736352596069333,16.221702290076337,0.0,0.0,-0.17519831045153403,-0.020245413799790623,3.258840412972833,0.34625709261574233,-0.15010035362752278,-0.18170500580088486,-0.018535324066032224,3.25598816033751,,,,
2025-04-30 00:02:22.856930,2.2432209092651365,-1.4336503483032228,23.404908396946563,0.0,0.0,-0.170991928250226,-0.022049230744738364,3.2644357926418843,0.30708845109787386,-0.13168830723842676,-0.1769621062673843,-0.020591342303291238,3.2598662606766307,,,,
2025-04-30 00:02:22.872274,-8.25535337052002,3.127303814294433,56.840022900763365,0.0,0.0,-0.16438845442752445,-0.024481931326613724,3.279657408240637,0.43037131997719613,-0.1585475446168524,-0.17225024361773972,-0.022611923715758285,3.2661340364543485,,,,
2025-04-30 00:02:22.885354,17.572695588830566,-19.05018616373291,-70.89280152671755,0.0,0.0,-0.16218460464422163,-0.02370201946603564,3.263472913199441,0.16848542663554908,0.05962465480323915,-0.16662083246206075,-0.02468578243947368,3.279110347856461,,,,
2025-04-30 00:02:22.902285,-8.116489674230955,-2.0729021915649413,64.93925954198474,0.0,0.0,-0.15721360534144943,-0.021815636244751618,3.2826620986367776,0.2936106891738669,0.11141869952352347,-0.163768276444127,-0.023676302443057677,3.2581619242947637,,,,
2025-04-30 00:02:22.917673,9.260625975183105,12.495814910485839,15.282770992366412,0.0,0.0,-0.1544927338837627,-0.023315654696541382,3.286766742151221,0.1768121287565272,-0.09747665766633026,-0.15925005165116063,-0.02196173703672416,3.275603297370687,,,,
2025-04-30 00:02:22.932513,-1.7120002333129882,1.583043743493652,5.778954198473282,0.0,0.0,-0.1515059502981538,-0.02501721751034059,3.2882634955557397,0.20127049806005173,-0.11466327746809672,-0.15662622168603083,-0.02340825644172383,3.2795615463423338,,,,
2025-04-30 00:02:22.946293,6.236749278405761,4.772120354821777,6.64918320610687,0.0,0.0,-0.1498045968664343,-0.027615399930619924,3.289862652391663,0.12346650352223933,-0.188549006317063,-0.15385273865371443,-0.024988302486985116,3.2809514094013768,,,,
2025-04-30 00:02:22.960023,3.208084178308105,-1.5653314396118163,13.091931297709923,0.0,0.0,-0.14877281130422204,-0.02995592684222454,3.29299993163797,0.07514798761424428,-0.1704674825910066,-0.15215753749403724,-0.02757708960775343,3.2825447835188424,,,,
2025-04-30 00:02:22.973577,-0.8285398207153318,3.1488516292358395,21.397274809160304,0.0,0.0,-0.14753885096975058,-0.032757170854875034,3.2980620152441045,0.09103485773336387,-0.20666049227368852,-0.15113892068900053,-0.029887744197346005,3.2856420214328224,,,,
2025-04-30 00:02:22.987492,-3.632149964758301,0.8743600520874022,16.32093893129771,0.0,0.0,-0.14559059889930093,-0.03562898463066217,3.3020257100753336,0.14001270414638234,-0.20638520992819215,-0.14987218670837055,-0.032763388478392226,3.2908385525834185,,,,
2025-04-30 00:02:23.000850,3.0117596421752926,-1.7329255558227539,15.31330534351145,0.0,0.0,-0.14432680128339007,-0.038117699883236114,3.3055957742441584,0.09461234776006432,-0.18631400311876464,-0.1480019475071812,-0.035520207672098,3.294643531193402,,,,
2025-04-30 00:02:23.014106,-2.7917851820434567,-1.1032505192016604,-29.472954198473282,0.0,0.0,-0.14265255567294965,-0.04027522399087405,3.298776726444421,0.12629799933189523,-0.1627544827388394,-0.14674773676141567,-0.03799004411871857,3.2981865136988606,,,,
2025-04-30 00:02:23.027194,2.250403514245605,-14.884275275061036,-6.35081679389313,0.0,0.0,-0.14179338171717362,-0.03995306621786637,3.297326071863,0.06564838430049831,0.02461566385435642,-0.14509481029797244,-0.040120095212054466,3.2914542968165925,,,,
2025-04-30 00:02:23.040846,-6.775736744543457,2.8256344051147457,59.2675038167939,0.0,0.0,-0.13960809649617495,-0.03992320423750292,3.3114477218484155,0.16007248591644493,0.0021873947552631984,-0.14419858854460252,-0.03978404591465007,3.289941089643871,,,,
2025-04-30 00:02:23.055506,-2.466173756262207,-4.833416705725098,-14.67906106870229,0.0,0.0,-0.1369642878770793,-0.038801818922206376,3.3076917070379452,0.18033431016420923,0.0764897450600827,-0.14185183036219892,-0.03975197740199674,3.3051062027988345,,,,
2025-04-30 00:02:23.070256,11.118526463464356,-2.4176672306274414,-4.961503816793893,0.0,0.0,-0.136780637063646,-0.037576608566819325,3.3064144160444204,0.012450698132873781,0.08306374471756059,-0.13919185560430605,-0.03862373513399897,3.3013272210246014,,,,
2025-04-30 00:02:23.084776,-17.056438673254394,-1.7712327823852538,19.153,0.0,0.0,-0.13319192632386764,-0.035438917205204645,3.311268100784139,0.24716163892767337,0.14722705137579453,-0.13901107530886442,-0.037417675188582654,3.300069894477239,,,,
2025-04-30 00:02:23.100320,1.9678877183471677,1.7602146663452145,-2.3584503816793894,0.0,0.0,-0.12981614628132573,-0.03368545389547609,3.3106282797750755,0.21717996373270473,0.11280862295954741,-0.1351692691236452,-0.03512922217839433,3.3052658875249556,,,,
2025-04-30 00:02:23.115627,5.729178526452636,4.740995733239746,3.389641221374046,0.0,0.0,-0.12767074054488378,-0.03328863453718017,3.3115338309287137,0.14016111683589635,0.025924534224980932,-0.1318449581410356,-0.03340249316623262,3.3046358215904075,,,,
2025-04-30 00:02:23.130245,-1.1278150282348633,-3.717718732092285,18.02322900763359,0.0,0.0,-0.12556538960411032,-0.03210947452254108,3.3161322623446323,0.1440206457300115,0.08066274531168743,-0.12979602732493928,-0.033023518039138715,3.305500651786731,,,,
2025-04-30 00:02:23.142892,4.800228282312011,-2.269226727697754,-15.114175572519084,0.0,0.0,-0.12458241075075227,-0.030887411640113948,3.3127960432261547,0.07772333703870375,0.0966275164200062,-0.12797457633488368,-0.03200336404271791,3.30947899919334,,,,
2025-04-30 00:02:23.156549,3.847336021569824,4.757755144860839,5.756053435114503,0.0,0.0,-0.12408562156591155,-0.030571646290659157,3.3141680632601123,0.03637590979948639,0.023120978113187817,-0.1269131014889376,-0.03068371305996349,3.3058763655631958,,,,
2025-04-30 00:02:23.169482,6.332517344812011,0.7067659358764646,7.870557251908396,0.0,0.0,-0.1246267293462611,-0.030572756117025247,3.3159446018787606,-0.04184002889814932,-8.581500565218849e-05,-0.12644265994460432,-0.030384694596644723,3.3071756193378894,,,,
2025-04-30 00:02:23.182478,-8.387034461828613,1.3220757625366208,14.32857251908397,0.0,0.0,-0.1237546264340963,-0.03054398169745168,3.3191945814888792,0.06710693353093986,0.002214145870607733,-0.12698640124117708,-0.030385809824422225,3.3089608041882927,,,,
2025-04-30 00:02:23.195467,22.169562776330565,-0.05040033914794939,-92.18287786259542,0.0,0.0,-0.1265226808451446,-0.031079678531579367,3.298295425938913,-0.21309512487340182,-0.041239934918581626,-0.1261146983175058,-0.03035704860218647,3.3122092932008798,,,,
2025-04-30 00:02:23.208941,22.16537292342529,4.238213384606933,123.35910687022901,0.0,0.0,-0.13307269560230553,-0.03309336472570449,3.3273041987610577,-0.4861401666198178,-0.14945519639658458,-0.12898583777159536,-0.030912695308319093,3.2905318327372544,,,,
2025-04-30 00:02:23.223665,11.307668394616698,-13.03595159342041,29.67208396946565,0.0,0.0,-0.14297687343322288,-0.03299357465724027,3.334929159965973,-0.6726764260857907,0.006777586969796418,-0.1361435416456128,-0.03311320477388742,3.322231945379375,,,,
2025-04-30 00:02:23.237983,0.6989608384643553,0.4649515682006834,-56.885167938931296,0.0,0.0,-0.15253747763610656,-0.033015413796658385,3.320713307409812,-0.6677114767978531,-0.001525242936891828,-0.14577523630699363,-0.03301616012403417,3.329647129091178,,,,
2025-04-30 00:02:23.251814,3.0021828355346676,-0.976357831213379,9.404908396946565,0.0,0.0,-0.16217442599500703,-0.03295758479736652,3.3229836028916253,-0.6967694238942566,0.004181145007772446,-0.15501028709981177,-0.03303725560686327,3.3159153483759214,,,,
2025-04-30 00:02:23.265348,-5.782143055578612,1.8847131526733394,-6.068374045801527,0.0,0.0,-0.17033421649359845,-0.0330492072313661,3.3215501675823664,-0.6029074080858966,-0.006769762558823266,-0.16444041260258443,-0.032980667701572854,3.3181369200316526,,,,
2025-04-30 00:02:23.278749,-0.8836064588989259,-3.4256261295532227,11.847656488549617,0.0,0.0,-0.178208698901071,-0.0325170178335128,3.3243211918075826,-0.587613163121883,0.039713276285403186,-0.17251985002206666,-0.03307138788879433,3.316717600396175,,,,
2025-04-30 00:02:23.291816,-1.4031482191528322,4.307645232751464,3.374374045801527,0.0,0.0,-0.1853709783925361,-0.03267430992069911,3.3250907452608574,-0.5481293566428883,-0.012037565785751391,-0.18019805527806573,-0.03255246369538875,3.319419554844681,,,,
2025-04-30 00:02:23.305428,-0.4478617567504881,-0.23176111490478524,11.756053435114504,0.0,0.0,-0.19261103881176309,-0.03277847240399895,3.3278837848510467,-0.5318681912007258,-0.007651968129511087,-0.18765947095454644,-0.03271632516526253,3.320221249082807,,,,
2025-04-30 00:02:23.318312,-1.0727483900512693,0.6900065242553709,7.435442748091603,0.0,0.0,-0.1991342326860783,-0.032952753811251664,3.329555797802986,-0.5062964130239785,-0.013526817238447439,-0.1945121351993144,-0.03281491419403078,3.322864840631171,,,,
2025-04-30 00:02:23.331432,-2.557153419348144,2.3851012996459957,9.397274809160304,0.0,0.0,-0.20514413172751836,-0.03344022389299027,3.331707564722796,-0.45809045721388025,-0.0371562635382004,-0.20115447030889885,-0.032992378720250154,3.3245673916435017,,,,
2025-04-30 00:02:23.345887,-2.411107118078613,-9.20522893717041,15.588114503816794,0.0,0.0,-0.2115127642601265,-0.03202162594316627,3.3356404650883973,-0.4405591256440244,0.09813351127026296,-0.2077765321818084,-0.03352950205962855,3.3269383355779687,,,,
2025-04-30 00:02:23.358564,-7.02952212052002,4.386653887536621,19.45834351145038,0.0,0.0,-0.21576449637934683,-0.03126162837406889,3.3399457129260113,-0.3353906647340537,0.059951117038525265,-0.21336148007056857,-0.03228546802495887,3.330387277478935,,,,
2025-04-30 00:02:23.371715,-8.844326978918456,-0.4232972477172853,-0.129442748091603,0.0,0.0,-0.21863144141889843,-0.030123357482198427,3.339916003393077,-0.21801111458511957,0.08655753856909983,-0.21777201943412833,-0.0314970836440237,3.33485333143653,,,,
2025-04-30 00:02:23.386123,-1.5563771254028316,0.21116619222412092,32.778954198473286,0.0,0.0,-0.2213911161090856,-0.028878232742956842,3.3481591665640975,-0.1915298439909791,0.08641545610583334,-0.22091325185286506,-0.03024991169704871,3.33482077952266,,,,
2025-04-30 00:02:23.400302,-16.98221842178955,-18.185879364416504,-3.228679389312977,0.0,0.0,-0.22150932047293864,-0.023486539966711288,3.3473601784424463,-0.00833672500632795,0.3802656562666527,-0.2236289061836297,-0.029024648298255035,3.342932453642867,,,,
2025-04-30 00:02:23.413037,-1.9250841810668948,-6.837363495275879,21.275137404580153,0.0,0.0,-0.22154121641287886,-0.01761438189821736,3.352088735969213,-0.002504704344996469,0.46112514182798525,-0.22373506948415298,-0.024182188325750788,3.342214855634566,,,,
2025-04-30 00:02:23.426125,-17.056438673254394,-3.7703911686157223,-21.602725190839696,0.0,0.0,-0.2188993661197828,-0.01049553596027802,3.347153878475608,0.20184569742852815,0.543902289612961,-0.22376785221864892,-0.01814676816761945,3.34707488002135,,,,
2025-04-30 00:02:23.439924,0.8928911729370117,-0.21739590494384775,-4.969137404580153,0.0,0.0,-0.21634111130821607,-0.0031341967345923814,3.3459570842424298,0.18538845503850457,0.5334524535608801,-0.22098249686017568,-0.010641227171900358,3.341871961521753,,,,
2025-04-30 00:02:23.453248,-3.1365502211059573,-2.27162092935791,0.10719847328244275,0.0,0.0,-0.21346651317542747,0.004328558203230264,3.3459820112549865,0.21576096431251693,0.560137844468232,-0.21851255375256912,-0.003534003528255181,3.340716480975368,,,,
2025-04-30 00:02:23.466557,-2.43265493302002,-1.0840969059204104,-8.602725190839696,0.0,0.0,-0.21027642313668674,0.011903844169785013,3.343983647864583,0.23968557269007032,0.5691647361468983,-0.21564088778086513,0.0039211392152356545,3.3407413825617565,,,,
2025-04-30 00:02:23.480757,0.6247405869995117,-0.2748567447875978,5.633916030534351,0.0,0.0,-0.2070729069246677,0.019852396403742575,3.3453799131426525,0.2256039635672163,0.559767695844339,-0.21223741646875346,0.012003126919378456,3.338609351055493,,,,
2025-04-30 00:02:23.494183,-5.226688270422363,0.7426789607788085,-3.930969465648855,0.0,0.0,-0.203173612409331,0.027275217909503005,3.3444587564541046,0.29042203684438833,0.5528566596742726,-0.2092083891010843,0.01951873809677001,3.3399295646769915,,,,
2025-04-30 00:02:23.508007,-5.885093726965331,0.9318208919311521,-3.7630305343511448,0.0,0.0,-0.19812435022643327,0.034815162810087646,3.343550834752581,0.3652537092679905,0.5454248052206162,-0.20519359891412806,0.027161420849673393,3.338981123665602,,,,
2025-04-30 00:02:23.521509,0.7157202500854492,0.5319892146850584,-10.251580152671757,0.0,0.0,-0.19339777848911277,0.04191376007741603,3.3411349835930615,0.3500614271812808,0.5257394214003485,-0.20026189914623693,0.03452581255071698,3.3380943411848203,,,,
2025-04-30 00:02:23.535407,4.726008030847168,-1.8119342106079102,23.45834351145038,0.0,0.0,-0.18957561634348263,0.049227896268190394,3.34682523180581,0.27501260830743046,0.526267488060482,-0.19539669844197743,0.04183260960016559,3.3356076338172214,,,,
2025-04-30 00:02:23.548954,9.049936229089354,0.15370535238037092,1.6262824427480917,0.0,0.0,-0.187512267668405,0.0558549193467991,3.347209727725299,0.152319052418692,0.4892153652375312,-0.19167131483454142,0.0489615491975654,3.341153802871889,,,,
2025-04-30 00:02:23.562218,6.349276756433105,4.123291704919433,2.465977099236641,0.0,0.0,-0.18645828776029508,0.061294255851851866,3.3477806205630163,0.07945919195659405,0.4100697557380934,-0.18965089130746424,0.05545070612204919,3.341530299879488,,,,
2025-04-30 00:02:23.575510,-3.7327064344848635,-0.32274077799072276,4.244603053435115,0.0,0.0,-0.1848022466253972,0.06682354647192812,3.348765327974803,0.12458861646009385,0.41598403194468786,-0.18859471383182774,0.060901383743927444,3.34210238303929,,,,
2025-04-30 00:02:23.591333,-0.4646211683715822,0.5774790462280271,-1.9080687022900764,0.0,0.0,-0.1827297115478381,0.07315859598742606,3.3482384008327912,0.1309853411579367,0.4003785658562657,-0.18662339188392552,0.06748335307185628,3.3432745612492454,,,,
2025-04-30 00:02:23.606622,1.3741257066284178,0.3141168636108397,6.328572519083969,0.0,0.0,-0.1810601517869519,0.07902234147284448,3.349927225112041,0.10919446722788077,0.3835074246760086,-0.1846206543788571,0.07360505465294395,3.342765379638197,,,,
2025-04-30 00:02:23.620326,-3.256260304113769,-0.9643868229125977,10.443076335877862,0.0,0.0,-0.1790449657600482,0.08447141686667953,3.352424836670238,0.14706051001976972,0.39765252232560083,-0.18312435081957232,0.07886029824836613,3.3442789485677133,,,,
2025-04-30 00:02:23.634026,-2.789390980383301,-0.6459580021118164,2.8781908396946565,0.0,0.0,-0.17659368642541431,0.0900344896368785,3.3531130775430595,0.17891604834894695,0.406042258284811,-0.18110951541224704,0.08430842556470769,3.3467761255697455,,,,
2025-04-30 00:02:23.647741,2.695725023034668,-0.7297550602172852,3.557580152671756,0.0,0.0,-0.1747030687392441,0.0955186557738628,3.353964649270355,0.13785246720628683,0.3998724004766317,-0.17865571931992164,0.08987721000798492,3.347465073067669,,,,
2025-04-30 00:02:23.660500,-1.5180698988403316,-1.9986819401000977,-0.3889847328244274,0.0,0.0,-0.17280986164239312,0.1008811998358076,3.3538780294191386,0.14838520946201822,0.4203038458943696,-0.17689689665707287,0.09497907473669949,3.34825728170084,,,,
2025-04-30 00:02:23.673957,-4.36716987442627,-1.3857663151000978,6.588114503816794,0.0,0.0,-0.17014770606574303,0.10682904669067932,3.355425407301528,0.19782243965285612,0.4419792689174378,-0.174900032633179,0.10063522895863042,3.3481659192371467,,,,
2025-04-30 00:02:23.687390,1.7260733506713866,0.057937285974120956,3.840022900763359,0.0,0.0,-0.16783961825068106,0.11257215107108928,3.3563256676453053,0.17182857570226615,0.42755281638571285,-0.17224278216920644,0.10657211670229622,3.349710446022878,,,,
2025-04-30 00:02:23.702806,-1.4390612440551758,2.5933968440795896,-0.9233358778625953,0.0,0.0,-0.16478756402322264,0.11851279119694903,3.3560772287491414,0.19797471821415885,0.38534589076033515,-0.169593806908118,0.11316343499022112,3.3507436681401837,,,,
2025-04-30 00:02:23.716344,-4.259430799719238,-0.20303069498291026,9.267503816793893,0.0,0.0,-0.1614217048655497,0.12382530579741761,3.3582669605316537,0.24862520743306543,0.3924183938361412,-0.16691364818580404,0.11838020286616749,3.350525501743098,,,,
2025-04-30 00:02:23.729066,-3.9960686171020505,1.245461309411621,9.954526717557252,0.0,0.0,-0.1576603518981933,0.12866260887931805,3.360477274154859,0.2956570051798115,0.38023087829136704,-0.16375063447277122,0.12337255570828301,3.3525832680760006,,,,
2025-04-30 00:02:23.742424,2.6143221665893552,0.5295950130249022,7.931625954198473,0.0,0.0,-0.1542157724386231,0.13344965327283984,3.3623264450817087,0.25786876694438543,0.35836863383593603,-0.15980128434717009,0.12845163329017273,3.354904055957697,,,,
2025-04-30 00:02:23.755892,-1.771855274816894,2.2582086116577145,10.061396946564885,0.0,0.0,-0.15041612585546998,0.13785800236257537,3.3646915750387376,0.28211348466668135,0.3273079998667778,-0.15632817784047545,0.13327832265127432,3.3567685412028228,,,,
2025-04-30 00:02:23.769886,3.9766229112182616,-0.5669493473266604,-2.1370763358778624,0.0,0.0,-0.14731567780265228,0.14228416988551948,3.364169640055115,0.22156719262804875,0.31630702900147534,-0.152380489584675,0.1378584296554831,3.359225821255184,,,,
2025-04-30 00:02:23.783454,-1.4127250257934572,-4.989039813635253,22.45070992366412,0.0,0.0,-0.14432455908572706,0.14742454662428203,3.369486266255617,0.2204473941113038,0.3788491076594406,-0.1493741769920584,0.1421502103705848,3.3587197332036958,,,,
2025-04-30 00:02:23.797086,5.49694096541748,0.6157862727905271,22.198801526717556,0.0,0.0,-0.14232762516151193,0.15214516903911662,3.374767716157502,0.14649318663876262,0.3463004018719797,-0.14636913020519846,0.14731452314582202,3.3640611161419085,,,,
2025-04-30 00:02:23.809983,-7.479632032629394,-0.4783638859008791,16.572847328244276,0.0,0.0,-0.1393089825983585,0.15688431449841828,3.3784983942265256,0.23404448633389527,0.36744027869439533,-0.14447970065560045,0.15178101218430576,3.369058240677847,,,,
2025-04-30 00:02:23.823776,-0.7615021742309569,0.6828239192749022,13.847656488549617,0.0,0.0,-0.13597730431545435,0.16176101795327041,3.381831868501611,0.241556984420017,0.3535760900172895,-0.14125163861374182,0.1568489376666911,3.3730477359602657,,,,
2025-04-30 00:02:23.837520,0.9216215928588867,3.28292692220459,12.901091603053434,0.0,0.0,-0.1327428740074306,0.16589246919041212,3.3849265833100284,0.23533200302990986,0.30059781861585905,-0.13793165144045616,0.16170852840241906,3.3763695128234614,,,,
2025-04-30 00:02:23.851371,0.02379597030029279,0.06751409261474595,10.977427480916031,0.0,0.0,-0.1295498020078354,0.16995928603165492,3.3875802680077394,0.23053524736100314,0.29361837960016623,-0.13467214107019698,0.16587201528240433,3.3794882243276194,,,,
2025-04-30 00:02:23.867249,-1.2978033461059568,-2.5445599186157226,17.02322900763359,0.0,0.0,-0.12580769283889529,0.1752170355025258,3.3922980748362326,0.2356652821387393,0.3311151429658956,-0.1310114912914756,0.17053435680551535,3.38253050157746,,,,
2025-04-30 00:02:23.879762,-1.1110556166137693,1.5878321468139647,12.046129770992366,0.0,0.0,-0.12269176691598808,0.17908418484733202,3.3949287993842394,0.2490213894697865,0.3090583431560943,-0.12806268611731433,0.17467749591349038,3.386248162543106,,,,
2025-04-30 00:02:23.895464,-2.0424000624145506,-0.5382189274047852,14.107198473282443,0.0,0.0,-0.11841572983879466,0.1840911845830913,3.3987948432480763,0.2723283339460765,0.3188812144264037,-0.12415260933992739,0.17953025917613755,3.3895493754786385,,,,
2025-04-30 00:02:23.912632,-2.561941822668457,1.1018092098022458,7.595748091603053,0.0,0.0,-0.11303691290488303,0.18933859995023525,3.401070856550536,0.3132996345064264,0.3056458951530144,-0.11947719930786414,0.18500490225628408,3.393776499785344,,,,
2025-04-30 00:02:23.925221,-2.8851590467895507,-0.3754132145141603,10.252236641221375,0.0,0.0,-0.10875391902101261,0.19328168231299053,3.403323468884537,0.3402177640826715,0.3132170396279286,-0.11553307716001593,0.18885267164922018,3.395445430813361,,,,
2025-04-30 00:02:23.937730,-3.253866102453613,1.9325971858764648,10.053763358778626,0.0,0.0,-0.10402450828571089,0.19696525521259428,3.405518332408401,0.3780990081716796,0.29448811655801344,-0.11127749988787894,0.19277051326657543,3.3976836235615715,,,,
2025-04-30 00:02:23.949817,-2.0471884657348633,-0.10726262857666025,7.98506106870229,0.0,0.0,-0.09926688960512983,0.20054540612496563,3.407202892593954,0.393603279467352,0.29619001326211586,-0.10670728668533382,0.1963300927661201,3.399804605395455,,,,
2025-04-30 00:02:23.962419,-0.38800671524658226,0.5559312312866209,3.2827709923664123,0.0,0.0,-0.09432493352951159,0.20413572187709633,3.4079249177747992,0.39216108172752245,0.28490380884714633,-0.10174715624664211,0.20006263560063625,3.401560870202106,,,,
2025-04-30 00:02:23.975553,-0.09591411270751937,0.2518676204467772,0.3820076335877863,0.0,0.0,-0.08925044920890854,0.20776600312429133,3.408012485992355,0.38636236356089604,0.2764032667048175,-0.09659651154606587,0.2038045629911572,3.4023133850190117,,,,
2025-04-30 00:02:23.989036,-0.1366155409301757,0.34763568685302715,0.0003282442748092085,0.0,0.0,-0.08410550782125262,0.21136488568458048,3.40801256323597,0.38158594288461534,0.2669190748010858,-0.09138716945162165,0.20753132136124455,3.402403280419811,,,,
2025-04-30 00:02:24.002085,-0.15337495255126976,-0.07134960367431653,0.8323893129770993,0.0,0.0,-0.07920408904710269,0.21479657693282142,3.4082021435384275,0.3756059483326723,0.2629776611781184,-0.0864077155513074,0.21101444555088075,3.4024033551788784,,,,
2025-04-30 00:02:24.014819,-0.18449957413330065,-0.43287405435791027,2.198801526717557,0.0,0.0,-0.07450668192691846,0.21815243001400264,3.408690825232561,0.3688888499123229,0.2635361917582987,-0.0816247733276517,0.21436318633922688,3.4025883529673107,,,,
2025-04-30 00:02:24.027135,0.3829262193237306,0.15609955404052717,1.2064351145038168,0.0,0.0,-0.07010316947366359,0.2212957467846881,3.4089501489303093,0.3575512989146807,0.25522739090431296,-0.07708163042931362,0.2176088322250441,3.4030609862118744,,,,
2025-04-30 00:02:24.039877,0.48587689071044915,-0.05219599039306655,-0.030206106870228955,0.0,0.0,-0.06571503021481334,0.22447046855311156,3.408943431250513,0.3443762755347111,0.24914862404688107,-0.07252561132090014,0.2208610113486558,3.403329291055962,,,,
2025-04-30 00:02:24.053039,-0.2515372206176756,-0.16232926676025405,0.25223664122137407,0.0,0.0,-0.06123913382154349,0.2277220149047391,3.409001374660759,0.34006467069789575,0.24704236697431017,-0.06799296602602077,0.2241402800403167,3.403322352155912,,,,
2025-04-30 00:02:24.065452,-0.24435461563720695,-0.05937859537353529,0.45070992366412216,0.0,0.0,-0.05706911167527764,0.23074562758062944,3.4090990201340157,0.3359392395546143,0.24358387255949573,-0.06377173480024047,0.22720682309350274,3.403376998758775,,,,
2025-04-30 00:02:24.077805,-0.21562419571533198,0.23510820882568345,-0.9233358778625953,0.0,0.0,-0.05296196339037361,0.23366897675767268,3.408899953190276,0.33248978942630164,0.23665660085057544,-0.05962197647548286,0.2302157428144338,3.403474169733247,,,,
2025-04-30 00:02:24.090791,-0.36885310196533183,-0.06895540201416028,-0.045473282442748064,0.0,0.0,-0.04867460120221722,0.23670798241392008,3.4088896462171734,0.33013586148766466,0.23400979585131368,-0.055304044625514276,0.2332891216273026,3.4032648864454225,,,,
2025-04-30 00:02:24.103683,-0.1270387342895507,0.0603314876342772,-0.014938931297709901,0.0,0.0,-0.04448113462216162,0.23966043428640293,3.4088862849005257,0.3252824687563534,0.2290183588282714,-0.05104800922551442,0.23630592195490693,3.403254654783047,,,,
2025-04-30 00:02:24.117108,0.19617848983154307,-0.1000800235961915,-0.030206106870228955,0.0,0.0,-0.040239758655218096,0.2426813293592271,3.408879207486431,0.3159397620838454,0.22502623630324253,-0.04668121083220197,0.2393804098152393,3.403251154530486,,,,
2025-04-30 00:02:24.129339,-0.15337495255126976,-0.025859772131347825,-0.2897480916030534,0.0,0.0,-0.03643213788367286,0.2453881452288668,3.4088173552492895,0.31131226184357247,0.2213101097328123,-0.04281699169241113,0.24213267715741488,3.4032447064628735,,,,
2025-04-30 00:02:24.142153,-0.28745024552001963,-0.09289741861572276,2.2751374045801525,0.0,0.0,-0.032481950730450654,0.248194063519536,3.4093262024644417,0.30825864734517566,0.21896394861626506,-0.038827673929662326,0.24496866038083387,3.4031799026803804,,,,
2025-04-30 00:02:24.157190,-0.10788512100830072,0.08427350423583968,-0.5569236641221373,0.0,0.0,-0.027911578688578645,0.251408944971548,3.409180046915799,0.3039549960631065,0.2138073815735584,-0.0341925907043839,0.24826107775148273,3.4037769754517955,,,,
2025-04-30 00:02:24.169999,-0.3113922621215819,-0.056984393713379045,0.007961832061068708,0.0,0.0,-0.02405013799700813,0.25411496430232566,3.409181826895229,0.301456578535848,0.2112546570218923,-0.03029914709169239,0.25099979563707736,3.403652467341272,,,,
2025-04-30 00:02:24.182743,0.05252639022216776,-0.04261918375244156,-0.030206106870228955,0.0,0.0,-0.020294941379117786,0.2567577691924338,3.4091751080841926,0.2946540239309303,0.20736946013020832,-0.026457255815081245,0.2536921151342927,3.4036542383091546,,,,
2025-04-30 00:02:24.194771,-0.19168217911376972,-0.12162783853759784,-0.15234351145038166,0.0,0.0,-0.016800149836401004,0.259225885943657,3.4091431275747226,0.29056093694067503,0.20520202906204815,-0.022913233684289682,0.2561863011839087,3.4036478973322555,,,,
2025-04-30 00:02:24.207628,-0.09591411270751937,0.048360479333495965,0.1148320610687023,0.0,0.0,-0.013122146491706907,0.2618078996581701,3.409168894985244,0.28607629375361765,0.20082986464231967,-0.019177572529417288,0.25882452660037136,3.4036137126475667,,,,
2025-04-30 00:02:24.220283,-0.30420965714111325,-0.03064817545166032,0.0919312977099237,0.0,0.0,-0.009529409320670208,0.2643158863167737,3.4091892003954696,0.2838928388739244,0.198177439226222,-0.015557203173156505,0.2613660803874155,3.403639076285035,,,,
2025-04-30 00:02:24.232864,-0.05760688614501941,0.01005325277099589,-0.18287786259541977,0.0,0.0,-0.006020192460476378,0.26676012477195093,3.4091490445074784,0.27893273032099797,0.1942821241946555,-0.011985583824225373,0.2638593253007764,3.4036592623416815,,,,
2025-04-30 00:02:24.245041,-0.11746192764892571,-0.20063649332275402,-0.1447099236641221,0.0,0.0,-0.002682873413517153,0.26911116440356836,3.4091182901154364,0.274073005853137,0.19307608581934663,-0.008589089117193091,0.2662250505627015,3.4036203963307017,,,,
2025-04-30 00:02:24.258209,0.0740742051635741,-0.00910036051025409,0.12246564885496186,0.0,0.0,0.000841544690321282,0.27160101375997403,3.409146437003342,0.26763856662868146,0.18907510211231798,-0.004979938628271374,0.26876758716664345,3.4035871369307125,,,,
2025-04-30 00:02:24.271327,0.0381611802612305,-0.0019177555297853477,0.1148320610687023,0.0,0.0,0.000841544690321282,0.27160101375997403,3.409172726690724,0.2141108533029452,0.1512600816898544,-0.0014692396758881426,0.27124774453435346,3.4036151742540297,,,,
2025-04-30 00:02:24.284449,0.02379597030029279,0.04357207601318347,-0.16761068702290077,0.0,0.0,0.000841544690321282,0.27160101375997403,3.409134339899287,0.17128868264235617,0.12100806535188352,0.0013403404461267369,0.2732325916927965,3.40364147349817,,,,
2025-04-30 00:02:24.296599,-0.30899806046142597,-0.06416699869384779,-0.13707633587786255,0.0,0.0,0.002921871407814281,0.27306271935338317,3.4091052700046944,0.17120953364115366,0.12029741812374235,0.0034216288844910138,0.2747029321932928,3.4036059281578814,,,,
2025-04-30 00:02:24.309379,-0.15576915421142568,-0.011494562170410338,-0.2744809160305343,0.0,0.0,0.005089597114038687,0.27457764474959134,3.409044049852193,0.16962874254701213,0.11854585166077547,0.005609555892920979,0.2762402412704204,3.4035753546873897,,,,
2025-04-30 00:02:24.322619,-0.280267640539551,-0.03304237711181657,-0.16761068702290077,0.0,0.0,0.0073356413030746265,0.2761340947506817,3.4090053157257847,0.16963036816209665,0.11754941777177524,0.007855578557489609,0.2778098848675066,3.4035119232995292,,,,
2025-04-30 00:02:24.335205,-0.07915470108642575,-0.028253973791504072,-0.014938931297709901,0.0,0.0,0.009438581559421618,0.2775914451469157,3.4090020341651894,0.16708728577842377,0.11579250594491125,0.009990525739407972,0.27928934754230417,3.40347510509514,,,,
2025-04-30 00:02:24.347863,-0.186893775793457,0.0028706477905271477,0.08429770992366414,0.0,0.0,0.011539674662257882,0.2790351390327899,3.409020657358234,0.16599090628540714,0.11405494415810463,0.012105496683159855,0.28075503527812906,3.4034718047611014,,,,
2025-04-30 00:02:24.360020,0.09562202010498044,0.02202426107177724,-0.030206106870228955,0.0,0.0,0.013504708514998697,0.2803872069981207,3.409014248381246,0.16164171387331008,0.1112197547560968,0.014123402471721348,0.2821415698611439,3.4034896906172754,,,,
2025-04-30 00:02:24.372902,-0.17013436417236338,-0.047407587072754054,-0.08364122137404578,0.0,0.0,0.015570017437149369,0.28180605762704647,3.4089954427085876,0.1603222807486721,0.11014011823189906,0.016205708638370855,0.28357432861896914,3.4034828991554966,,,,
2025-04-30 00:02:24.385998,0.016613365319824158,0.01244745443115225,-0.2744809160305343,0.0,0.0,0.015570017437149369,0.28180605762704647,3.4089327080426117,0.1282578245989377,0.08811209458551926,0.018305189646996258,0.28501665519663383,3.403463782328868,,,,
2025-04-30 00:02:24.398763,-0.052818482824707136,-0.04022498209228531,0.13009923664122142,0.0,0.0,0.017181003877850754,0.28291679360433797,3.408961694484745,0.12619701683095044,0.08700977443358682,0.01994248363009832,0.2861414630027424,3.4034026272798865,,,,
2025-04-30 00:02:24.416861,-0.13182713760986342,-0.04261918375244156,0.08429770992366414,0.0,0.0,0.019456450446991083,0.28448438710964963,3.4089883217466315,0.12572836747594573,0.08661639212349866,0.022226411869591838,0.2877161759867033,3.403443721948394,,,,
2025-04-30 00:02:24.432183,-0.11267352432861344,-0.011494562170410338,-0.03783969465648851,0.0,0.0,0.02136860110880711,0.2857943572252374,3.4089782028574387,0.12479990615986562,0.08549752420780268,0.024152788166463542,0.28904328909615473,3.4034662643920814,,,,
2025-04-30 00:02:24.445483,-0.28745024552001963,-0.025859772131347825,-0.11417557251908389,0.0,0.0,0.023042141888676457,0.286926235515288,3.408951699060323,0.1258284267664986,0.08510247628345267,0.02581264943668337,0.2901804215948797,3.403457480590363,,,,
2025-04-30 00:02:24.458047,-0.2754792372192383,-0.025859772131347825,-0.39661832061068697,0.0,0.0,0.024631409175100687,0.2879891460332057,3.408864731028207,0.12649910117692947,0.08460327994960118,0.027393490727267135,0.2912496037494771,3.4034324448712807,,,,
2025-04-30 00:02:24.471629,-0.11267352432861344,-0.004311957189941595,0.046129770992366426,0.0,0.0,0.02633465722827471,0.28912141698227134,3.4088756664957964,0.1254004831122191,0.08336268094489756,0.02911166072518538,0.29239872509486575,3.4033384230130093,,,,
2025-04-30 00:02:24.484981,-0.1366155409301757,-0.025859772131347825,-0.045473282442748064,0.0,0.0,0.02799733460364175,0.29022286861597313,3.408865069633162,0.12452723770957262,0.08249389295100122,0.030785997600922214,0.2935117767139845,3.403349172860399,,,,
2025-04-30 00:02:24.498492,-0.2515372206176756,-0.013888763830566586,-0.08364122137404578,0.0,0.0,0.02968891040751916,0.2913294272404582,3.408845346160704,0.1252004298735859,0.08190092051937164,0.03246847794420772,0.29462634695487316,3.403338449786069,,,,
2025-04-30 00:02:24.511461,-0.30899806046142597,0.06272568929443345,-0.19814503816793888,0.0,0.0,0.03133201744268367,0.29237383414943796,3.4088004956255333,0.12669480127249505,0.08053092278773143,0.03409220445125241,0.29568852138776397,3.4033195174243223,,,,
2025-04-30 00:02:24.524934,-0.280267640539551,-0.1192336368774416,0.015595419847328262,0.0,0.0,0.03304729790911746,0.2934707325637165,3.4088041628049295,0.1273143697726929,0.08141579937004835,0.035799137597993184,0.2967734980408182,3.4032729246805187,,,,
2025-04-30 00:02:24.538418,-0.7734731825317382,-0.03783078043212906,2.168267175572519,0.0,0.0,0.03486086576138941,0.29458958674013186,3.40931446131677,0.13449299651783406,0.08297348823430549,0.03751590541587285,0.29787134759601763,3.4032765950397943,,,,
2025-04-30 00:02:24.552060,-0.8931832655395509,-0.035436578771972815,2.099564885496183,0.0,0.0,0.03681426162431924,0.2957482612646555,3.4098143570582615,0.14319158449211908,0.08493539083692953,0.039350636583369875,0.29900325817040385,3.4037928484478086,,,,
2025-04-30 00:02:24.565646,-0.608273267980957,-0.047407587072754054,-0.12180916030534344,0.0,0.0,0.03882458478823399,0.2969165442311648,3.4097854735233217,0.1479697193545602,0.08599139968345433,0.04129604379531706,0.30015719415393094,3.4042906998046045,,,,
2025-04-30 00:02:24.578360,-0.5005341932739258,-0.0019177555297853477,-0.11417557251908389,0.0,0.0,0.04074460834575448,0.298009267317736,3.4097601380122526,0.15101756155350946,0.08594705796230606,0.043177317364019106,0.3012504809971163,3.4042636704036466,,,,
2025-04-30 00:02:24.591177,-0.06000108780517577,-0.20063649332275402,0.236969465648855,0.0,0.0,0.04264229933764314,0.299122558819364,3.4098131493925306,0.14805604386239854,0.08685794267939254,0.04511296726186072,0.30235209734062735,3.4042381286965044,,,,
2025-04-30 00:02:24.604578,0.06210319686279275,-0.03304237711181657,-0.014938931297709901,0.0,0.0,0.04457453823777213,0.30026591478384546,3.409809655480669,0.14419352989532347,0.08532305836221794,0.04709696507062377,0.3035160212403483,3.404293551029624,,,,
2025-04-30 00:02:24.618170,-0.18449957413330065,0.07709089925537094,0.046129770992366426,0.0,0.0,0.046531162516097686,0.30139784632179406,3.409820598818401,0.14395153546882955,0.08327775789061481,0.04905687859604596,0.30467575299971295,3.4042900070759683,,,,
2025-04-30 00:02:24.631020,0.0070365586791991674,-0.011494562170410338,0.046129770992366426,0.0,0.0,0.046531162516097686,0.30139784632179406,3.4098309447930912,0.11516122837506365,0.06662220631249186,0.05090669679203246,0.30574589588749324,3.4043003530506586,,,,
2025-04-30 00:02:24.644367,0.06928580184326183,-0.016282965490722834,0.061396946564885535,0.0,0.0,0.048024998704868996,0.3022687668686871,3.4098452465493456,0.11192774258040077,0.06525492655309492,0.05244368848438659,0.30663506474296176,3.40431109848309,,,,
2025-04-30 00:02:24.657388,0.11477563338623042,-0.035436578771972815,-0.05310687022900762,0.0,0.0,0.04943336249974139,0.3031021106620525,3.40983317708321,0.10815705833983566,0.06399767844382129,0.053901152127644486,0.3074847797537535,3.404325052014228,,,,
2025-04-30 00:02:24.670375,0.0381611802612305,-0.028253973791504072,-0.11417557251908389,0.0,0.0,0.04943336249974139,0.3031021106620525,3.4098072975755884,0.08652564667186853,0.05119814275505703,0.05530577685795235,0.30831591110296264,3.404313014591314,,,,
2025-04-30 00:02:24.683248,0.06210319686279275,-0.028253973791504072,-0.05310687022900762,0.0,0.0,0.05051396407900092,0.3037497392798641,3.4097953660057994,0.08394524237469547,0.050310255263773945,0.056419595197087405,0.3089749692264632,3.404287362659543,,,,
2025-04-30 00:02:24.696017,-0.07197209610595712,0.09385031087646467,-0.014938931297709901,0.0,0.0,0.051579464302551954,0.30436787820091454,3.4097920367656314,0.08344596029653062,0.04841030975273872,0.05749147062638847,0.30961736806806045,3.4042755274404066,,,,
2025-04-30 00:02:24.709412,-0.05042428116455078,-0.023465570471191577,-0.15997709923664122,0.0,0.0,0.05268232998631816,0.3050096965311506,3.409754636024676,0.08233369433606855,0.04791451488497387,0.058609235191698944,0.3102658276057664,3.404272034896147,,,,
2025-04-30 00:02:24.723126,-0.07676049942626939,-0.01867716715087908,-0.35081679389312975,0.0,0.0,0.05380162840384832,0.3056607361910904,3.4096706645430785,0.08161534421335202,0.047471545666773085,0.05973838528801989,0.31092294228443856,3.404233742789616,,,,
2025-04-30 00:02:24.737542,-0.014511256262207173,0.0004764461303709,-0.33554961832061064,0.0,0.0,0.05380162840384832,0.3056607361910904,3.4095862367471246,0.06529227537068162,0.037977236533418474,0.060914969866344336,0.31160730242626117,3.4041454736124965,,,,
2025-04-30 00:02:24.913599,-0.20125898575439471,0.007659051110839643,-0.030206106870228955,0.0,0.0,0.06212210417590907,0.3098322941848456,3.4095335171452152,0.08320475772060751,0.041715579937551726,0.0724101229729443,0.31829345551311217,3.4031144061707455,,,,
2025-04-30 00:02:24.925779,-0.07436629776611348,0.0028706477905271477,0.023229007633587817,0.0,0.0,0.06312577369514906,0.3103326720308636,3.4095384550364245,0.08240569793924568,0.0410832299317743,0.07342352473117576,0.31880153513755277,3.403107985127198,,,,
2025-04-30 00:02:24.937601,-0.10070251602783209,-0.00910036051025409,-0.35081679389312975,0.0,0.0,0.06409345948953828,0.31081349628511845,3.409466070106919,0.0818547624916788,0.04067203978860685,0.07439772367629693,0.3192872204756129,3.4031127780279635,,,,
2025-04-30 00:02:24.949163,-0.12225033096923843,-0.016282965490722834,0.06903053435114509,0.0,0.0,0.06503588407851675,0.3112806714762357,3.4094800011144613,0.08150470582809187,0.04040320781896247,0.07534419590895376,0.3197575041235478,3.4030419799174227,,,,
2025-04-30 00:02:24.960622,-0.12464453262939434,-0.04022498209228531,-0.129442748091603,0.0,0.0,0.06596519555688586,0.31174359440260563,3.409454114818193,0.08110478476392455,0.04040116277419522,0.0762780897462608,0.3202204504823648,3.403055784822604,,,,
2025-04-30 00:02:24.972289,-0.0911257093872071,-0.025859772131347825,-0.15997709923664122,0.0,0.0,0.06690338890782835,0.3122121007408155,3.409421537037354,0.08040925507032319,0.04015403180307668,0.0772243983487791,0.32069184027763087,3.4030294250654975,,,,
2025-04-30 00:02:24.984263,-0.18449957413330065,-0.004311957189941595,0.023229007633587817,0.0,0.0,0.06787174083667134,0.3126907087452722,3.4094263913174077,0.08087539563030491,0.03997266960423832,0.07818716899907809,0.321172619800801,3.402995993863697,,,,
2025-04-30 00:02:24.997541,-0.055212684484863495,-0.013888763830566586,0.05376335877862598,0.0,0.0,0.06893271123881092,0.3132156993508155,3.409438850927971,0.07990290344523819,0.0395376474025936,0.079261052391612,0.32170338673812093,3.403001377165549,,,,
2025-04-30 00:02:25.010536,-0.15337495255126976,-0.028253973791504072,0.2751374045801527,0.0,0.0,0.06997356131466939,0.31373046286843764,3.409501255926718,0.08009322906366992,0.03961096154652978,0.08029942909441885,0.32221719750314254,3.403013571444776,,,,
2025-04-30 00:02:25.023516,-0.17252856583251974,-0.004311957189941595,-0.12180916030534344,0.0,0.0,0.07101965981362625,0.3142425560786311,3.4094736608577656,0.08059320228075254,0.0394525292951621,0.08133903794887583,0.32273134716146873,3.403075902025101,,,,
2025-04-30 00:02:25.036255,-0.11267352432861344,-0.04022498209228531,-0.1447099236641221,0.0,0.0,0.07204136620181988,0.3147459897919943,3.409441487161942,0.08020488846764175,0.03952000819191706,0.08236569095205838,0.32323392128109396,3.403048819909563,,,,
2025-04-30 00:02:25.048578,-0.012117054602050814,-0.00910036051025409,-0.030206106870228955,0.0,0.0,0.07204136620181988,0.3147459897919943,3.4094349908280925,0.0641639107741134,0.03161600655353365,0.08335400974238964,0.3237209036513254,3.403017697594479,,,,
2025-04-30 00:02:25.061942,-0.05042428116455078,-0.00910036051025409,0.05376335877862598,0.0,0.0,0.07288981239236304,0.31516393749380256,3.4094475312013985,0.06348594660113425,0.031273409881279746,0.08421151645972157,0.3241434299229909,3.4030106519807957,,,,
2025-04-30 00:02:25.074719,0.002248155358886894,0.01244745443115225,-0.10654198473282439,0.0,0.0,0.07288981239236304,0.31516393749380256,3.4094237716514177,0.050788757280907405,0.025018727905023797,0.08502269725401973,0.3245430205540843,3.4030226415566727,,,,
2025-04-30 00:02:25.086915,-0.09351991104736346,0.0028706477905271477,-0.35081679389312975,0.0,0.0,0.07351010412828927,0.3154661680397778,3.409349096272091,0.050859993532516364,0.02478099049744015,0.08564212018806255,0.3248481505606965,3.402999962872919,,,,
2025-04-30 00:02:25.099227,-0.2228068006958006,-0.03064817545166032,0.046129770992366426,0.0,0.0,0.07415449280149179,0.31577832197453204,3.409359009005012,0.05233752230917356,0.025353275443066807,0.08626831727010827,0.32515325842371223,3.4029245765636604,,,,
2025-04-30 00:02:25.111904,-0.1509807508911134,-0.016282965490722834,-0.3889847328244274,0.0,0.0,0.07482693047286265,0.31610204602485653,3.409272947584275,0.05304609856836611,0.025537382293672726,0.08693177269052044,0.3254746486476999,3.4029347826033707,,,,
2025-04-30 00:02:25.124799,-0.1605575575317384,-0.03304237711181657,-0.129442748091603,0.0,0.0,0.07552110672315025,0.3164368859392008,3.4092438143916106,0.05383153481032885,0.025965951006593116,0.08761582046895214,0.32580396202034,3.4028472352719668,,,,
2025-04-30 00:02:25.138585,-0.11506772598876935,-0.00910036051025409,-0.09127480916030534,0.0,0.0,0.07626861064138135,0.31679499740551476,3.409221852536767,0.05422165356782587,0.02597631315577975,0.08835794617975842,0.32616193063326226,3.402816089736081,,,,
2025-04-30 00:02:25.153485,-0.16534596085205067,-0.025859772131347825,-0.11417557251908389,0.0,0.0,0.07709353219778774,0.31718922786156173,3.4091921617275327,0.05536574950348924,0.026459321503521926,0.08916582128762236,0.3265489645101687,3.4027923541603626,,,,
2025-04-30 00:02:25.167232,-0.15337495255126976,0.005264849450683395,-0.15997709923664122,0.0,0.0,0.07786705984628597,0.3175522517825297,3.409153779086485,0.05626990374634455,0.026408003812338033,0.08992691976424022,0.32691269388201444,3.40276496048941,,,,
2025-04-30 00:02:25.179467,-0.1366155409301757,-0.00910036051025409,-0.129442748091603,0.0,0.0,0.07856077991780752,0.3178755010194308,3.4091261357603484,0.05669556070347643,0.026418143982601654,0.09061543154835652,0.32723581904501003,3.4027307963574387,,,,
2025-04-30 00:02:25.192263,-0.06239528946533213,-0.05937859537353529,0.07666412213740459,0.0,0.0,0.07927885249191462,0.3182186073241369,3.409143256599263,0.05611937597577108,0.026814715403111904,0.09134087666436008,0.3275738510406065,3.40270188885316,,,,
2025-04-30 00:02:25.205101,-0.08394310440673847,-0.01867716715087908,-0.10654198473282439,0.0,0.0,0.07999721665590523,0.3185624796117914,3.4091193831105535,0.0559534566376811,0.026784246905206012,0.09206137100070749,0.32791811450118113,3.402719067433593,,,,
2025-04-30 00:02:25.217865,-0.043241676184082145,-0.016282965490722834,0.15300000000000002,0.0,0.0,0.07999721665590523,0.3185624796117914,3.409153466807945,0.044762765310144885,0.02142739752416481,0.09277554629679911,0.3282599816281396,3.4026953331540697,,,,
2025-04-30 00:02:25.230277,-0.045635877844238504,-0.05219599039306655,0.10719847328244275,0.0,0.0,0.08054623262991674,0.31883252447884525,3.409176688036854,0.044234971201958344,0.021757885895526817,0.09333111291136739,0.32852592468637176,3.4027284758651017,,,,
2025-04-30 00:02:25.243211,-0.09591411270751937,-0.011494562170410338,-0.38135114503816786,0.0,0.0,0.08112161248367232,0.31911429626569826,3.4090905985209745,0.044484304844637834,0.021784603651264643,0.09390326777250227,0.328807350893847,3.402752675778457,,,,
2025-04-30 00:02:25.255876,-0.13182713760986342,-0.011494562170410338,-0.045473282442748064,0.0,0.0,0.08169325896440711,0.31939190610713575,3.409080546620384,0.04513495577598477,0.02191898024134166,0.09446667358237129,0.3290832588192531,3.4026683778436255,,,,
2025-04-30 00:02:25.269107,-0.12225033096923843,0.01005325277099589,-0.06074045801526712,0.0,0.0,0.082299158331143,0.31967998597489106,3.4090665206237873,0.04579543613604972,0.021773819069894403,0.0950638344226148,0.32937325925091776,3.4026578772954634,,,,
2025-04-30 00:02:25.281185,-0.19886478409423836,-0.013888763830566586,-0.08364122137404578,0.0,0.0,0.0828681098619561,0.31994713990277984,3.4090488889134827,0.04710625321256877,0.022118967771957425,0.09561695384343316,0.3296362444566305,3.4026450731046363,,,,
2025-04-30 00:02:25.293935,-0.1414039442504884,-0.01867716715087908,0.06903053435114509,0.0,0.0,0.08347766146090349,0.3202323488245823,3.409064250708863,0.04780651675744624,0.02236864790949269,0.09621757681104709,0.3299182698600053,3.4026264599019402,,,,
2025-04-30 00:02:25.306453,0.10280462508544908,-0.023465570471191577,0.07666412213740459,0.0,0.0,0.08404795311673689,0.320506060422053,3.4090810002155774,0.045557987452931006,0.021865565444873898,0.09681601539724231,0.330198279008088,3.402641541629434,,,,
2025-04-30 00:02:25.319126,-0.024088062902832164,0.005264849450683395,-0.06837404580152667,0.0,0.0,0.08404795311673689,0.320506060422053,3.409065876980825,0.036446389962344804,0.017492452355899118,0.09739336726898863,0.3304753791576377,3.402658498495195,,,,
2025-04-30 00:02:25.331388,-0.19886478409423836,-0.025859772131347825,-0.15997709923664122,0.0,0.0,0.08451317888576775,0.3207276835856811,3.409031639622406,0.037940119848907834,0.018073825546809242,0.09784027676390206,0.3306898734616071,3.4026438654838214,,,,
2025-04-30 00:02:25.344285,-0.08873150772705074,-0.011494562170410338,-0.35081679389312975,0.0,0.0,0.08500617116365172,0.32096175269381405,3.408952670927002,0.03822459530636631,0.01814875675235189,0.09832960008982852,0.33092297616302185,3.4026078547139806,,,,
2025-04-30 00:02:25.357496,-0.11746192764892571,0.0028706477905271477,-0.08364122137404578,0.0,0.0,0.08552055413224773,0.3212015502118402,3.4089333856456507,0.03893662773351521,0.018151663761907636,0.09883457655932758,0.3311627352772033,3.4025269663617794,,,,
2025-04-30 00:02:25.370016,-0.15576915421142568,-0.045013385412597806,0.07666412213740459,0.0,0.0,0.08601954574118416,0.3214372559672909,3.408950138023491,0.03985532156472732,0.018826225751904756,0.09932206605273819,0.331389995466052,3.4025086893724343,,,,
2025-04-30 00:02:25.382212,-0.052818482824707136,-0.02107136881103533,0.10719847328244275,0.0,0.0,0.0865025068576025,0.321667261720924,3.4089729560022906,0.039600526702986895,0.018859383662470443,0.09980813460284817,0.33161959683159137,3.402525007891347,,,,
2025-04-30 00:02:25.394728,-0.14858654923095704,0.0004764461303709,0.1148320610687023,0.0,0.0,0.08701023421248756,0.3219045327409609,3.40899803962673,0.040567738703544354,0.01895810546776518,0.10030375677252079,0.33185563229444237,3.4025484240542134,,,,
2025-04-30 00:02:25.407603,-0.1414039442504884,0.07709089925537094,-0.25158015267175565,0.0,0.0,0.08754757502210707,0.32213773211965374,3.4089415053648993,0.04173417601152381,0.01811212500877293,0.10082607933025803,0.3320997239410125,3.402574228736093,,,,
2025-04-30 00:02:25.420264,-0.019299659582519446,-0.0019177555297853477,-0.09890839694656484,0.0,0.0,0.08754757502210707,0.32213773211965374,3.408919649826756,0.03338734080921905,0.014489700007018345,0.1013544550070244,0.33232903256104,3.4025186377064887,,,,
2025-04-30 00:02:25.434345,-0.04803007950439442,-0.00910036051025409,-0.014938931297709901,0.0,0.0,0.08754757502210707,0.32213773211965374,3.40891597818882,0.02670987264737524,0.011591760005614677,0.10182461403640228,0.3325330758638656,3.4024943283489337,,,,
2025-04-30 00:02:25.448365,0.011824961999511885,-0.03783078043212906,-0.06074045801526712,0.0,0.0,0.08754757502210707,0.32213773211965374,3.4089011160868274,0.021367898117900193,0.009273408004491742,0.10219906644174494,0.33269558365540625,3.402490673060056,,,,
2025-04-30 00:02:25.463256,-0.09591411270751937,-0.016282965490722834,-0.16761068702290077,0.0,0.0,0.0878785836433216,0.32228198430395955,3.4088575527488945,0.022227838360464346,0.009686799770132237,0.10251726915581717,0.3328336797647871,3.4024748861365266,,,,
2025-04-30 00:02:25.478096,-0.2228068006958006,-0.035436578771972815,-0.12180916030534344,0.0,0.0,0.08824620445791036,0.3224429343861986,3.408826003579562,0.024772479686276088,0.010845775006594541,0.10284712777910017,0.33297743078476383,3.4024314741473662,,,,
2025-04-30 00:02:25.492019,-0.15816335587158203,-0.03304237711181657,-0.022572519083969456,0.0,0.0,0.08861153432394919,0.3226049075767928,3.4088205184356215,0.026239438985669855,0.011633556538896401,0.1031920332738472,0.33312843574841455,3.4024018744037563,,,,
2025-04-30 00:02:25.505491,-0.11506772598876935,-0.1790886783813478,2.3056717557251907,0.0,0.0,0.08896926703594552,0.3227946311450639,3.4093626464148166,0.026554105740323894,0.01408297179530688,0.10354552684510128,0.33328516118181906,3.402396566972581,,,,
2025-04-30 00:02:25.518036,-0.19168217911376972,-0.056984393713379045,0.12246564885496186,0.0,0.0,0.0893219057097805,0.3229840644955687,3.4093894601819654,0.028110188726472248,0.015100462963598484,0.10387864465957983,0.3334618302375083,3.40290139217179,,,,
2025-04-30 00:02:25.531182,-0.05760688614501941,-0.03064817545166032,-0.022572519083969456,0.0,0.0,0.08969209135310358,0.3231861947078725,3.409384281057152,0.028159218058588925,0.015375606340097128,0.10424818575535852,0.3336603433704023,3.4029294911570385,,,,
2025-04-30 00:02:25.544640,-0.0911257093872071,-0.016282965490722834,-0.2439465648854961,0.0,0.0,0.09007829853234979,0.32339603972604114,3.4093269832967055,0.028698207400852927,0.015593122492421408,0.10462713946575172,0.33386726115696874,3.4029241893615745,,,,
2025-04-30 00:02:25.557308,-0.09351991104736346,-0.02107136881103533,0.20643511450381682,0.0,0.0,0.09044790162866571,0.323596720029397,3.4093726279480143,0.029174716675893605,0.01584075201533149,0.10499070585208226,0.33406480433856867,3.4028702505928776,,,,
2025-04-30 00:02:25.570031,-0.07915470108642575,-0.0019177555297853477,0.05376335877862598,0.0,0.0,0.09082369563219725,0.32379784655065413,3.4093845665158433,0.02953665939937628,0.01580814355398462,0.10536189486954317,0.33426634573627045,3.402916091099736,,,,
2025-04-30 00:02:25.582404,-0.033664869543457154,-0.047407587072754054,0.046129770992366426,0.0,0.0,0.09118483133276753,0.32399772381527814,3.4093945281972142,0.029187469428177588,0.016154347358590417,0.10572735108735429,0.334461939431405,3.4029277012473274,,,,
2025-04-30 00:02:25.595114,-0.026482264562988522,-0.004311957189941595,-0.045473282442748064,0.0,0.0,0.09118483133276753,0.32399772381527814,3.4093844412903813,0.023349975542542072,0.012923477886872335,0.10609830570409352,0.33466725115765195,3.4029379337767867,,,,
2025-04-30 00:02:25.607790,-0.055212684484863495,-0.047407587072754054,-0.20577862595419844,0.0,0.0,0.09148132248993947,0.32416777488601456,3.409338912680917,0.023388641085027095,0.013414442095053278,0.10639430670917016,0.33483107841462834,3.4029278727934957,,,,
2025-04-30 00:02:25.620267,-0.07436629776611348,-0.04022498209228531,0.046129770992366426,0.0,0.0,0.09177661600990308,0.32434071459900554,3.4093489578625844,0.023667630887188432,0.013861033229957263,0.106686119361906,0.334998446151749,3.402883062606137,,,,
2025-04-30 00:02:25.632847,-0.06000108780517577,-0.016282965490722834,-0.06837404580152667,0.0,0.0,0.09207670402134363,0.32451649499659113,3.409333945589595,0.023854528594062816,0.013973095760649226,0.10698385621553692,0.335172816811898,3.4028931909041917,,,,
2025-04-30 00:02:25.645769,-0.05760688614501941,0.09624451253662092,-0.23631297709923665,0.0,0.0,0.09239204521572911,0.32468074969165783,3.4092806493818557,0.02440334384353602,0.01271119623124156,0.10729210559261346,0.33535337783397257,3.4028777703488178,,,,
2025-04-30 00:02:25.658242,-0.17731696915283202,-0.18148288004150404,-0.312648854961832,0.0,0.0,0.09270910502055871,0.32486996527740586,3.409212585433633,0.025418988237781482,0.015169594742919946,0.10759649691471655,0.3355119289674216,3.4028263247926214,,,,
2025-04-30 00:02:25.671268,-0.11506772598876935,0.01005325277099589,-0.19051145038167933,0.0,0.0,0.09305247224026462,0.3250670517702521,3.4091692748939475,0.026361109642183436,0.015130793939391311,0.10792759251112413,0.33570952086099676,3.402755247749151,,,,
2025-04-30 00:02:25.683536,-0.1509807508911134,0.029206866052245983,-0.28211450381679387,0.0,0.0,0.09339202671626765,0.3252507003039957,3.4091088678839068,0.027677375224310522,0.014969348770336134,0.10825099863973518,0.3358951500532869,3.4027144549967745,,,,
2025-04-30 00:02:25.696576,-0.17013436417236338,-0.006706158850097843,-0.014938931297709901,0.0,0.0,0.09377277844657596,0.3254505734438498,3.409105467839262,0.029198071221118675,0.015327337233431632,0.10861192003167379,0.33609035491468786,3.402650246795477,,,,
2025-04-30 00:02:25.709144,-0.055212684484863495,-0.013888763830566586,-0.014938931297709901,0.0,0.0,0.09414005354995417,0.32564367605140837,3.409102191127437,0.029224705188663592,0.015365503202238518,0.10897886041847846,0.3362829778797642,3.402646970083652,,,,
2025-04-30 00:02:25.721584,-0.17252856583251974,0.0028706477905271477,-0.2286793893129771,0.0,0.0,0.09452170245257867,0.3258375022934203,3.4090525387282358,0.03067807966564213,0.015580332742588663,0.10934242869870785,0.3364741315471163,3.4026437264429257,,,,
2025-04-30 00:02:25.736393,-0.1509807508911134,-0.03304237711181657,-0.09890839694656484,0.0,0.0,0.09499635922161308,0.3260790471744656,3.409026973650616,0.032051111406071434,0.016310273858938434,0.10979675173262035,0.33670486646006154,3.4025846191626714,,,,
2025-04-30 00:02:25.748890,-0.1509807508911134,-0.047407587072754054,-0.45005343511450374,0.0,0.0,0.09540925132531183,0.3262918971304098,3.4089288130665114,0.03304006490722302,0.017032479664530656,0.11019728517138618,0.33690869121962025,3.4025630463776206,,,,
2025-04-30 00:02:25.764857,-0.19886478409423836,-0.04022498209228531,-0.20577862595419844,0.0,0.0,0.09597149591337961,0.32658121972440846,3.408871469453222,0.035214202674576416,0.018120698143873053,0.11072481657271209,0.337180638865326,3.4024376315536897,,,,
2025-04-30 00:02:25.778667,-0.028876466223144437,0.017235857751464745,-0.18287786259541977,0.0,0.0,0.09597149591337961,0.32658121972440846,3.408827387620981,0.028171362139661135,0.014496558515098443,0.11121115545476026,0.3374309015266353,3.4023880296022053,,,,
2025-04-30 00:02:25.791865,0.10280462508544908,-0.006706158850097843,0.05376335877862598,0.0,0.0,0.09631861658561215,0.3267651774377956,3.408839771166912,0.02630263263107046,0.013939164509429999,0.11158293809343325,0.3376222152710578,3.4023459065566475,,,,
2025-04-30 00:02:25.804724,0.009430760339355526,-0.00910036051025409,0.21406870229007638,0.0,0.0,0.09631861658561215,0.3267651774377956,3.4088878162970953,0.021042106104856368,0.011151331607544,0.11192117270723077,0.3378014637892817,3.4023579730920352,,,,
2025-04-30 00:02:25.816731,-0.06000108780517577,-0.03064817545166032,-0.022572519083969456,0.0,0.0,0.09657325899399895,0.3269028146480705,3.408883085774906,0.02120699068892638,0.011462627357482462,0.11217383526811307,0.33793536312365297,3.402402835463947,,,,
2025-04-30 00:02:25.830059,-0.18449957413330065,0.0028706477905271477,0.015595419847328262,0.0,0.0,0.09688135834171292,0.3270605322012217,3.408886713497843,0.023116980492551772,0.011833694639669443,0.11245647858307109,0.3380881351525547,3.402397584765599,,,,
2025-04-30 00:02:25.843109,-0.12225033096923843,0.026812664392089736,-0.2439465648854961,0.0,0.0,0.09719785173391489,0.32721294038956455,3.4088311525868624,0.024253105946693027,0.011679144115160207,0.11275814598969668,0.3382425601638099,3.402401136755496,,,,
2025-04-30 00:02:25.855802,-0.33772848038330094,-0.016282965490722834,0.061396946564885535,0.0,0.0,0.0975503044125476,0.32737478614355797,3.4088447545715885,0.027766598042822516,0.012750381167499965,0.11306600048965708,0.33839080827188484,3.4023470924155865,,,,
2025-04-30 00:02:25.868223,-0.17013436417236338,-0.01867716715087908,0.046129770992366426,0.0,0.0,0.09791236417551988,0.32753951005033455,3.40885475502781,0.029148694999303188,0.013261586646103201,0.11341089304509297,0.3385491824283753,3.402360402637229,,,,
2025-04-30 00:02:25.880953,0.02619017196044915,-0.028253973791504072,-0.19814503816793888,0.0,0.0,0.09791236417551988,0.32753951005033455,3.4088107314851896,0.023318955999442552,0.010609269316882561,0.11378195252769074,0.3387180008773469,3.402370651674793,,,,
2025-04-30 00:02:25.893350,-0.04803007950439442,-0.06177279703369154,-0.007305343511450346,0.0,0.0,0.09820018931198433,0.32767928693880105,3.408809150832726,0.02321722640101234,0.011275011296854133,0.11407103881116067,0.33884952452862965,3.402327779160688,,,,
2025-04-30 00:02:25.906393,-0.07676049942626939,0.0028706477905271477,-0.2439465648854961,0.0,0.0,0.09850940536778427,0.3278263134547817,3.4087536213900878,0.023708866784378824,0.011273127691054118,0.11437384278908276,0.3389965756109956,3.4023261162487564,,,,
2025-04-30 00:02:25.919673,-0.031270667883300796,-0.01867716715087908,-0.28211450381679387,0.0,0.0,0.09850940536778427,0.3278263134547817,3.408688232213372,0.01896709342750306,0.009018502152843295,0.11468870017394488,0.3391462844746162,3.4022695737285216,,,,
