timestamp,imu_accel_x,imu_accel_y,imu_gyro_z,gps_lat,gps_lng,odom_x,odom_y,odom_heading,odom_vx,odom_vy,ekf_x,ekf_y,ekf_heading,map_matched_lat,map_matched_lng,distance_to_path,progress
2025-04-30 00:15:19.964743,-0.03219243552246098,-0.15492639522705087,0.3420916030534351,,,0.0,0.0,3.141592653589793,0.0,0.0,0.0,0.0,3.141592653589793,,,,
2025-04-30 00:15:19.977552,0.013297396020508057,0.0006967126831053383,-0.19225954198473288,,,0.0,0.0,3.141549671267718,0.0,0.0,0.0,0.0,3.141592653589793,,,,
2025-04-30 00:15:19.992813,-0.013038822241211001,-0.14774379024658213,-0.1388244274809161,,,2.9784675233424948e-06,3.3718432849537745e-05,3.141512696042633,0.00019517550028942958,0.0022095295479330006,0.0,0.0,3.1415414461764537,,,,
2025-04-30 00:15:20.005225,-0.029798233862304624,0.007879317663574081,-0.13119083969465656,,,2.9784675233424948e-06,3.3718432849537745e-05,3.141484275427032,0.0001561404002315437,0.0017676236383464005,2.422578745023726e-06,2.7425364922270762e-05,3.14151137185344,,,,
2025-04-30 00:15:20.017438,-0.015433023901366916,-0.02324530391845714,0.10545038167938925,,,2.9784675233424948e-06,3.3718432849537745e-05,3.1415067520276825,0.00012491232018523496,0.0014140989106771204,4.329445705802049e-06,4.9012494903077515e-05,3.1414834087103403,,,,
2025-04-30 00:15:20.029579,0.010903194360351698,0.13956040897216782,-0.10065648854961834,,,2.8874084613150786e-06,3.038213071737687e-05,3.1414854216372707,-7.4996934394580136e-06,-0.00027478037501729746,5.846094193311127e-06,6.618206609418408e-05,3.141505754987691,,,,
2025-04-30 00:15:20.042045,-0.010644620581054642,-0.004091690637207157,0.16651908396946563,,,2.8874084613150786e-06,3.038213071737687e-05,3.1415216494384453,-5.999754751566411e-06,-0.00021982430001383797,5.752608725377667e-06,6.275686316491873e-05,3.1414838562168885,,,,
2025-04-30 00:15:20.054079,0.00850899270019534,0.007879317663574081,0.1283511450381679,,,2.8874084613150786e-06,3.038213071737687e-05,3.141548607268664,-4.79980380125313e-06,-0.00017585944001107038,5.6804080405130125e-06,6.011151086835213e-05,3.1415188305304604,,,,
2025-04-30 00:15:20.066525,-0.03219243552246098,0.0006967126831053383,0.06728244274809159,,,2.8874084613150786e-06,3.038213071737687e-05,3.1415632236421738,-3.839843041002504e-06,-0.0001406875520088563,5.620665456940572e-06,5.79226094617736e-05,3.1415467134104462,,,,
2025-04-30 00:15:20.079412,-0.029798233862304624,-0.006485892297363405,-0.09302290076335878,,,2.8874084613150786e-06,3.038213071737687e-05,3.141542302423974,-3.071874432802003e-06,-0.00011255004160708506,5.571185057646647e-06,5.610970300316339e-05,3.141561845497859,,,,
2025-04-30 00:15:20.091692,-0.010644620581054642,0.01985032596435532,-0.3220305343511451,,,2.8874084613150786e-06,3.038213071737687e-05,3.1414732788195976,-2.4574995462416026e-06,-9.004003328566806e-05,5.533460281340686e-06,5.472750941558858e-05,3.141541907090735,,,,
2025-04-30 00:15:20.104347,0.05160462258300802,0.017456124304199072,0.08254961832061064,,,-5.242818750446786e-06,2.6526478205464268e-05,3.14149151204273,-0.0006424386683346201,-0.0003046680247423714,5.5023599901089335e-06,5.3588029547938724e-05,3.1414707782992557,,,,
2025-04-30 00:15:20.116448,-0.017827225561523274,-0.0016974889770509094,0.0062137404580152045,,,-5.242818750446786e-06,2.6526478205464268e-05,3.141492824340197,-0.0005139509346676961,-0.00024373441979389713,-2.271442226894645e-06,4.990140686638069e-05,3.1414882121872294,,,,
2025-04-30 00:15:20.255936,-0.029798233862304624,0.04139814090576155,0.12071755725190836,,,0.0002364576568762263,-0.00040302889891282817,3.141703516224098,0.0024170047562667306,-0.0042955537711829245,-7.396142084599544e-05,1.5903384555046444e-05,3.1415033396909173,,,,
2025-04-30 00:15:20.268326,-0.017827225561523274,-0.0016974889770509094,-0.21516030534351144,,,0.0002364576568762263,-0.00040302889891282817,3.141656988091968,0.0019336038050133846,-0.0034364430169463397,-4.401440146598163e-05,-3.7319113952652144e-05,3.141529444703388,,,,
2025-04-30 00:15:20.280466,-0.029798233862304624,0.0006967126831053383,0.02911450381679387,,,0.0002364576568762263,-0.00040302889891282817,3.1416631570987974,0.0015468830440107078,-0.002749154413557072,-2.0539921373150604e-05,-7.903847392820652e-05,3.1414838548694894,,,,
2025-04-30 00:15:20.292857,0.00850899270019534,0.01985032596435532,-0.1082900763358779,,,0.0002364576568762263,-0.00040302889891282817,3.1416397377102148,0.0012375064352085664,-0.002199323530845658,-1.3723537473122043e-06,-0.00011310349477108966,3.1414901513271274,,,,
2025-04-30 00:15:20.305173,-0.015433023901366916,-0.025639505578613386,0.18178625954198468,,,0.0002364576568762263,-0.00040302889891282817,3.141678811981059,0.000990005148166853,-0.0017594588246765263,1.3868171238644583e-05,-0.00014018928945498297,3.1414668747836574,,,,
2025-04-30 00:15:20.317165,-0.027404032202148265,0.007879317663574081,-0.06248854961832068,,,0.0002364576568762263,-0.00040302889891282817,3.1416657326391557,0.0007920041185334825,-0.001407567059741221,2.5740762961321983e-05,-0.00016128951940522722,3.141504924068789,,,,
2025-04-30 00:15:20.329115,0.02048000100097669,-0.016062698937988396,0.1283511450381679,,,0.0002364576568762263,-0.00040302889891282817,3.141692500866218,0.0006336032948267861,-0.001126053647792977,3.520465838158232e-05,-0.00017810896155037698,3.1414918917917145,,,,
2025-04-30 00:15:20.340942,-0.013038822241211001,0.012667720983886577,-0.08538931297709923,,,0.0002364576568762263,-0.00040302889891282817,3.1416748740977227,0.0005068826358614289,-0.0009008429182343815,4.269858162838732e-05,-0.00019142732601792965,3.14151838709705,,,,
2025-04-30 00:15:20.352900,-0.010644620581054642,-0.004091690637207157,0.2352213740458015,,,0.0002364576568762263,-0.00040302889891282817,3.1417239638863235,0.0004055061086891431,-0.0007206743345875053,4.8759583605439594e-05,-0.0002021990714322365,3.141500566678562,,,,
2025-04-30 00:15:20.365082,-0.036980838842773256,0.02942713260498031,-0.3678320610687023,,,0.0002364576568762263,-0.00040302889891282817,3.141645755388061,0.0003244048869513145,-0.0005765394676700042,5.369955460648779e-05,-0.00021097849605193102,3.1415505794761684,,,,
2025-04-30 00:15:20.377730,-0.022615628881835992,-0.04239891719970712,-0.04722137404580157,0.0,0.0,0.0002364576568762263,-0.00040302889891282817,3.1416353308254057,0.00025952390956105164,-0.0004612315741360034,5.78028165690306e-05,-0.0002182709030493325,3.141469377087531,,,,
2025-04-30 00:15:20.389690,-0.025009830541991906,-0.03521631221923838,-0.222793893129771,0.0,0.0,0.0002364576568762263,-0.00040302889891282817,3.1415888262600915,0.00020761912764884132,-0.00036898525930880273,6.0906606459177205e-05,-0.0002237870263970465,3.1414595204014133,,,,
2025-04-30 00:15:20.402274,-0.008250418920898284,-0.1357727819458009,0.02911450381679387,0.0,0.0,0.0002402983013017494,-0.0003865095721940346,3.1415952206077042,0.00030520709125709015,0.0013127525224316534,6.351923004518954e-05,-0.00022843023823536785,3.1414105887209125,,,,
2025-04-30 00:15:20.413866,-0.04655764548339825,-0.008880093957519652,0.15125190839694652,0.0,0.0,0.0002402983013017494,-0.0003865095721940346,3.141625822701714,0.00024416567300567215,0.0010502020179453228,6.705730911411307e-05,-0.0002132123014464103,3.1414164793228383,,,,
2025-04-30 00:15:20.425431,-0.015433023901366916,-0.008880093957519652,0.06728244274809159,0.0,0.0,0.0002402983013017494,-0.0003865095721940346,3.141639402887844,0.00019533253840453774,0.0008401616143562583,6.988096137421155e-05,-0.00020106724737297215,3.1414470077784746,,,,
2025-04-30 00:15:20.437149,-0.008250418920898284,0.010273519323730329,0.16651908396946563,0.0,0.0,0.0002402983013017494,-0.0003865095721940346,3.141673461164594,0.0001562660307236302,0.0006721292914850067,7.217001455863973e-05,-0.00019122160345473474,3.141460769108413,,,,
2025-04-30 00:15:20.448843,0.0061147910400389804,0.0006967126831053383,-0.14645801526717556,0.0,0.0,0.0002402983013017494,-0.0003865095721940346,3.1416435693754163,0.00012501282457890416,0.0005377034331880054,7.399738240678155e-05,-0.00018336175412365225,3.141494755321752,,,,
2025-04-30 00:15:20.460370,0.001326387719726707,-0.0016974889770509094,0.3649923664122137,0.0,0.0,0.0002402983013017494,-0.0003865095721940346,3.141716995872338,0.00010001025966312333,0.00043016274655040433,7.543832350315108e-05,-0.0001771639981962149,3.1414652919685513,,,,
2025-04-30 00:15:20.472072,-0.022615628881835992,-0.15971479854736337,0.35735877862595417,0.0,0.0,0.0002444759965555937,-0.00036014221921877083,3.141789982646486,0.00035700509176440014,0.0022532230563864714,7.6608649632298e-05,-0.0001721302076254344,3.1415398378227644,,,,
2025-04-30 00:15:20.483638,0.01808579934082033,-0.13816698360595714,0.2886564885496183,0.0,0.0,0.0002461468885495302,-0.0003164878601394528,3.141848254243276,0.00014446084500516917,0.003774238923666236,8.073791351416406e-05,-0.00014606852727644756,3.14161197847258,,,,
2025-04-30 00:15:20.495820,-0.008250418920898284,0.003090914343261586,-0.01668702290076335,0.0,0.0,0.0002461468885495302,-0.0003164878601394528,3.1418447063852812,0.00011556867600413535,0.003019391138932989,8.249770069570696e-05,-0.0001000916587505127,3.1416733502485243,,,,
2025-04-30 00:15:20.507941,-0.04655764548339825,0.005485116003417834,-0.10065648854961834,0.0,0.0,0.0002461468885495302,-0.0003164878601394528,3.1418234120160293,9.245494080330828e-05,0.0024155129111463913,8.38985317961828e-05,-6.349301318181927e-05,3.141669820027746,,,,
2025-04-30 00:15:20.520026,0.00850899270019534,-0.028033707238769634,-0.024320610687022903,0.0,0.0,0.0002461468885495302,-0.0003164878601394528,3.1418182821542646,7.396395264264664e-05,0.001932410328917113,8.501586818724528e-05,-3.430105810343214e-05,3.141648588904949,,,,
2025-04-30 00:15:20.532002,0.02766260598144532,0.012667720983886577,-0.23042748091603055,0.0,0.0,0.0002461468885495302,-0.0003164878601394528,3.141770119000939,5.917116211411731e-05,0.0015459282631336904,8.590164311944861e-05,-1.1158965679633918e-05,3.141643505495206,,,,
2025-04-30 00:15:20.543964,0.010903194360351698,-0.004091690637207157,0.06728244274809159,0.0,0.0,0.0002461468885495302,-0.0003164878601394528,3.1417841661853263,4.733692969129385e-05,0.0012367426105069524,8.660945893746076e-05,7.3336993122709724e-06,3.1415953969964643,,,,
2025-04-30 00:15:20.555594,0.18089151223144517,0.12040679569091783,-0.19225954198473288,0.0,0.0,0.00022271305802987974,-0.00031835535722206474,3.1417451424034297,-0.002015019252201649,-0.00016058162457640063,8.715996761696561e-05,2.171649823559845e-05,3.1416090536157624,,,,
2025-04-30 00:15:20.567122,0.0061147910400389804,0.022244527624511568,0.0062137404580152045,0.0,0.0,0.00022271305802987974,-0.00031835535722206474,3.1417463926451776,-0.0016120154017613194,-0.0001284652996611205,6.393031475877833e-05,1.9865272551160054e-05,3.141570369845906,,,,
2025-04-30 00:15:20.579154,0.003720589379883066,0.03182133426513656,0.1970534351145038,0.0,0.0,0.00022271305802987974,-0.00031835535722206474,3.141787775225572,-0.0012896123214090555,-0.00010277223972889641,4.453372517059153e-05,1.8319512696057174e-05,3.141571674774257,,,,
2025-04-30 00:15:20.590835,-0.005856217260741925,-0.018456900598144643,0.13598473282442747,0.0,0.0,0.00022271305802987974,-0.00031835535722206474,3.1418154977506063,-0.0010316898571272445,-8.221779178311714e-05,2.9470275585041116e-05,1.7119070961552928e-05,3.14161184706915,,,,
2025-04-30 00:15:20.602420,-0.020221427221679633,0.12998360233154282,-0.06248854961832068,0.0,0.0,0.00021366338383524498,-0.0003363839902942961,3.1418028630543224,-0.000781170707414146,-0.0015562372465402832,1.751839747658431e-05,1.616659767808524e-05,3.141639342119187,,,,
2025-04-30 00:15:20.616106,0.01569159768066397,-0.025639505578613386,0.1283511450381679,0.0,0.0,0.00021366338383524498,-0.0003363839902942961,3.141833522151796,-0.0006249365659313169,-0.0012449897972322266,6.827154474550687e-06,-5.132345579341599e-06,3.141624415547763,,,,
2025-04-30 00:15:20.627570,0.02766260598144532,-0.025639505578613386,0.2581221374045801,0.0,0.0,0.00021366338383524498,-0.0003363839902942961,3.1418851667900523,-0.0004999492527450535,-0.0009959918377857814,-3.3689466521352147e-07,-1.940446305831306e-05,3.141650095826572,,,,
2025-04-30 00:15:20.639117,-0.0034620156005860103,-0.03042790889892588,0.18941984732824424,0.0,0.0,0.00021366338383524498,-0.0003363839902942961,3.1419233406768803,-0.0003999594021960428,-0.0007967934702286252,-6.109733796496252e-06,-3.090503161409805e-05,3.1417021153240006,,,,
2025-04-30 00:15:20.650393,-0.022615628881835992,0.0006967126831053383,0.28102290076335873,0.0,0.0,0.00021366338383524498,-0.0003363839902942961,3.141978650459584,-0.0003199675217568343,-0.0006374347761829002,-1.061996476808735e-05,-3.989025003290448e-05,3.1417393961668325,,,,
2025-04-30 00:15:20.661734,-0.010644620581054642,0.010273519323730329,0.21232061068702285,0.0,0.0,0.00021366338383524498,-0.0003363839902942961,3.1420206770840666,-0.00025597401740546743,-0.0005099478209463201,-1.4248746819872126e-05,-4.711945836722365e-05,3.1417950216846906,,,,
2025-04-30 00:15:20.673114,0.02766260598144532,0.058157552526855394,-0.01668702290076335,0.0,0.0,0.00020730105082473812,-0.0003494535716122799,3.1420173627455936,-0.0005590823321384632,-0.0011484736795865343,-1.7161720182027174e-05,-5.2922642743365386e-05,3.1418371923206894,,,,
2025-04-30 00:15:20.684511,0.05160462258300802,0.0006967126831053383,0.07491603053435109,0.0,0.0,0.00019448750927207516,-0.00036237265880939714,3.142032264842173,-0.0011242785722339692,-0.0011335392989397642,-2.3533650476830545e-05,-6.601193891867244e-05,3.1418338729826902,,,,
2025-04-30 00:15:20.695864,-0.06810546042480459,-0.006485892297363405,0.1283511450381679,0.0,0.0,0.00019058087196599958,-0.0003741606521646252,3.142057696233458,-0.0003441201377566794,-0.0010383574361938538,-3.6297066885248406e-05,-7.888048808876498e-05,3.1418487167839313,,,,
2025-04-30 00:15:20.707827,0.025268404321288962,-0.013668497277832148,0.18941984732824424,0.0,0.0,0.00019058087196599958,-0.0003741606521646252,3.142097245549918,-0.0002752961102053435,-0.0008306859489550831,-4.0413738455091497e-05,-9.130224452760747e-05,3.141875515454317,,,,
2025-04-30 00:15:20.719525,-0.0010678139404296516,-0.0016974889770509094,-0.0014198473282442947,0.0,0.0,0.00019058087196599958,-0.0003741606521646252,3.1420969556496496,-0.00022023688816427483,-0.0006645487591640665,-4.363428571142904e-05,-0.00010102001116001634,3.141914190643865,,,,
2025-04-30 00:15:20.731178,0.1761031089111329,0.12998360233154282,-0.2533282442748092,0.0,0.0,0.0001646396551947861,-0.0003990570817256808,3.1420454342270014,-0.002226196404467883,-0.0021365359405351183,-4.620064187183824e-05,-0.00010876380383792995,3.1419139018779814,,,,
2025-04-30 00:15:20.742896,0.0061147910400389804,-0.013668497277832148,0.18178625954198468,0.0,0.0,0.0001646396551947861,-0.0003990570817256808,3.1420826135980593,-0.0017809571235743065,-0.0017092287524280948,-7.228781945352913e-05,-0.00013380031561134958,3.1418620905649752,,,,
2025-04-30 00:15:20.754616,-0.0010678139404296516,0.01985032596435532,-0.19989312977099244,0.0,0.0,0.0001646396551947861,-0.0003990570817256808,3.1420417243112073,-0.0014247656988594453,-0.001367383001942476,-9.316095842501659e-05,-0.0001538327851252094,3.141899275987609,,,,
2025-04-30 00:15:20.766146,-0.06571125876464823,0.13716620731201157,-0.09302290076335878,0.0,0.0,0.0001571093399917895,-0.00043237395829366133,3.1420230048375517,-0.0006531106529609066,-0.002889601088845883,-0.00010958839649265374,-0.00016959860514539348,3.1418590504716777,,,,
2025-04-30 00:15:20.777544,0.16413210061035155,0.04139814090576155,0.22758778625954196,0.0,0.0,0.0001289216372974025,-0.0004699300042139285,3.142068277885834,-0.0024731261199012274,-0.0032950836445468116,-0.00011703229058444969,-0.00020253312301827,3.1418405458306915,,,,
2025-04-30 00:15:20.788984,-0.0034620156005860103,-0.04239891719970712,-0.04722137404580157,0.0,0.0,0.0001289216372974025,-0.0004699300042139285,3.142058849366836,-0.001978500895920982,-0.0026360669156374494,-0.00014532494905918604,-0.00024022900736911571,3.141885987451353,,,,
2025-04-30 00:15:20.800902,-0.0034620156005860103,0.13477200565185532,-0.01668702290076335,0.0,0.0,0.0001063048044017593,-0.0005194757350350058,3.1420553784459897,-0.0018977688289026505,-0.004157361200451482,-0.0001689039137178055,-0.0002716445749686635,3.14187616534872,,,,
2025-04-30 00:15:20.813269,-0.0010678139404296516,0.02942713260498031,-0.01668702290076335,0.0,0.0,0.0001063048044017593,-0.0005194757350350058,3.142051776495902,-0.0015182150631221204,-0.0033258889603611855,-0.00019237454495046465,-0.00032306068537721273,3.1418725633986324,,,,
2025-04-30 00:15:20.827637,-0.010644620581054642,-0.013668497277832148,-0.11592366412213745,0.0,0.0,0.0001063048044017593,-0.0005194757350350058,3.1420227063295303,-0.0012145720504976964,-0.0026607111682889484,-0.00021418834589669828,-0.00037084724837007315,3.1418683787954658,,,,
2025-04-30 00:15:20.839447,0.00850899270019534,-0.006485892297363405,-0.024320610687022903,0.0,0.0,0.0001063048044017593,-0.0005194757350350058,3.142017693559246,-0.0009716576403981571,-0.002128568934631159,-0.0002285316511996167,-0.00040226851530439367,3.1418444855344685,,,,
2025-04-30 00:15:20.851226,0.0061147910400389804,0.0006967126831053383,0.01384732824427476,0.0,0.0,0.0001063048044017593,-0.0005194757350350058,3.1420205404574233,-0.0007773261123185257,-0.0017028551477049271,-0.0002399773377877018,-0.00042734209255423575,3.141839485414517,,,,
2025-04-30 00:15:20.862688,0.02048000100097669,0.005485116003417834,-0.17699236641221378,0.0,0.0,0.0001063048044017593,-0.0005194757350350058,3.141985133281259,-0.0006218608898548206,-0.0013622841181639418,-0.0002488870288472228,-0.00044686017260420696,3.1418422555610523,,,,
2025-04-30 00:15:20.874457,-0.013038822241211001,-0.02085110225830089,-0.03958778625954201,0.0,0.0,0.0001063048044017593,-0.0005194757350350058,3.1419770014375437,-0.0004974887118838565,-0.0010898272945311534,-0.0002562058929464377,-0.00046289329590882313,3.141805899038032,,,,
2025-04-30 00:15:20.886639,-0.05613445212402324,-0.018456900598144643,0.02911450381679387,0.0,0.0,0.00010852815804201409,-0.000529798902105975,3.14198319152464,0.00018251499328170046,-0.0008474282878309521,-0.0002622661804804347,-0.0004761693092323149,3.141797482207492,,,,
2025-04-30 00:15:20.898649,-0.008250418920898284,-0.0016974889770509094,-0.04722137404580157,0.0,0.0,0.00010852815804201409,-0.000529798902105975,3.141973293574137,0.00014601199462536038,-0.0006779426302647618,-0.00026007424464517196,-0.0004863466015112295,3.1418035848235957,,,,
2025-04-30 00:15:20.910435,-0.017827225561523274,0.02942713260498031,-0.07775572519083979,0.0,0.0,0.00010852815804201409,-0.000529798902105975,3.141957298892786,0.0001168095957002883,-0.0005423541042118094,-0.0002583533496069701,-0.0004943368225310956,3.141793871187346,,,,
2025-04-30 00:15:20.922172,-0.013038822241211001,0.007879317663574081,0.2962900763358778,0.0,0.0,0.00010852815804201409,-0.000529798902105975,3.142017996731358,9.344767656023065e-05,-0.00043388328336944757,-0.00025698228704070864,-0.0005007027499661246,3.141777942187921,,,,
2025-04-30 00:15:20.934046,0.02048000100097669,0.022244527624511568,-0.07012213740458023,0.0,0.0,0.00010852815804201409,-0.000529798902105975,3.1420034646402257,7.475814124818453e-05,-0.0003471066266955581,-0.0002558726930208834,-0.0005058546629322922,3.141839345256199,,,,
2025-04-30 00:15:20.945764,0.03484521096191395,0.01985032596435532,-0.0014198473282442947,0.0,0.0,0.00010852815804201409,-0.000529798902105975,3.1420031742613888,5.980651299854762e-05,-0.0002776853013564465,-0.0002549966923480505,-0.0005099219876872059,3.1418250042884868,,,,
2025-04-30 00:15:20.957453,-0.027404032202148265,-0.037610513879394625,0.03674809160305342,0.0,0.0,0.00010852815804201409,-0.000529798902105975,3.142010671568285,4.78452103988381e-05,-0.00022214824108515718,-0.0002542975886288623,-0.0005131679690562734,3.1418247146127323,,,,
2025-04-30 00:15:20.968847,-0.0034620156005860103,-0.03282211055908213,-0.00905343511450385,0.0,0.0,0.00010852815804201409,-0.000529798902105975,3.14200887121059,3.8276168319070485e-05,-0.00017771859286812576,-0.0002537524505654911,-0.0005156990784592205,3.1418320223040834,,,,
2025-04-30 00:15:20.980374,0.022874202661133047,0.027032930944824063,0.14361832061068697,0.0,0.0,0.00010852815804201409,-0.000529798902105975,3.1420377638923953,3.062093465525639e-05,-0.0001421748742945006,-0.0002533112570722313,-0.0005177475668593942,3.141830200962496,,,,
2025-04-30 00:15:20.991931,0.022874202661133047,0.017456124304199072,-0.05485496183206112,0.0,0.0,0.00010852815804201409,-0.000529798902105975,3.1420266993545325,2.4496747724205114e-05,-0.00011373989943560049,-0.00025295737510145754,-0.0005193906625152354,3.141859169542423,,,,
2025-04-30 00:15:21.003517,0.013297396020508057,-0.0112742956176759,0.1130839694656488,0.0,0.0,0.00010852815804201409,-0.000529798902105975,3.1420495678137352,1.9597398179364093e-05,-9.09919195484804e-05,-0.00025267353946486544,-0.0005207085287530596,3.1418480764718257,,,,
2025-04-30 00:15:21.016172,-0.05613445212402324,0.017456124304199072,0.0901832061068702,0.0,0.0,0.00011758227990768975,-0.0005336627291820177,3.142069486362076,0.0007154704313970166,-0.00030532547120000616,-0.0002524255386760422,-0.0005218600115987938,3.14187305305682,,,,
2025-04-30 00:15:21.028442,0.03723941262207031,0.0006967126831053383,-0.19989312977099244,0.0,0.0,0.00011758227990768975,-0.0005336627291820177,3.1420266797920515,0.0005723763451176133,-0.00024426037696000493,-0.00024364690584184978,-0.0005256062743218501,3.1418923655451065,,,,
2025-04-30 00:15:21.040887,-0.005856217260741925,0.017456124304199072,0.2352213740458015,0.0,0.0,0.00011758227990768975,-0.0005336627291820177,3.142077770249165,0.00045790107609409064,-0.00019540830156800396,-0.00023652383415078874,-0.0005286460298799073,3.141848948438922,,,,
2025-04-30 00:15:21.053259,0.01808579934082033,0.058157552526855394,-0.2838625954198473,0.0,0.0,0.0001204248654438462,-0.0005447570719128075,3.1420164751091115,0.00022975926702850462,-0.0008967287075680747,-0.000230858674295739,-0.0005310636246906236,3.1418997403618394,,,,
2025-04-30 00:15:21.065506,0.01808579934082033,0.015061922644042824,0.16651908396946563,0.0,0.0,0.0001204248654438462,-0.0005447570719128075,3.1420520688908518,0.0001838074136228037,-0.0007173829660544599,-0.00022804479289164424,-0.0005420459379064412,3.1418390641737126,,,,
2025-04-30 00:15:21.077408,0.025268404321288962,-0.006485892297363405,-0.07775572519083979,0.0,0.0,0.0001204248654438462,-0.0005447570719128075,3.142035915990478,0.00014704593089824298,-0.0005739063728435679,-0.00022585701215131372,-0.0005505846393964469,3.141873656689789,,,,
2025-04-30 00:15:21.089152,0.022874202661133047,-0.0016974889770509094,0.021480916030534314,0.0,0.0,0.0001204248654438462,-0.0005447570719128075,3.1420403188843573,0.00011763674471859439,-0.0004591250982748543,-0.00022413013650799966,-0.0005573244718471123,3.1418577192779007,,,,
2025-04-30 00:15:21.101405,-0.04416344382324189,-0.0112742956176759,-0.05485496183206112,0.0,0.0,0.0001204248654438462,-0.0005447570719128075,3.1420285880500813,9.410939577487552e-05,-0.0003673000786198835,-0.00022268875610625052,-0.0005629500433484963,3.141862313011223,,,,
2025-04-30 00:15:21.113197,-0.0034620156005860103,-0.0016974889770509094,-0.1540916030534351,0.0,0.0,0.0001204248654438462,-0.0005447570719128075,3.141996874725869,7.528751661990042e-05,-0.0002938400628959068,-0.00022157902333398854,-0.0005672812254918176,3.1418510234071513,,,,
2025-04-30 00:15:21.124979,-0.008250418920898284,-0.03042790889892588,-0.0014198473282442947,0.0,0.0,0.0001204248654438462,-0.0005447570719128075,3.1419965827636203,6.023001329592034e-05,-0.00023507205031672547,-0.0002206920089637166,-0.0005707431587584726,3.1418193376547245,,,,
2025-04-30 00:15:21.136847,0.00850899270019534,-0.0112742956176759,-0.23042748091603055,0.0,0.0,0.0001204248654438462,-0.0005447570719128075,3.141948853011555,4.8184010636736275e-05,-0.0001880576402533804,-0.00021997719916408255,-0.0005735329938588053,3.141819043553688,,,,
2025-04-30 00:15:21.149069,-0.04176924216308597,0.0006967126831053383,0.06728244274809159,0.0,0.0,0.0001204248654438462,-0.0005447570719128075,3.141963206208589,3.8547208509389024e-05,-0.0001504461122027043,-0.0002193882572349084,-0.0005758315785549145,3.1417698870293327,,,,
2025-04-30 00:15:21.161221,0.0061147910400389804,-0.008880093957519652,-0.00905343511450385,0.0,0.0,0.0001204248654438462,-0.0005447570719128075,3.141961286163594,3.083776680751122e-05,-0.00012035688976216345,-0.0002189198608027734,-0.0005776596855673112,3.1417841562338746,,,,
2025-04-30 00:15:21.173770,0.04202781594238303,0.007879317663574081,0.09781679389312975,0.0,0.0,0.0001204248654438462,-0.0005447570719128075,3.1419827116291104,2.4670213446008978e-05,-9.628551180973076e-05,-0.0002185328506172423,-0.0005791701497499982,3.141782173199529,,,,
2025-04-30 00:15:21.186496,-0.020221427221679633,0.005485116003417834,-0.03195419847328246,0.0,0.0,0.0001204248654438462,-0.0005447570719128075,3.141975614623597,1.9736170756807185e-05,-7.702840944778462e-05,-0.00021821891343661178,-0.0005803954168997642,3.141803898242207,,,,
2025-04-30 00:15:21.199209,-0.03219243552246098,0.0390039392456053,0.10545038167938925,0.0,0.0,0.0001257727087584834,-0.0005518931330744462,3.1419990135797238,0.00042063723592979124,-0.000561290386769918,-0.000217967994260127,-0.0005813747307343845,3.1417968077520997,,,,
2025-04-30 00:15:21.214590,-0.03219243552246098,-0.15253219356689462,0.25048854961832057,0.0,0.0,0.00013955980237714258,-0.0005249870932093858,3.1420662563886963,0.0008963799279686978,0.0017493196712267851,-0.0002114982320864022,-0.000590007859241832,3.1418251155525247,,,,
2025-04-30 00:15:21.227963,0.001326387719726707,-0.03282211055908213,0.22758778625954196,0.0,0.0,0.00013955980237714258,-0.0005249870932093858,3.1421193756289045,0.0007171039423749582,0.0013994557369814281,-0.00019951103464917202,-0.0005666143855310303,3.1418835798561466,,,,
2025-04-30 00:15:21.242709,-0.015433023901366916,0.003090914343261586,0.0901832061068702,0.0,0.0,0.00013955980237714258,-0.0005249870932093858,3.1421425860402783,0.0005736831538999666,0.0011195645895851426,-0.0001889364842980551,-0.0005459777465720275,3.141942154022787,,,,
2025-04-30 00:15:21.254625,-0.005856217260741925,0.11561839237060534,0.2962900763358778,0.0,0.0,0.00014708327358455096,-0.0005279998456122568,3.142204202403555,0.0006314175880246084,-0.00025284935677868237,-0.00018210093081902622,-0.0005326379028389297,3.1419609084855002,,,,
2025-04-30 00:15:21.267336,-0.025009830541991906,0.010273519323730329,0.16651908396946563,0.0,0.0,0.00014708327358455096,-0.0005279998456122568,3.142241145295501,0.0005051340704196868,-0.0002022794854229459,-0.00017407480092821907,-0.0005358519434656118,3.1420266415655402,,,,
2025-04-30 00:15:21.279190,0.1521610923095702,-0.0016974889770509094,0.03674809160305342,0.0,0.0,0.0001319963368270603,-0.0005301297678592769,3.142248748420104,-0.0012726855692703305,-0.00017967340561061808,-0.0001680867344658603,-0.0005382498474550972,3.1420610941122993,,,,
2025-04-30 00:15:21.290746,0.02048000100097669,0.010273519323730329,-0.207526717557252,0.0,0.0,0.0001319963368270603,-0.0005301297678592769,3.1422068926304805,-0.0010181484554162643,-0.00014373872448849448,-0.0001827937745032452,-0.0005403261371795761,3.1420685057863684,,,,
2025-04-30 00:15:21.302179,0.010903194360351698,-0.004091690637207157,0.0062137404580152045,0.0,0.0,0.0001319963368270603,-0.0005301297678592769,3.142208132503752,-0.0008145187643330116,-0.00011499097959079559,-0.0001944339071054888,-0.0005419694513782304,3.1420270964561983,,,,
2025-04-30 00:15:21.313764,-0.008250418920898284,-0.028033707238769634,-0.19989312977099244,0.0,0.0,0.0001319963368270603,-0.0005301297678592769,3.1421677131800205,-0.0006516150114664093,-9.199278367263648e-05,-0.00020387049308381416,-0.0005433016763841564,3.1420283529035182,,,,
2025-04-30 00:15:21.325480,-0.0345866371826169,0.005485116003417834,-0.19989312977099244,0.0,0.0,0.0001319963368270603,-0.0005301297678592769,3.142126838865445,-0.0005212920091731274,-7.359422693810919e-05,-0.00021150474221393427,-0.0005443794536243549,3.1419874785889426,,,,
2025-04-30 00:15:21.336863,-0.0010678139404296516,0.12998360233154282,-0.2685954198473283,0.0,0.0,0.0001263248798599237,-0.0005474548989034976,3.142073478760613,-0.000498257606365234,-0.0015220741996418085,-0.00021743839010925694,-0.0005452171457855523,3.1419477671211675,,,,
2025-04-30 00:15:21.348281,-0.005856217260741925,0.012667720983886577,0.05964885496183203,0.0,0.0,0.0001263248798599237,-0.0005474548989034976,3.1420853660421346,-0.0003986060850921872,-0.0012176593597134468,-0.00022312766615697398,-0.0005625967104449679,3.141894239364881,,,,
2025-04-30 00:15:21.362112,-0.12077789694824226,-0.006485892297363405,-0.03195419847328246,0.0,0.0,0.0001435641372122251,-0.0005627327617280054,3.142077652333515,0.001246409123453549,-0.0011045990684045407,-0.00022864084217100823,-0.0005794383258299511,3.141908638533336,,,,
2025-04-30 00:15:21.373756,0.01569159768066397,0.003090914343261586,0.01384732824427476,0.0,0.0,0.0001435641372122251,-0.0005627327617280054,3.142080466387521,0.0009971272987628393,-0.0008836792547236325,-0.00021412809288957776,-0.0005922998887266015,3.141902144801214,,,,
2025-04-30 00:15:21.385540,0.03005680764160168,-0.02324530391845714,0.06728244274809159,0.0,0.0,0.0001435641372122251,-0.0005627327617280054,3.1420943044306022,0.0007977018390102715,-0.0007069434037789061,-0.00020237786833059203,-0.0006027132328342223,3.141904992794197,,,,
2025-04-30 00:15:21.397737,0.01808579934082033,-0.016062698937988396,-0.03195419847328246,0.0,0.0,0.0001435641372122251,-0.0005627327617280054,3.1420875019480254,0.0006381614712082172,-0.0005655547230231249,-0.00019264809471811032,-0.0006113360025700176,3.1419193160339085,,,,
2025-04-30 00:15:21.410134,0.01808579934082033,-0.15732059688720712,-0.03195419847328246,0.0,0.0,0.0001485815793836053,-0.0005459128696851084,3.1420805884376146,0.00040475204387407395,0.0013568438757374087,-0.0001847372309528706,-0.0006183468087177991,3.1419124025234977,,,,
2025-04-30 00:15:21.422234,-0.0010678139404296516,-0.006485892297363405,-0.08538931297709923,0.0,0.0,0.0001485815793836053,-0.0005459128696851084,3.1420625555371164,0.0003238016350992592,0.001085475100589927,-0.00017983973878762623,-0.0006019290231835247,3.1419056542916466,,,,
2025-04-30 00:15:21.434393,0.001326387719726707,0.012667720983886577,0.3115572519083969,0.0,0.0,0.0001485815793836053,-0.0005459128696851084,3.1421286731229823,0.00025904130807940736,0.0008683800804719417,-0.00017590259937464445,-0.0005887306129931843,3.1418875332715186,,,,
2025-04-30 00:15:21.446350,0.003720589379883066,0.015061922644042824,0.10545038167938925,0.0,0.0,0.0001485815793836053,-0.0005459128696851084,3.142150679331116,0.0002072330464635259,0.0006947040643775534,-0.0001728052605452486,-0.0005783474530181924,3.14195255146891,,,,
2025-04-30 00:15:21.458398,0.03005680764160168,-0.008880093957519652,-0.16935877862595422,0.0,0.0,0.0001485815793836053,-0.0005459128696851084,3.1421150670118814,0.00016578643717082072,0.0005557632515020427,-0.00017030851554609226,-0.0005699776542422355,3.1419747252982577,,,,
2025-04-30 00:15:21.470956,0.013297396020508057,0.01985032596435532,-0.1540916030534351,0.0,0.0,0.0001485815793836053,-0.0005459128696851084,3.142081291574592,0.00013262914973665658,0.0004446106012016342,-0.00016822645364071464,-0.000562997991043557,3.141937603438964,,,,
2025-04-30 00:15:21.483689,0.00850899270019534,0.027032930944824063,-0.34493129770992376,0.0,0.0,0.0001485815793836053,-0.0005459128696851084,3.142004638075443,0.00010610331978932527,0.0003556884809613074,-0.00016653772060141035,-0.000557336877982326,3.141903359922525,,,,
2025-04-30 00:15:21.496373,-0.020221427221679633,0.0006967126831053383,0.13598473282442747,0.0,0.0,0.0001485815793836053,-0.0005459128696851084,3.1420347417317913,8.488265583146022e-05,0.0002845507847690459,-0.00016519192005552905,-0.0005528253720954991,3.141827000664876,,,,
2025-04-30 00:15:21.508995,-0.013038822241211001,-0.028033707238769634,0.1970534351145038,0.0,0.0,0.0001485815793836053,-0.0005459128696851084,3.14207815047443,6.790612466516817e-05,0.00022764062781523674,-0.00016412056163299656,-0.0005492338741986159,3.1418569566322336,,,,
2025-04-30 00:15:21.521513,0.003720589379883066,0.010273519323730329,-0.06248854961832068,0.0,0.0,0.0001485815793836053,-0.0005459128696851084,3.142064497513675,5.4324899732134544e-05,0.0001821125022521894,-0.00016327048520037047,-0.0005463841764170372,3.141900010324993,,,,
2025-04-30 00:15:21.533948,-0.025009830541991906,0.13237780399169907,-0.39836641221374053,0.0,0.0,0.00015304152482895146,-0.0005637535473125858,3.14197803634385,0.0003586480889067276,-0.0014346643954070131,-0.0001625949313730302,-0.0005441195280051744,3.141886447853522,,,,
2025-04-30 00:15:21.547615,-0.0010678139404296516,0.017456124304199072,-0.1082900763358779,0.0,0.0,0.00015304152482895146,-0.0005637535473125858,3.1419522061623617,0.0002869184711253821,-0.0011477315163256104,-0.00015769342071659913,-0.0005637265551719036,3.1417914264344353,,,,
2025-04-30 00:15:21.560251,-0.015433023901366916,-0.0112742956176759,0.21232061068702285,0.0,0.0,0.00015304152482895146,-0.0005637535473125858,3.1419990293421822,0.00022953477690030569,-0.0009181852130604884,-0.00015406807114388531,-0.0005782286816679107,3.141767545164969,,,,
2025-04-30 00:15:21.572860,0.04921042092285166,0.003090914343261586,0.0901832061068702,0.0,0.0,0.00015304152482895146,-0.0005637535473125858,3.142018876214071,0.00018362782152024455,-0.0007345481704483908,-0.00015117381127480417,-0.0005898063024991928,3.141814271159104,,,,
2025-04-30 00:15:21.587090,0.025268404321288962,0.046186544226074044,-0.3525648854961832,0.0,0.0,0.00015059104670602907,-0.0005831642372259581,3.141931312995469,-0.0001722049123378722,-0.0013640669237901788,-0.00014856078500693332,-0.0006002589324357,3.141836669112262,,,,
2025-04-30 00:15:21.601582,0.1425842856689452,-0.16210900020751962,-0.16935877862595422,0.0,0.0,0.00011878897871747695,-0.0005691806006577606,3.1418884764488095,-0.002194451516396685,0.0009649187745547689,-0.0001510563846085705,-0.0006200270379177209,3.141747493562635,,,,
2025-04-30 00:15:21.613692,0.003720589379883066,-0.008880093957519652,0.12071755725190836,0.0,0.0,0.00011878897871747695,-0.0005691806006577606,3.1419139917275087,-0.001755561213117348,0.0007719350196438152,-0.0001776317044527814,-0.0006083416464356693,3.141711697307847,,,,
2025-04-30 00:15:21.626133,0.0061147910400389804,-0.006485892297363405,0.0062137404580152045,0.0,0.0,0.00011878897871747695,-0.0005691806006577606,3.141915340922272,-0.0014044489704938786,0.0006175480157150522,-0.0001994720822843509,-0.0005987382487503766,3.14173790881398,,,,
2025-04-30 00:15:21.638098,-0.022615628881835992,-0.018456900598144643,0.2581221374045801,0.0,0.0,0.00011878897871747695,-0.0005691806006577606,3.141969246530611,-0.0011235591763951028,0.0004940384125720418,-0.00021627703502077064,-0.0005913489697985669,3.14173920647664,,,,
2025-04-30 00:15:21.649781,-0.0034620156005860103,-0.02324530391845714,-0.2762290076335879,0.0,0.0,0.00011878897871747695,-0.0005691806006577606,3.1419129239135657,-0.0008988473411160824,0.00039523073005763343,-0.00022940302675703012,-0.000585577360917563,3.141791837134153,,,,
2025-04-30 00:15:21.661628,0.0061147910400389804,0.010273519323730329,0.08254961832061064,0.0,0.0,0.00011878897871747695,-0.0005691806006577606,3.1419299929996747,-0.0007190778728928659,0.0003161845840461068,-0.0002400519027630133,-0.0005808949606415472,3.1417347202532633,,,,
2025-04-30 00:15:21.673476,-0.0034620156005860103,0.005485116003417834,-0.18462595419847333,0.0,0.0,0.00011878897871747695,-0.0005691806006577606,3.1418918164484784,-0.0005752622983142928,0.00025294766723688543,-0.0002485711750093245,-0.0005771489650364554,3.141751789682877,,,,
2025-04-30 00:15:21.685517,0.00850899270019534,0.01985032596435532,0.25048854961832057,0.0,0.0,0.00011878897871747695,-0.0005691806006577606,3.1419444603799946,-0.0004602098386514342,0.00020235813378950836,-0.0002554982355272702,-0.0005741030783097264,3.1417129877651697,,,,
2025-04-30 00:15:21.697426,0.01569159768066397,-0.037610513879394625,-0.10065648854961834,0.0,0.0,0.00011878897871747695,-0.0005691806006577606,3.1419235396255614,-0.0003681678709211474,0.0001618865070316067,-0.0002609786587443193,-0.0005716932901621533,3.1417650500764074,,,,
2025-04-30 00:15:21.709303,-0.039375040502929615,-0.004091690637207157,0.17415267175572513,0.0,0.0,0.00011878897871747695,-0.0005691806006577606,3.141959641119587,-0.00029453429673691797,0.00012950920562528536,-0.0002653514983920126,-0.0005697705158184735,3.1417441841914147,,,,
2025-04-30 00:15:21.721138,-0.020221427221679633,0.005485116003417834,0.0901832061068702,0.0,0.0,0.00011878897871747695,-0.0005691806006577606,3.141978269116518,-0.0002356274373895344,0.0001036073645002283,-0.00026883727051432986,-0.0005682377925208695,3.1417801566920054,,,,
2025-04-30 00:15:21.733618,0.010903194360351698,-0.04000471553955087,-0.03958778625954201,0.0,0.0,0.00011878897871747695,-0.0005691806006577606,3.141969646041177,-0.00018850194991162754,8.288589160018264e-05,-0.00027177796194670877,-0.0005669447457836447,3.1417998005431573,,,,
2025-04-30 00:15:21.745297,-0.0034620156005860103,0.010273519323730329,0.22758778625954196,0.0,0.0,0.00011878897871747695,-0.0005691806006577606,3.1420160356447133,-0.00015080155992930203,6.630871328014612e-05,-0.00027397941885457026,-0.0005659767466795876,3.141791731297704,,,,
2025-04-30 00:15:21.756803,-0.0010678139404296516,0.022244527624511568,0.05201526717557248,0.0,0.0,0.00011878897871747695,-0.0005691806006577606,3.1420264812981813,-0.00012064124794344163,5.3046970624116895e-05,-0.00027571455376186073,-0.0005652137932782843,3.141837435247293,,,,
2025-04-30 00:15:21.768181,0.025268404321288962,0.034215535925292806,0.01384732824427476,0.0,0.0,0.00011878897871747695,-0.0005691806006577606,3.142029231162,-9.65129983547533e-05,4.243757649929352e-05,-0.0002770872158949834,-0.000564610222202107,3.1418477646695986,,,,
2025-04-30 00:15:21.779576,-0.008250418920898284,0.11561839237060534,-0.222793893129771,0.0,0.0,0.00011876685751233286,-0.0005834191686740868,3.1419849210128996,-1.941271246379114e-06,-0.001249521556337468,-0.00027818700235690064,-0.0005641266368518835,3.141850518682155,,,,
2025-04-30 00:15:21.791303,-0.039375040502929615,-0.0112742956176759,-0.01668702290076335,0.0,0.0,0.00011876685751233286,-0.0005834191686740868,3.141981505572903,-1.5530169971032914e-06,-0.0009996172450699745,-0.00027820976782854875,-0.0005787798944106038,3.1418049180271947,,,,
2025-04-30 00:15:21.804883,-0.0010678139404296516,-0.037610513879394625,-0.2762290076335879,0.0,0.0,0.00011876685751233286,-0.0005834191686740868,3.141916034553632,-1.2424135976826332e-06,-0.0007996937960559796,-0.0002782308579295853,-0.0005923547804136071,3.141800962916154,,,,
2025-04-30 00:15:21.816421,-0.010644620581054642,-0.004091690637207157,-0.19225954198473288,0.0,0.0,0.00011876685751233286,-0.0005834191686740868,3.141877319582671,-9.939308781461065e-07,-0.0006397550368447837,-0.00027824519234092486,-0.0006015812890736234,3.1417453391593364,,,,
2025-04-30 00:15:21.827893,-0.008250418920898284,-0.03042790889892588,0.1970534351145038,0.0,0.0,0.00011876685751233286,-0.0005834191686740868,3.141916776857946,-7.951447025168853e-07,-0.000511804029475827,-0.0002782565954137246,-0.0006089210079812112,3.141706841796081,,,,
2025-04-30 00:15:21.839255,-0.017827225561523274,0.02942713260498031,-0.0014198473282442947,0.0,0.0,0.00011876685751233286,-0.0005834191686740868,3.1419164953001317,-6.361157620135083e-07,-0.0004094432235806616,-0.0002782656297185338,-0.0006147360421381704,3.1417459177822247,,,,
2025-04-30 00:15:21.850598,-0.04416344382324189,0.007879317663574081,-0.03195419847328246,0.0,0.0,0.00011876685751233286,-0.0005834191686740868,3.1419101692399845,-5.088926096108067e-07,-0.0003275545788645293,-0.00027827284518109767,-0.0006193803575728822,3.1417456366911622,,,,
2025-04-30 00:15:21.862015,0.013297396020508057,0.017456124304199072,-0.19989312977099244,0.0,0.0,0.00011876685751233286,-0.0005834191686740868,3.141870337162205,-4.0711408768864536e-07,-0.00026204366309162344,-0.0002782786552846086,-0.000623120097495903,3.141739269278133,,,,
2025-04-30 00:15:21.873806,-0.008250418920898284,0.03182133426513656,0.44896183206106866,0.0,0.0,0.00011876685751233286,-0.0005834191686740868,3.141962722268512,-3.256912701509163e-07,-0.00020963493047329877,-0.00027828345517482886,-0.0006262096020200252,3.1416981362758927,,,,
2025-04-30 00:15:21.885602,-0.005856217260741925,-0.004091690637207157,0.15125190839694652,0.0,0.0,0.00011876685751233286,-0.0005834191686740868,3.14199386185971,-2.6055301612073303e-07,-0.00016770794437863902,-0.0002782872970282763,-0.0006286824551608792,3.1417905680875777,,,,
2025-04-30 00:15:21.899877,-0.048951847143554605,0.05097494754638665,-0.01668702290076335,0.0,0.0,0.00012854402423899915,-0.0005959423944624286,3.1419897041289953,0.0006848774906946465,-0.0008772352659108659,-0.00027829101662822577,-0.0006310766184322014,3.1418282539413687,,,,
2025-04-30 00:15:21.912071,-0.015433023901366916,0.017456124304199072,0.05964885496183203,0.0,0.0,0.00012854402423899915,-0.0005959423944624286,3.1420023980935734,0.0005479019925557171,-0.0007017882127286928,-0.0002699401663729497,-0.0006417729260840106,3.1418247027503567,,,,
2025-04-30 00:15:21.924239,-0.0010678139404296516,0.024638729284667815,-0.0014198473282442947,0.0,0.0,0.00012854402423899915,-0.0005959423944624286,3.1420020965481377,0.0004383215940445737,-0.0005614305701829543,-0.0002632730716902422,-0.0006503125709932129,3.141837370901077,,,,
2025-04-30 00:15:21.936021,0.02766260598144532,-0.04958152218017586,0.2046870229007633,0.0,0.0,0.00012983876324554452,-0.000595681441887217,3.1420441879061127,0.00010988969594296187,2.214809239589352e-05,-0.0002581086924429357,-0.000656927441044907,3.141837078927012,,,,
2025-04-30 00:15:21.947654,-0.008250418920898284,-0.016062698937988396,-0.123557251908397,0.0,0.0,0.00012983876324554452,-0.000595681441887217,3.1420191007099754,8.79117567543695e-05,1.7718473916714817e-05,-0.00025683030207737304,-0.000656669783512128,3.1418786387983344,,,,
2025-04-30 00:15:21.959264,-0.020221427221679633,0.012667720983886577,-0.16172519083969467,0.0,0.0,0.00012983876324554452,-0.000595681441887217,3.141986332497681,7.03294054034956e-05,1.4174779133371854e-05,-0.00025580972768412836,-0.0006564640883760691,3.1418536040449974,,,,
2025-04-30 00:15:21.970950,-0.013038822241211001,0.027032930944824063,0.07491603053435109,0.0,0.0,0.00012983876324554452,-0.000595681441887217,3.1420016124228707,5.6263524322796484e-05,1.1339823306697483e-05,-0.0002549878521582122,-0.0006562984406788058,3.1418206184636777,,,,
2025-04-30 00:15:21.982588,0.0061147910400389804,0.005485116003417834,-0.09302290076335878,0.0,0.0,0.00012983876324554452,-0.000595681441887217,3.1419827175993067,4.501081945823719e-05,9.071858645357988e-06,-0.00025433306141992316,-0.0006561664686531562,3.1418358354174325,,,,
2025-04-30 00:15:21.994393,-0.04176924216308597,0.017456124304199072,0.09781679389312975,0.0,0.0,0.00012983876324554452,-0.000595681441887217,3.1420028727111267,3.6008655566589754e-05,7.25748691628639e-06,-0.00025380167391269583,-0.0006560593683512844,3.141816668085402,,,,
2025-04-30 00:15:22.006288,0.01808579934082033,0.007879317663574081,-0.2838625954198473,0.0,0.0,0.00012983876324554452,-0.000595681441887217,3.1419439435266256,2.8806924453271805e-05,5.8059895330291125e-06,-0.00025337337023762565,-0.0006559730444308517,3.1418369746139394,,,,
2025-04-30 00:15:22.018071,-0.048951847143554605,0.034215535925292806,-0.2838625954198473,0.0,0.0,0.00013683341378861578,-0.000600267988236832,3.1418855659653113,0.0005936160161751037,-0.0003892470903722245,-0.00025303393470306983,-0.0006559046317419524,3.141778597052625,,,,
2025-04-30 00:15:22.029875,-0.0010678139404296516,0.13716620731201157,0.021480916030534314,0.0,0.0,0.00014385161125778602,-0.0006234999788073055,3.141889991384502,0.0005945677294578885,-0.001968168029604707,-0.00024602697112942014,-0.0006604992520167914,3.1417201167263915,,,,
2025-04-30 00:15:22.041665,0.02766260598144532,-0.006485892297363405,-0.19225954198473288,0.0,0.0,0.00014385161125778602,-0.0006234999788073055,3.141850427583482,0.0004756541835663108,-0.0015745344236837656,-0.00023901671199587119,-0.000683704964709062,3.1417245371399574,,,,
2025-04-30 00:15:22.053478,-0.036980838842773256,0.01985032596435532,0.17415267175572513,0.0,0.0,0.00014385161125778602,-0.0006234999788073055,3.141886333413309,0.0003805233468530487,-0.0012596275389470126,-0.0002333978446383406,-0.0007023048222993224,3.1416848981362744,,,,
2025-04-30 00:15:22.065887,-0.013038822241211001,0.022244527624511568,0.021480916030534314,0.0,0.0,0.00014385161125778602,-0.0006234999788073055,3.141890985605177,0.00030441867748243895,-0.0010077020311576102,-0.0002286760318869726,-0.0007179352045730051,3.1417226149469624,,,,
2025-04-30 00:15:22.078228,-0.005856217260741925,0.11322419071044909,0.15888549618320608,0.0,0.0,0.00014841279051957772,-0.0006525845185268967,3.1419252068643364,0.0003696092044522792,-0.002356827690959043,-0.0002249193392994799,-0.0007303707974944333,3.1417272415743898,,,,
2025-04-30 00:15:22.091420,0.02048000100097669,0.007879317663574081,-0.07775572519083979,0.0,0.0,0.00014841279051957772,-0.0006525845185268967,3.1419073038480216,0.0002956873635618234,-0.0018854621527672347,-0.0002200433893204718,-0.0007614624851251214,3.1417638244706767,,,,
2025-04-30 00:15:22.103423,-0.025009830541991906,0.005485116003417834,0.16651908396946563,0.0,0.0,0.00014841279051957772,-0.0006525845185268967,3.1419421887752472,0.00023654989084945872,-0.0015083697222137878,-0.00021649419967696481,-0.0007840940330723056,3.141747535029551,,,,
2025-04-30 00:15:22.115694,-0.0345866371826169,-0.02324530391845714,0.33445801526717556,0.0,0.0,0.00014841279051957772,-0.0006525845185268967,3.142013820399938,0.000189239912679567,-0.0012066957777710303,-0.00021359145673507726,-0.0008026034880933583,3.14178319879595,,,,
2025-04-30 00:15:22.127620,-0.029798233862304624,-0.008880093957519652,-0.10065648854961834,0.0,0.0,0.00014841279051957772,-0.0006525845185268967,3.141992869488255,0.0001513919301436536,-0.0009653566222168243,-0.00021133463881433716,-0.0008169941767044144,3.141852813784915,,,,
2025-04-30 00:15:22.139331,0.022874202661133047,-0.016062698937988396,-0.08538931297709923,0.0,0.0,0.00014841279051957772,-0.0006525845185268967,3.141975415761129,0.00012111354411492288,-0.0007722852977734595,-0.00020956163356708127,-0.0008282998146934377,3.141832239420005,,,,
2025-04-30 00:15:22.150730,0.00850899270019534,0.012667720983886577,-0.2685954198473283,0.0,0.0,0.00014841279051957772,-0.0006525845185268967,3.1419219807719805,9.689083529193831e-05,-0.0006178282382187676,-0.0002081811143127329,-0.0008371027502463331,3.141815251874146,,,,
2025-04-30 00:15:22.162143,-0.017827225561523274,-0.02085110225830089,0.05964885496183203,0.0,0.0,0.00014841279051957772,-0.0006525845185268967,3.1419338630892986,7.751266823355065e-05,-0.0004942625905750141,-0.0002070752435730117,-0.0008441543786976825,3.1417617464713867,,,,
2025-04-30 00:15:22.173620,-0.036980838842773256,-0.15732059688720712,0.12071755725190836,0.0,0.0,0.00015405071768247912,-0.0006378346629373414,3.1419580436809182,0.0004912474905180214,0.001285193890327478,-0.00020618564965927574,-0.0008498269094256673,3.1417736945644004,,,,
2025-04-30 00:15:22.185045,-0.0034620156005860103,-0.018456900598144643,0.06728244274809159,0.0,0.0,0.00015405071768247912,-0.0006378346629373414,3.1419714598017134,0.0003929979924144171,0.0010281551122619825,-0.00020057325520762582,-0.0008351438521101741,3.1417977656483864,,,,
2025-04-30 00:15:22.196501,0.04202781594238303,0.015061922644042824,-0.1388244274809161,0.0,0.0,0.00015405071768247912,-0.0006378346629373414,3.141943701376607,0.0003143983939315337,0.000822524089809586,-0.0001960708778092547,-0.0008233648037974116,3.141811219005853,,,,
2025-04-30 00:15:22.207986,-0.029798233862304624,-0.008880093957519652,0.18178625954198468,0.0,0.0,0.00015405071768247912,-0.0006378346629373414,3.141980140942479,0.00025151871514522695,0.0006580192718476689,-0.00019245998088035545,-0.0008139180325442293,3.1417833912597817,,,,
2025-04-30 00:15:22.219422,-0.0345866371826169,-0.02324530391845714,0.03674809160305342,0.0,0.0,0.00015405071768247912,-0.0006378346629373414,3.1419874752411725,0.00020121497211618157,0.0005264154174781351,-0.00018958379638478467,-0.000806393404301825,3.1418196727282264,,,,
2025-04-30 00:15:22.230884,0.010903194360351698,0.003090914343261586,0.13598473282442747,0.0,0.0,0.00015405071768247912,-0.0006378346629373414,3.1420146800059516,0.00016097197769294525,0.0004211323339825081,-0.00018727737982212502,-0.0008003593938852942,3.141827024459317,,,,
2025-04-30 00:15:22.242088,0.00850899270019534,0.003090914343261586,-0.06248854961832068,0.0,0.0,0.00015405071768247912,-0.0006378346629373414,3.1420024605722725,0.00012877758215435622,0.0003369058671860065,-0.00018547384909385053,-0.0007956410254096568,3.141853615833805,,,,
2025-04-30 00:15:22.253486,-0.0010678139404296516,0.007879317663574081,0.06728244274809159,0.0,0.0,0.00015405071768247912,-0.0006378346629373414,3.142015845615845,0.00010302206572348498,0.00026952469374880525,-0.00018400600159218267,-0.0007918008660653584,3.141841184478383,,,,
2025-04-30 00:15:22.264926,-0.027404032202148265,0.024638729284667815,-0.11592366412213745,0.0,0.0,0.00015405071768247912,-0.0006378346629373414,3.1419927010090727,8.241765257878798e-05,0.0002156197549990442,-0.00018282749886242992,-0.0007887176859224628,3.1418546176776516,,,,
2025-04-30 00:15:22.277055,-0.051346048803710964,0.0006967126831053383,0.0062137404580152045,0.0,0.0,0.00016243276672608776,-0.0006353692233774382,3.141994016383469,0.0006910847191343745,0.0002032710136786486,-0.00018182786916892462,-0.0007861024705789132,3.141830078027053,,,,
2025-04-30 00:15:22.288887,-0.020221427221679633,0.012667720983886577,-0.2762290076335879,0.0,0.0,0.00016243276672608776,-0.0006353692233774382,3.1419369696184907,0.0005528677753074996,0.0001626168109429189,-0.00017365046128179032,-0.0007836972227931372,3.1418313612876148,,,,
2025-04-30 00:15:22.300993,-0.005856217260741925,-0.013668497277832148,-0.00905343511450385,0.0,0.0,0.00016243276672608776,-0.0006353692233774382,3.141935056731376,0.0004422942202459997,0.00013009344875433514,-0.0001669574761860477,-0.0007817285931486389,3.141772997263062,,,,
2025-04-30 00:15:22.313046,-0.022615628881835992,-0.03042790889892588,0.3497251908396946,0.0,0.0,0.00016243276672608776,-0.0006353692233774382,3.142008622221039,0.0003538353761967998,0.00010407475900346811,-0.00016162681462034918,-0.0007801606681894608,3.141771092852385,,,,
2025-04-30 00:15:22.324638,-0.020221427221679633,0.022244527624511568,-0.10065648854961834,0.0,0.0,0.00016243276672608776,-0.0006353692233774382,3.1419882572814757,0.00028306830095743983,8.32598072027745e-05,-0.00015752510195811377,-0.0007789542179995109,3.1418418496657594,,,,
2025-04-30 00:15:22.336432,-0.005856217260741925,-0.006485892297363405,0.02911450381679387,0.0,0.0,0.00016243276672608776,-0.0006353692233774382,3.1419942504982634,0.00022645464076595186,6.66078457622196e-05,-0.00015418650137502212,-0.0007779722244667307,3.141821129540808,,,,
2025-04-30 00:15:22.348039,-0.015433023901366916,0.027032930944824063,0.021480916030534314,0.0,0.0,0.00016243276672608776,-0.0006353692233774382,3.1419986022632616,0.0001811637126127615,5.3286276609775684e-05,-0.00015155794984759579,-0.0007771990799900944,3.141827027775244,,,,
2025-04-30 00:15:22.359493,0.03005680764160168,-0.004091690637207157,-0.06248854961832068,0.0,0.0,0.00016243276672608776,-0.0006353692233774382,3.1419861105816507,0.0001449309700902092,4.262902128782055e-05,-0.00014948296797839483,-0.0007765887587715243,3.1418313218861718,,,,
2025-04-30 00:15:22.371201,-0.04176924216308597,0.007879317663574081,-0.13119083969465656,0.0,0.0,0.00016243276672608776,-0.0006353692233774382,3.141959303675731,0.00011594477607216737,3.410321703025644e-05,-0.00014778618222174015,-0.0007760896776151898,3.1418185532761487,,,,
2025-04-30 00:15:22.383367,0.0061147910400389804,-0.004091690637207157,-0.09302290076335878,0.0,0.0,0.00016243276672608776,-0.0006353692233774382,3.1419395506827485,9.27558208577339e-05,2.7282573624205153e-05,-0.00014637554009304306,-0.0007756747608220689,3.1417906954936607,,,,
2025-04-30 00:15:22.395118,-0.025009830541991906,-0.03282211055908213,-0.11592366412213745,0.0,0.0,0.00016243276672608776,-0.0006353692233774382,3.1419157756049247,7.420465668618713e-05,2.1826058899364123e-05,-0.00014528557233137984,-0.0007753541650316312,3.141771617191385,,,,
2025-04-30 00:15:22.406467,0.00850899270019534,-0.004091690637207157,-0.024320610687022903,0.0,0.0,0.00016243276672608776,-0.0006353692233774382,3.1419109580545768,5.936372534894971e-05,1.74608471194913e-05,-0.00014444339106072502,-0.000775106451493989,3.1417486544419857,,,,
2025-04-30 00:15:22.418027,0.03245100930175804,0.01985032596435532,-0.03958778625954201,0.0,0.0,0.00016243276672608776,-0.0006353692233774382,3.1419029708457935,4.749098027915977e-05,1.396867769559304e-05,-0.0001437571485787139,-0.0007749046047433873,3.1417437475296865,,,,
2025-04-30 00:15:22.429690,-0.010644620581054642,0.005485116003417834,0.09781679389312975,0.0,0.0,0.00016243276672608776,-0.0006353692233774382,3.1419228821441356,3.7992784223327815e-05,1.1174942156474433e-05,-0.00014320326317286445,-0.0007747416886134374,3.141735689156563,,,,
2025-04-30 00:15:22.441160,-0.020221427221679633,-0.018456900598144643,0.2657557251908397,0.0,0.0,0.00016243276672608776,-0.0006353692233774382,3.1419760839558695,3.0394227378662252e-05,8.939953725179547e-06,-0.00014276748292036008,-0.0007746135111393665,3.1417552711642482,,,,
2025-04-30 00:15:22.452443,0.01808579934082033,-0.03282211055908213,-0.18462595419847333,0.0,0.0,0.00016243276672608776,-0.0006353692233774382,3.1419397281892327,2.4315381902929802e-05,7.1519629801436376e-06,-0.00014242456175202965,-0.0007745126466120973,3.1418076026642767,,,,
2025-04-30 00:15:22.463773,-0.005856217260741925,-0.028033707238769634,0.15125190839694652,0.0,0.0,0.00016243276672608776,-0.0006353692233774382,3.141969639215429,1.9452305522343843e-05,5.721570384114911e-06,-0.00014214905377512695,-0.00077443161054779,3.141771091708408,,,,
2025-04-30 00:15:22.475622,-0.04655764548339825,0.01985032596435532,-0.08538931297709923,0.0,0.0,0.00016906492755255532,-0.0006380314547362399,3.141951981178678,0.0005597492490964293,-0.00022469026958201122,-0.00014191857411145964,-0.0007743638188088485,3.1418023697649238,,,,
2025-04-30 00:15:22.487304,-0.051346048803710964,-0.0016974889770509094,-0.19225954198473288,0.0,0.0,0.00018234095273582534,-0.0006403746621503201,3.1419127797904918,0.0011364017455161252,-0.00020057396387155628,-0.00013537929770094553,-0.0007769887652146213,3.1417849590316496,,,,
2025-04-30 00:15:22.498644,0.001326387719726707,0.06055175418701164,-1.3678320610687025,0.0,0.0,0.0001948023526637799,-0.0006502333913734567,3.1416420774018037,0.0010989676106690398,-0.0008694387597880318,-0.00012249342509448998,-0.0007792631110230632,3.141746909684259,,,,
2025-04-30 00:15:22.510084,0.044422017602538943,0.034215535925292806,-0.04722137404580157,0.0,0.0,0.000201425938902303,-0.0006643706440715649,3.141632648293314,0.00057894665641192,-0.0012356924007145016,-0.00010992040707634811,-0.0007892101459368864,3.141473782585361,,,,
2025-04-30 00:15:22.522076,-0.020221427221679633,0.010273519323730329,-0.01668702290076335,0.0,0.0,0.000201425938902303,-0.0006643706440715649,3.1416291557772933,0.00046315732512953604,-0.0009885539205716012,-0.00010297782971963999,-0.0008040282470279703,3.1414638993721384,,,,
2025-04-30 00:15:22.533413,-0.0010678139404296516,0.003090914343261586,-0.1082900763358779,0.0,0.0,0.000201425938902303,-0.0006643706440715649,3.1416077281092054,0.00037052586010362886,-0.0007908431364572811,-9.772688531395082e-05,-0.000815235759890896,3.141460597463042,,,,
2025-04-30 00:15:22.544685,-0.027404032202148265,-0.013668497277832148,-0.01668702290076335,0.0,0.0,0.000201425938902303,-0.0006643706440715649,3.1416044452955205,0.0002964206880829031,-0.0006326745091658249,-9.355042335789821e-05,-0.0008241499184645928,3.1414392937142157,,,,
2025-04-30 00:15:22.555887,0.003720589379883066,-0.025639505578613386,-0.06248854961832068,0.0,0.0,0.000201425938902303,-0.0006643706440715649,3.1415922279420547,0.00023713655046632247,-0.0005061396073326599,-9.022989007524268e-05,-0.0008312371996471576,3.1414360311763856,,,,
2025-04-30 00:15:22.567594,-0.0728938637451173,-0.1214075719848634,0.08254961832061064,0.0,0.0,0.00021393564822873534,-0.0006538722476319564,3.1416090940169568,0.0010686257406658348,0.0008968119384976704,-8.745388608795506e-05,-0.0008371622481701148,3.141423263866496,,,,
2025-04-30 00:15:22.580162,-0.022615628881835992,0.015061922644042824,-0.16935877862595422,0.0,0.0,0.00021393564822873534,-0.0006538722476319564,3.1415719432635725,0.0008549005925326679,0.0007174495507981364,-7.402289144738057e-05,-0.0008258906908033042,3.141441372053961,,,,
2025-04-30 00:15:22.593575,-0.017827225561523274,-0.006485892297363405,0.18178625954198468,0.0,0.0,0.00021393564822873534,-0.0006538722476319564,3.141614499460052,0.0006839204740261344,0.0005739596406385091,-6.255615047326357e-05,-0.0008162675741124775,3.141401725133028,,,,
2025-04-30 00:15:22.606095,0.00850899270019534,0.0006967126831053383,-0.03958778625954201,0.0,0.0,0.00021393564822873534,-0.0006538722476319564,3.1416058487096903,0.0005471363792209075,0.0004591677125108073,-5.399325189151832e-05,-0.0008090814196113991,3.1414414491918627,,,,
2025-04-30 00:15:22.618226,-0.022615628881835992,-0.02324530391845714,-0.06248854961832068,0.0,0.0,0.00021393564822873534,-0.0006538722476319564,3.141592618292287,0.00043770910337672606,0.00036733417000864586,-4.7355953757873504e-05,-0.0008035112672380226,3.1414330674492956,,,,
2025-04-30 00:15:22.630321,-0.017827225561523274,0.012667720983886577,-0.4060000000000001,0.0,0.0,0.00021393564822873534,-0.0006538722476319564,3.1415069128582047,0.0003501672827013809,0.0002938673360069167,-4.206187330631317e-05,-0.0007990683698122427,3.1414198762959207,,,,
2025-04-30 00:15:22.642318,-0.029798233862304624,0.003090914343261586,-0.2838625954198473,0.0,0.0,0.00021393564822873534,-0.0006538722476319564,3.1414474769363436,0.0002801338261611047,0.00023509386880553337,-3.7861005336092586e-05,-0.0007955429180058891,3.141334866912279,,,,
2025-04-30 00:15:22.654176,-0.015433023901366916,0.012667720983886577,0.05964885496183203,0.0,0.0,0.00021393564822873534,-0.0006538722476319564,3.141459821669211,0.00022410706092888377,0.0001880750950444267,-3.453924901034163e-05,-0.0007927552341458152,3.141276119633497,,,,
2025-04-30 00:15:22.666050,0.03723941262207031,-0.037610513879394625,-0.13119083969465656,0.0,0.0,0.0002113985777005884,-0.000646485699867758,3.1414326326263575,-0.00021365816814554586,0.0006220545494140889,-3.187810375964853e-05,-0.0007905219482159713,3.141288481741076,,,,
2025-04-30 00:15:22.677862,-0.013038822241211001,-0.15971479854736337,-0.13119083969465656,0.0,0.0,0.00021071224025004582,-0.0006174471377113653,3.1414055866118993,-5.810524017843954e-05,0.0024584009326606435,-3.4401827987657466e-05,-0.0007831742575045631,3.141261435726618,,,,
2025-04-30 00:15:22.689660,0.0468162192626953,-0.02324530391845714,-0.19225954198473288,0.0,0.0,0.00020365510106156782,-0.0005858509730237209,3.1413659980100013,-0.00059816884501637,0.0026781165615965964,-3.508734808944072e-05,-0.0007541702769271469,3.1412344219208443,,,,
2025-04-30 00:15:22.701434,-0.025009830541991906,-0.03042790889892588,0.06728244274809159,0.0,0.0,0.00020365510106156782,-0.0005858509730237209,3.1413798242941335,-0.000478535076013096,0.0021424932492772773,-4.213022582130956e-05,-0.0007226379635140309,3.1411949133217796,,,,
2025-04-30 00:15:22.713182,0.022874202661133047,0.005485116003417834,0.06728244274809159,0.0,0.0,0.00020365510106156782,-0.0005858509730237209,3.1413936203409687,-0.0003828280608104768,0.001713994599421822,-4.775220610829432e-05,-0.0006974672802847305,3.1412087093686147,,,,
2025-04-30 00:15:22.724901,0.00850899270019534,-0.0016974889770509094,-0.10065648854961834,0.0,0.0,0.00020365510106156782,-0.0005858509730237209,3.141373033829389,-0.0003062624486483815,0.0013711956795374577,-5.22382898992725e-05,-0.00067738222336907,3.141222470138603,,,,
2025-04-30 00:15:22.736661,0.1665263022705079,0.10125318240966785,0.14361832061068697,0.0,0.0,0.00017755133571685378,-0.0005837674043168039,3.141402512779362,-0.002219618614559886,0.0001771670801325213,-5.584008123449253e-05,-0.000661256313257513,3.1412018094904504,,,,
2025-04-30 00:15:22.748464,-0.0034620156005860103,0.005485116003417834,0.0062137404580152045,0.0,0.0,0.00017755133571685378,-0.0005837674043168039,3.141403792756142,-0.001775694891647909,0.00014173366410601704,-8.203698548286319e-05,-0.0006591653103240584,3.1412313936220726,,,,
2025-04-30 00:15:22.760253,0.013297396020508057,0.003090914343261586,0.07491603053435109,0.0,0.0,0.00017755133571685378,-0.0005837674043168039,3.141419208288135,-0.0014205559133183272,0.00011338693128481363,-0.00010297207087295153,-0.0006574942989500516,3.1412326722284556,,,,
2025-04-30 00:15:22.771787,-0.029798233862304624,-0.03521631221923838,0.10545038167938925,0.0,0.0,0.00017755133571685378,-0.0005837674043168039,3.141440435628062,-0.001136444730654662,9.070954502785091e-05,-0.00011935638943037784,-0.000656186523884669,3.1412477529519274,,,,
2025-04-30 00:15:22.783137,0.001326387719726707,-0.0112742956176759,0.021480916030534314,0.0,0.0,0.00017755133571685378,-0.0005837674043168039,3.1414446907666256,-0.0009091557845237295,7.256763602228073e-05,-0.00013225467123305227,-0.0006551569997534888,3.141268641539034,,,,
2025-04-30 00:15:22.794600,-0.008250418920898284,-0.14295538692626963,-0.16172519083969467,0.0,0.0,0.00016840340868336625,-0.0005645415793629746,3.1414123330654933,-0.0007979948202708879,0.0016771131505999386,-0.00014267690777848864,-0.0006543251103446088,3.14127293940418,,,,
2025-04-30 00:15:22.805891,0.022874202661133047,-0.013668497277832148,-0.05485496183206112,0.0,0.0,0.00016840340868336625,-0.0005645415793629746,3.1414015234961448,-0.0006383958562167103,0.001341690520479951,-0.00015168670838157993,-0.0006353895800731237,3.1412410702786273,,,,
2025-04-30 00:15:22.817272,0.00850899270019534,-0.0016974889770509094,0.0062137404580152045,0.0,0.0,0.00016840340868336625,-0.0005645415793629746,3.1414027577326884,-0.0005107166849733683,0.0010733524163839608,-0.0001589520825177056,-0.0006201202397237857,3.14123017442629,,,,
2025-04-30 00:15:22.828573,-0.0345866371826169,0.0390039392456053,0.15125190839694652,0.0,0.0,0.00016707539397185965,-0.0005575364870837345,3.1414325919735724,-0.00011750764559577562,0.0006198364323696396,-0.00016472395606361635,-0.0006079897286207677,3.141231400078459,,,,
2025-04-30 00:15:22.839933,0.013297396020508057,0.017456124304199072,0.3649923664122137,0.0,0.0,0.00016707539397185965,-0.0005575364870837345,3.1415049553088883,-9.40061164766205e-05,0.0004958691458957117,-0.0001660587786645558,-0.0006009487256748078,3.1412613872605806,,,,
2025-04-30 00:15:22.851251,-0.020221427221679633,-0.0016974889770509094,0.09781679389312975,0.0,0.0,0.00016707539397185965,-0.0005575364870837345,3.1415242776287626,-7.52048931812964e-05,0.00039669531671656933,-0.00016712273691728657,-0.00059533649436663,3.141333486324297,,,,
2025-04-30 00:15:22.862692,-0.020221427221679633,0.017456124304199072,-0.2380610687022901,0.0,0.0,0.00016707539397185965,-0.0005575364870837345,3.1414767408836433,-6.0163914545037126e-05,0.0003173562533732555,-0.00016798315552525844,-0.0005907979062806739,3.141353018673812,,,,
2025-04-30 00:15:22.874092,-0.013038822241211001,0.010273519323730329,-0.024320610687022903,0.0,0.0,0.00016707539397185965,-0.0005575364870837345,3.1414719015747226,-4.8131131636029704e-05,0.00025388500269860444,-0.00016866906624267772,-0.0005871798229648717,3.1413056493429905,,,,
2025-04-30 00:15:22.885394,-0.013038822241211001,-0.018456900598144643,-0.5663053435114505,0.0,0.0,0.00016707539397185965,-0.0005575364870837345,3.141360198587228,-3.8504905308823766e-05,0.00020310800215888355,-0.00016921302106851082,-0.0005843105371672949,3.1413008521343775,,,,
2025-04-30 00:15:22.897205,-0.020221427221679633,0.015061922644042824,0.2352213740458015,0.0,0.0,0.00016707539397185965,-0.0005575364870837345,3.1414086864134343,-3.0803924247059017e-05,0.00016248640172710686,-0.0001696677940175361,-0.0005819116733245818,3.14118411565502,,,,
2025-04-30 00:15:22.909370,-0.005856217260741925,-0.0016974889770509094,0.10545038167938925,0.0,0.0,0.00016707539397185965,-0.0005575364870837345,3.141431076570684,-2.4643139397647215e-05,0.0001299891213816855,-0.00017004254058779672,-0.000579934937462201,3.141234059936582,,,,
2025-04-30 00:15:22.921178,-0.008250418920898284,0.13956040897216782,0.3649923664122137,0.0,0.0,0.00016791582730132983,-0.0005751002132658935,3.1415062937355107,7.117827468560808e-05,-0.0014875132659061107,-0.00017033351301982098,-0.0005784000984883673,3.1412557910177488,,,,
2025-04-30 00:15:22.932898,-0.025009830541991906,-0.008880093957519652,-0.01668702290076335,0.0,0.0,0.00016791582730132983,-0.0005751002132658935,3.14150288037865,5.694261974848647e-05,-0.0011900106127248886,-0.00016949930776223346,-0.0005958336678272008,3.141330450782134,,,,
2025-04-30 00:15:22.944350,-0.0010678139404296516,-0.03042790889892588,0.021480916030534314,0.0,0.0,0.00016791582730132983,-0.0005751002132658935,3.1415071742214193,4.555409579878918e-05,-0.0009520084901799109,-0.00016884714887607308,-0.0006094627561821378,3.1413271151956756,,,,
2025-04-30 00:15:22.955713,-0.036980838842773256,0.003090914343261586,-0.14645801526717556,0.0,0.0,0.00016791582730132983,-0.0005751002132658935,3.141478129553163,3.644327663903135e-05,-0.0007616067921439288,-0.00016832953806446318,-0.0006202800027682208,3.1413313751610916,,,,
2025-04-30 00:15:22.967111,-0.017827225561523274,0.0006967126831053383,-0.17699236641221378,0.0,0.0,0.00016791582730132983,-0.0005751002132658935,3.1414429197586564,2.915462131122508e-05,-0.000609285433715143,-0.00016791415479079438,-0.0006289608556372606,3.141302239686348,,,,
2025-04-30 00:15:22.979208,-0.015433023901366916,0.010273519323730329,0.2352213740458015,0.0,0.0,0.00016791582730132983,-0.0005751002132658935,3.1414925831244336,2.3323697048980067e-05,-0.00048742834697211443,-0.00016756146782992786,-0.0006363314548168319,3.1412648704775825,,,,
2025-04-30 00:15:22.990857,0.0061147910400389804,0.007879317663574081,-0.17699236641221378,0.0,0.0,0.00016791582730132983,-0.0005751002132658935,3.1414565977967706,1.8658957639184053e-05,-0.00038994267757769155,-0.00016728976700952638,-0.000642009571861533,3.1413126946769534,,,,
2025-04-30 00:15:23.002209,0.03005680764160168,0.012667720983886577,-0.06248854961832068,0.0,0.0,0.00016791582730132983,-0.0005751002132658935,3.141444217146551,1.4927166111347243e-05,-0.00031195414206215325,-0.00016707795380998852,-0.0006464361324321322,3.1412776277631993,,,,
2025-04-30 00:15:23.013639,0.010903194360351698,0.0006967126831053383,0.27338931297709923,0.0,0.0,0.00016791582730132983,-0.0005751002132658935,3.1414987560102534,1.1941732889077795e-05,-0.00024956331364972263,-0.00016690733592665338,-0.0006500017761061725,3.1412651618242293,,,,
2025-04-30 00:15:23.025017,-0.005856217260741925,0.02942713260498031,-0.14645801526717556,0.0,0.0,0.00016791582730132983,-0.0005751002132658935,3.141469671728429,9.553386311262237e-06,-0.00019965065091977812,-0.00016677146229454053,-0.000652841319929726,3.1413194526857566,,,,
2025-04-30 00:15:23.036454,-0.013038822241211001,-0.047187320520019616,0.1130839694656488,0.0,0.0,0.00016791582730132983,-0.0005751002132658935,3.141492245144134,7.64270904900979e-06,-0.0001597205207358225,-0.00016666219851806235,-0.000655124759893847,3.141290217262933,,,,
2025-04-30 00:15:23.047885,0.0061147910400389804,-0.0112742956176759,0.18178625954198468,0.0,0.0,0.00016791582730132983,-0.0005751002132658935,3.141528510727191,6.114167239207833e-06,-0.000127776416588658,-0.00016657484033963092,-0.0006569504075352952,3.1413127770322875,,,,
2025-04-30 00:15:23.060731,0.01808579934082033,-0.14534958858642588,0.08254961832061064,0.0,0.0,0.00016506905165404457,-0.000553202855067047,3.1415470187539873,-0.00022160806392930842,0.0017046061076996034,-0.0001664962977898185,-0.0006585918224937238,3.1413535343977523,,,,
2025-04-30 00:15:23.075581,0.013297396020508057,-0.0016974889770509094,0.01384732824427476,0.0,0.0,0.00016506905165404457,-0.000553202855067047,3.141550607757567,-0.00017728645114344673,0.0013636848861596827,-0.00016978720847962565,-0.0006332781838008256,3.1413749299240528,,,,
2025-04-30 00:15:23.088762,-0.010644620581054642,-0.025639505578613386,-0.18462595419847333,0.0,0.0,0.00016506905165404457,-0.000553202855067047,3.141508134308463,-0.0001418291609147574,0.0010909479089277463,-0.00017212401607665854,-0.0006153034926646233,3.1413781155205416,,,,
2025-04-30 00:15:23.102982,-0.010644620581054642,-0.006485892297363405,0.1283511450381679,0.0,0.0,0.00016506905165404457,-0.000553202855067047,3.141539989241057,-0.00011346332873180593,0.0008727583271421971,-0.00017414082664748002,-0.0005997902141487652,3.141332293978986,,,,
2025-04-30 00:15:23.114979,-0.005856217260741925,-0.006485892297363405,-0.0014198473282442947,0.0,0.0,0.00016506905165404457,-0.000553202855067047,3.1415396919436556,-9.077066298544476e-05,0.0006982066617137577,-0.00017550204444153017,-0.0005893197460416685,3.141359169024728,,,,
2025-04-30 00:15:23.127102,-0.005856217260741925,-0.15013799190673838,0.16651908396946563,0.0,0.0,0.00016483449394871764,-0.0005232832964175303,3.1415749254083405,-1.9347984614607836e-05,0.0024679775905031235,-0.00017660246698397914,-0.0005808553113381226,3.1413588686018605,,,,
2025-04-30 00:15:23.138859,0.003720589379883066,-0.025639505578613386,-0.01668702290076335,0.0,0.0,0.00016483449394871764,-0.0005232832964175303,3.141571501358049,-1.547838769168627e-05,0.0019743820724024987,-0.0001768299346328026,-0.0005518401414874634,3.1413930370524796,,,,
2025-04-30 00:15:23.150114,-0.1183836952880859,0.0006967126831053383,-0.21516030534351144,0.0,0.0,0.00017936016292588962,-0.000501593432938021,3.1415292358574827,0.0012905940113463756,0.0019271269335386651,-0.0001770041442866001,-0.0005296184201978514,3.141389759099445,,,,
2025-04-30 00:15:23.161411,-0.027404032202148265,0.005485116003417834,-0.2533282442748092,0.0,0.0,0.00017936016292588962,-0.000501593432938021,3.1414792872217925,0.0010324752090771006,0.0015417015468309322,-0.00016242431982952087,-0.0005078476912540594,3.141347336022076,,,,
2025-04-30 00:15:23.172943,-0.03219243552246098,0.012667720983886577,0.01384732824427476,0.0,0.0,0.00017936016292588962,-0.000501593432938021,3.1414820743090055,0.0008259801672616806,0.0012333612374647459,-0.000150517745249364,-0.0004900686837909224,3.141296347997686,,,,
2025-04-30 00:15:23.184166,-0.0034620156005860103,0.024638729284667815,-0.09302290076335878,0.0,0.0,0.00017936016292588962,-0.000501593432938021,3.141463852627805,0.0006607841338093444,0.0009866889899717967,-0.00014124750866334728,-0.0004762262806431259,3.1412990604652467,,,,
2025-04-30 00:15:23.195549,-0.022615628881835992,0.02942713260498031,-0.09302290076335878,0.0,0.0,0.00017936016292588962,-0.000501593432938021,3.1414453712119723,0.0005286273070474756,0.0007893511919774374,-0.0001337256078977549,-0.00046499450873860884,3.141280579049414,,,,
2025-04-30 00:15:23.206721,0.02048000100097669,0.0006967126831053383,0.25048854961832057,0.0,0.0,0.00017936016292588962,-0.000501593432938021,3.141494213765073,0.0004229018456379805,0.00063148095358195,-0.0001278197539155596,-0.0004561758328617838,3.14126244059168,,,,
2025-04-30 00:15:23.217954,-0.015433023901366916,-0.15732059688720712,-0.03958778625954201,0.0,0.0,0.00018592614171255724,-0.0004751879625130712,3.14148645240423,0.0005845210885882433,0.0023506859858908728,-0.00012306925884957644,-0.000449082349621653,3.141311549981324,,,,
2025-04-30 00:15:23.230504,-0.11120109030761727,0.12519519901123033,0.2046870229007633,0.0,0.0,0.00021027615772576113,-0.00046560164924954226,3.141531284666126,0.001940333033745822,0.0007638861628253002,-0.00011573386970779493,-0.00041958265013555183,3.1413028791336255,,,,
2025-04-30 00:15:23.242933,0.02048000100097669,-0.0112742956176759,0.09781679389312975,0.0,0.0,0.00021027615772576113,-0.00046560164924954226,3.14155250376531,0.0015522664269966577,0.0006111089302602402,-9.161747247426025e-05,-0.00041008830982205865,3.1413472812660994,,,,
2025-04-30 00:15:23.254844,-0.048951847143554605,0.015061922644042824,0.3726259541984732,0.0,0.0,0.0002352025399857613,-0.000460562084802756,3.141629970097499,0.0020926506168664483,0.00042308777656952575,-7.31278182449166e-05,-0.0004028091516695257,3.141367616694064,,,,
2025-04-30 00:15:23.266518,0.003720589379883066,0.010273519323730329,0.03674809160305342,0.0,0.0,0.0002352025399857613,-0.000460562084802756,3.1416374573119543,0.0016741204934931587,0.0003384702212556206,-4.869886599118585e-05,-0.00039787015659330477,3.141443537110857,,,,
2025-04-30 00:15:23.278431,-0.015433023901366916,-0.03282211055908213,-0.14645801526717556,0.0,0.0,0.0002352025399857613,-0.000460562084802756,3.1416070054478653,0.0013392963947945272,0.0002707761770044965,-2.875496619318059e-05,-0.0003938379401527512,3.141451177852738,,,,
2025-04-30 00:15:23.289858,-0.013038822241211001,0.017456124304199072,-0.21516030534351144,0.0,0.0,0.0002352025399857613,-0.000460562084802756,3.1415640953149264,0.0010714371158356219,0.0002166209416035972,-1.3451245167399603e-05,-0.0003907438654659153,3.141421969245253,,,,
2025-04-30 00:15:23.301145,0.03484521096191395,-0.02324530391845714,0.1130839694656488,0.0,0.0,0.0002352025399857613,-0.000460562084802756,3.1415863722754414,0.0008571496926684975,0.00017329675328287778,-1.3579623484207744e-06,-0.0003882988705403076,3.1413795837714393,,,,
2025-04-30 00:15:23.312605,-0.020221427221679633,-0.004091690637207157,-0.08538931297709923,0.0,0.0,0.0002352025399857613,-0.000460562084802756,3.141569293056741,0.000685719754134798,0.00013863740262630222,8.46502956573153e-06,-0.00038631287833753734,3.141402202361268,,,,
2025-04-30 00:15:23.323842,0.01808579934082033,-0.006485892297363405,0.05201526717557248,0.0,0.0,0.0002352025399857613,-0.000460562084802756,3.141579494776279,0.0005485758033078385,0.00011090992210104178,1.6170724997353902e-05,-0.0003847549567615177,3.1413854550124634,,,,
2025-04-30 00:15:23.335118,-0.04176924216308597,0.02942713260498031,0.18941984732824424,0.0,0.0,0.00024646863290693423,-0.0004630028708640527,3.141616771678052,0.0009991630601494394,-0.0002164675266961521,2.2356207848820465e-05,-0.00038350438862293625,3.1413956913632606,,,,
2025-04-30 00:15:23.346487,0.001326387719726707,0.04139814090576155,-0.09302290076335878,0.0,0.0,0.00024646863290693423,-0.0004630028708640527,3.1415983131002867,0.0007993304481195516,-0.0001731740213569217,3.371592085157042e-05,-0.00038596545736712664,3.14143327803228,,,,
2025-04-30 00:15:23.357791,0.01569159768066397,0.015061922644042824,-0.2380610687022901,0.0,0.0,0.00024646863290693423,-0.0004630028708640527,3.1415513449694106,0.0006394643584956413,-0.00013853921708553737,4.275166421606959e-05,-0.00038792304076465715,3.1414149251289625,,,,
2025-04-30 00:15:23.369023,-0.010644620581054642,0.0006967126831053383,-0.07775572519083979,0.0,0.0,0.00024646863290693423,-0.0004630028708640527,3.14153610255642,0.0005115714867965131,-0.0001108313736684299,4.993391101181238e-05,-0.0003894790662644022,3.1413682581457,,,,
2025-04-30 00:15:23.380404,0.01569159768066397,-0.0016974889770509094,-0.03195419847328246,0.0,0.0,0.00024646863290693423,-0.0004630028708640527,3.1415297550885106,0.0004092571894372105,-8.866509893474392e-05,5.575630444471689e-05,-0.0003907404810986178,3.1413528125393633,,,,
2025-04-30 00:15:23.394402,0.00850899270019534,0.022244527624511568,0.07491603053435109,0.0,0.0,0.00024646863290693423,-0.0004630028708640527,3.141548057954322,0.0003274057515497684,-7.093207914779513e-05,6.14850995216206e-05,-0.0003919816179567608,3.141345005753518,,,,
2025-04-30 00:15:23.406760,-0.06810546042480459,0.01985032596435532,0.03674809160305342,0.0,0.0,0.00026062570049016127,-0.0004668329159968931,3.141555983731183,0.0011456280062626507,-0.0003099375590062529,6.553100737869917e-05,-0.0003928581592361505,3.141361163537921,,,,
2025-04-30 00:15:23.418726,-0.11359529196777318,0.007879317663574081,-0.23042748091603055,0.0,0.0,0.0002900007413724642,-0.00047157455515934677,3.141507858931951,0.0024548286804703437,-0.00039625176540418374,7.923985386057612e-05,-0.0003965669428833358,3.1413688383800165,,,,
2025-04-30 00:15:23.430455,0.01808579934082033,0.017456124304199072,-0.04722137404580157,0.0,0.0,0.0002900007413724642,-0.00047157455515934677,3.141498191669011,0.001963862944376275,-0.00031700141232334704,0.00010803430019107099,-0.0004012148640531783,3.141321664762312,,,,
2025-04-30 00:15:23.442071,0.022874202661133047,-0.008880093957519652,0.14361832061068697,0.0,0.0,0.0002900007413724642,-0.00047157455515934677,3.141527308459443,0.00157109035550102,-0.00025360112985867763,0.0001308465156415859,-0.0004048971497935075,3.1413120912284747,,,,
2025-04-30 00:15:23.453568,-0.005856217260741925,0.0437923425659178,0.02911450381679387,0.0,0.0,0.0002900007413724642,-0.00047157455515934677,3.141533150237532,0.001256872284400816,-0.0002028809038869421,0.00014890825028263807,-0.00040781262584880905,3.1413409080121584,,,,
2025-04-30 00:15:23.465126,0.0061147910400389804,-0.0016974889770509094,-0.32966412213740465,0.0,0.0,0.0002900007413724642,-0.00047157455515934677,3.141466649741704,0.0010054978275206529,-0.0001623047231095537,0.00016343495071515282,-0.0004101574863018728,3.141346781047195,,,,
2025-04-30 00:15:23.478795,0.025268404321288962,0.13477200565185532,-0.1540916030534351,0.0,0.0,0.0002988394516897916,-0.0004984281148464146,3.141429886292307,0.0006465900067813313,-0.001964454396262442,0.0001771798337615168,-0.00041237614791998306,3.1412681291931546,,,,
2025-04-30 00:15:23.490284,0.03723941262207031,0.005485116003417834,-0.32966412213740465,0.0,0.0,0.0002988394516897916,-0.0004984281148464146,3.141363780873377,0.0005172720054250651,-0.0015715635170099537,0.00018460860521842253,-0.00043494606486007393,3.141237230198422,,,,
2025-04-30 00:15:23.501745,-0.0034620156005860103,-0.008880093957519652,0.1970534351145038,0.0,0.0,0.0002988394516897916,-0.0004984281148464146,3.1414031979697974,0.0004138176043400521,-0.001257250813607963,0.0001905370697676751,-0.00045295778499914477,3.141171286651277,,,,
2025-04-30 00:15:23.513226,0.025268404321288962,0.010273519323730329,-0.07012213740458023,0.0,0.0,0.0002988394516897916,-0.0004984281148464146,3.1413891470428177,0.0003310540834720417,-0.0010058006508863705,0.0001952880303369116,-0.0004673920405224635,3.141210771805757,,,,
2025-04-30 00:15:23.524593,-0.008250418920898284,0.13716620731201157,0.18178625954198468,0.0,0.0,0.00030356875741924656,-0.000526998614357944,3.141425209898073,0.00041607890964206427,-0.002513599873792962,0.00019905091265909095,-0.0004788243401913375,3.141196860938688,,,,
2025-04-30 00:15:23.536104,0.02048000100097669,-0.006485892297363405,-0.09302290076335878,0.0,0.0,0.00030356875741924656,-0.000526998614357944,3.141406519842945,0.0003328631277136514,-0.0020108798990343697,0.00020384073096342878,-0.000507760405938174,3.1412333852266263,,,,
2025-04-30 00:15:23.547677,-0.010644620581054642,-0.02324530391845714,0.02911450381679387,0.0,0.0,0.00030356875741924656,-0.000526998614357944,3.141412400510492,0.00026629050217092114,-0.0016087039192274957,0.00020769290195990893,-0.0005310319929044808,3.1412145960775106,,,,
2025-04-30 00:15:23.559151,-0.036980838842773256,-0.004091690637207157,0.10545038167938925,0.0,0.0,0.00030356875741924656,-0.000526998614357944,3.1414335172730734,0.0002130324017367369,-0.0012869631353819968,0.00021074822749818023,-0.0005494897077980374,3.141220426346259,,,,
2025-04-30 00:15:23.570764,0.022874202661133047,-0.008880093957519652,-0.11592366412213745,0.0,0.0,0.00030356875741924656,-0.000526998614357944,3.1414100219758234,0.00017042592138938954,-0.0010295705083055975,0.00021322209901330913,-0.0005644347650554635,3.141241798928651,,,,
2025-04-30 00:15:23.583449,0.02766260598144532,-0.016062698937988396,-0.09302290076335878,0.0,0.0,0.00030356875741924656,-0.000526998614357944,3.1413894266839435,0.00013634073711151165,-0.000823656406644478,0.00021538400276979505,-0.0005774951747122045,3.1412161334024336,,,,
2025-04-30 00:15:23.596207,-0.06571125876464823,-0.0112742956176759,0.3497251908396946,0.0,0.0,0.00031575618980820213,-0.0005354998550112525,3.1414673026913085,0.00095524071569013,-0.0006663201030989621,0.00021712350516758222,-0.0005880037895595703,3.1411954192751854,,,,
2025-04-30 00:15:23.608622,-0.04176924216308597,-0.0016974889770509094,-0.222793893129771,0.0,0.0,0.00031575618980820213,-0.0005354998550112525,3.141419027388788,0.000764192572552104,-0.0005330560824791697,0.00022898275393624956,-0.0005962761084970077,3.1412711982346067,,,,
2025-04-30 00:15:23.621103,-0.025009830541991906,0.02942713260498031,-0.07775572519083979,0.0,0.0,0.00031575618980820213,-0.0005354998550112525,3.1414020895408687,0.0006113540580416833,-0.0004264448659833358,0.0002385206217161077,-0.0006029291677081907,3.141222666128837,,,,
2025-04-30 00:15:23.633361,-0.025009830541991906,0.02942713260498031,0.021480916030534314,0.0,0.0,0.00031575618980820213,-0.0005354998550112525,3.1414066852406863,0.0004890832464333467,-0.0003411558927866687,0.00024601463205492795,-0.0006081565514027601,3.1412060308060434,,,,
2025-04-30 00:15:23.645753,0.022874202661133047,0.012667720983886577,0.30392366412213734,0.0,0.0,0.00031575618980820213,-0.0005354998550112525,3.1414724146554494,0.00039126659714667735,-0.000272924714229335,0.00025207502337775057,-0.0006123839262463102,3.141210676472722,,,,
2025-04-30 00:15:23.657645,0.00850899270019534,0.022244527624511568,-0.10065648854961834,0.0,0.0,0.00031575618980820213,-0.0005354998550112525,3.1414515215451617,0.0003130132777173419,-0.000218339771383468,0.0002567282770281466,-0.00061562976407666,3.141273761433513,,,,
2025-04-30 00:15:23.669138,-0.0010678139404296516,0.13477200565185532,0.17415267175572513,0.0,0.0,0.00031941782792027916,-0.0005554024992374241,3.1414864526774062,0.0003186179697945568,-0.001731831465258873,0.00026032550460452906,-0.0006181389798274082,3.14125357199239,,,,
2025-04-30 00:15:23.680696,0.02048000100097669,0.010273519323730329,0.01384732824427476,0.0,0.0,0.00031941782792027916,-0.0005554024992374241,3.1414892461029678,0.00025489437583564546,-0.0013854651722070984,0.0002640081848674929,-0.0006381559975744015,3.141288703861609,,,,
2025-04-30 00:15:23.692534,-0.022615628881835992,-0.02085110225830089,0.15125190839694652,0.0,0.0,0.00031941782792027916,-0.0005554024992374241,3.1415204977251956,0.00020391550066851637,-0.0011083721377656787,0.00026702573565488054,-0.0006545577385213551,3.14129156499226,,,,
2025-04-30 00:15:23.704187,-0.03219243552246098,0.0006967126831053383,-0.05485496183206112,0.0,0.0,0.00031941782792027916,-0.0005554024992374241,3.141509341426059,0.0001631324005348131,-0.000886697710212543,0.00026940190345177217,-0.0006674732754574708,3.141322326321385,,,,
2025-04-30 00:15:23.715688,-0.029798233862304624,0.12758940067138658,0.2046870229007633,0.0,0.0,0.0003251187230029266,-0.0005819368841866205,3.1415504294326295,0.0004956734462837592,-0.0023070745632245977,0.00027127814012937096,-0.0006776714626991808,3.141311314968539,,,,
2025-04-30 00:15:23.727257,0.013297396020508057,-0.018456900598144643,-0.21516030534351144,0.0,0.0,0.0003251187230029266,-0.0005819368841866205,3.141506984792015,0.00039653875702700737,-0.0018456596505796782,0.0002770125976955066,-0.0007043620616891229,3.141352644869676,,,,
2025-04-30 00:15:23.738952,-0.025009830541991906,0.015061922644042824,-0.123557251908397,0.0,0.0,0.0003251187230029266,-0.0005819368841866205,3.141481765460586,0.0003172310056216059,-0.0014765277204637425,0.00028164998749150895,-0.0007259464417246625,3.1413087283939776,,,,
2025-04-30 00:15:23.750969,-0.017827225561523274,-0.016062698937988396,-0.08538931297709923,0.0,0.0,0.0003251187230029266,-0.0005819368841866205,3.141463855856505,0.0002537848044972847,-0.0011812221763709942,0.00028546223181317743,-0.0007436902445635254,3.1412828134242248,,,,
2025-04-30 00:15:23.762766,-0.0010678139404296516,-0.0112742956176759,0.2199541984732824,0.0,0.0,0.0003251187230029266,-0.0005819368841866205,3.1415091425520902,0.0002030278435978278,-0.0009449777410967954,0.00028845605828396287,-0.0007576247834201892,3.1412652324921497,,,,
2025-04-30 00:15:23.774727,-0.010644620581054642,0.027032930944824063,0.021480916030534314,0.0,0.0,0.0003251187230029266,-0.0005819368841866205,3.1415136269661437,0.00016242227487826225,-0.0007559821928774363,0.00029088451933148335,-0.0007689278716782376,3.1413111507247495,,,,
2025-04-30 00:15:23.786467,-0.013038822241211001,0.007879317663574081,0.2657557251908397,0.0,0.0,0.0003251187230029266,-0.0005819368841866205,3.1415680795053724,0.0001299378199026098,-0.0006047857543019491,0.0002927913131201562,-0.0007778028991386422,3.1413155520990643,,,,
2025-04-30 00:15:23.798451,-0.058528653784179596,0.027032930944824063,0.02911450381679387,0.0,0.0,0.0003348827599927316,-0.0005928449824471975,3.1415741692794743,0.0008147324116199238,-0.0009101953639981549,0.0002943485332108374,-0.0007850508622633327,3.141371139250504,,,,
2025-04-30 00:15:23.810300,-0.03219243552246098,0.027032930944824063,-0.00905343511450385,0.0,0.0,0.0003348827599927316,-0.0005928449824471975,3.141572297003915,0.000651785929295939,-0.0007281562911985239,0.0003040022377092922,-0.0007958357002722087,3.1413771602108613,,,,
2025-04-30 00:15:23.822259,-0.0034620156005860103,-0.0112742956176759,0.14361832061068697,0.0,0.0,0.0003348827599927316,-0.0005928449824471975,3.1416022731762285,0.0005214287434367513,-0.0005825250329588191,0.0003117968397284961,-0.000804543603039921,3.1413752705680227,,,,
2025-04-30 00:15:23.833931,-0.015433023901366916,0.010273519323730329,0.18178625954198468,0.0,0.0,0.0003348827599927316,-0.0005928449824471975,3.1416393042836703,0.000417142994749401,-0.00046602002636705534,0.00031788271779222314,-0.0008113425690813586,3.141404526604615,,,,
2025-04-30 00:15:23.845529,0.010903194360351698,0.007879317663574081,0.5710992366412213,0.0,0.0,0.0003348827599927316,-0.0005928449824471975,3.1417549067901156,0.00033371439579952085,-0.0003728160210936443,0.0003227206887594169,-0.0008167474095942602,3.1414413239699277,,,,
2025-04-30 00:15:23.857214,0.01569159768066397,-0.008880093957519652,-0.01668702290076335,0.0,0.0,0.0003348827599927316,-0.0005928449824471975,3.1417515035711823,0.0002669715166396167,-0.00029825281687491546,0.00032662018585179035,-0.0008211038143779432,3.1415577962577967,,,,
2025-04-30 00:15:23.868921,-0.0010678139404296516,0.012667720983886577,0.09781679389312975,0.0,0.0,0.0003348827599927316,-0.0005928449824471975,3.141771490170849,0.00021357721331169335,-0.0002386022534999324,0.00032974563941489765,-0.0008245954802340683,3.14155438665058,,,,
2025-04-30 00:15:23.880765,-0.11120109030761727,0.010273519323730329,0.10545038167938925,0.0,0.0,0.00035264984061312465,-0.0005970238241429276,3.1417932888270608,0.0015000712048479621,-0.0003528188018794606,0.00033227528171142604,-0.0008274215230648621,3.1415746072949045,,,,
2025-04-30 00:15:23.892585,-0.005856217260741925,0.027032930944824063,0.13598473282442747,0.0,0.0,0.00035264984061312465,-0.0005970238241429276,3.1418213429450015,0.0012000569638783698,-0.00028225504150356846,0.00035000659784729796,-0.0008315919529048499,3.141596362071217,,,,
2025-04-30 00:15:23.906605,-0.013038822241211001,0.012667720983886577,-0.1082900763358779,0.0,0.0,0.00035264984061312465,-0.0005970238241429276,3.1417948445007315,0.0009600455711026959,-0.00022580403320285477,0.00036683164194540517,-0.0008355492263203241,3.1416296373627874,,,,
2025-04-30 00:15:23.918423,0.001326387719726707,0.017456124304199072,-0.03958778625954201,0.0,0.0,0.00035264984061312465,-0.0005970238241429276,3.1417866795458305,0.0007680364568821568,-0.00018064322656228382,0.00037817670866725105,-0.0008382176015515185,3.141607302605705,,,,
2025-04-30 00:15:23.930283,-0.05374025046386688,0.0437923425659178,0.07491603053435109,0.0,0.0,0.0003689864820106098,-0.0006051589118419081,3.1418021873527975,0.0013774140706798012,-0.0006859050149998936,0.00038728590570782316,-0.0008403600971714277,3.141599107834263,,,,
2025-04-30 00:15:23.941968,0.1665263022705079,0.01985032596435532,-0.17699236641221378,0.0,0.0,0.0003624771722994599,-0.0006156735716295284,3.141766090813827,-0.0005570591042564892,-0.0008998322745068371,0.0004033811722927173,-0.0008483749884835881,3.1416143865124937,,,,
2025-04-30 00:15:23.954284,-0.015433023901366916,-0.0016974889770509094,-0.07775572519083979,0.0,0.0,0.0003624771722994599,-0.0006156735716295284,3.1417493765433004,-0.00044564728340519143,-0.0007198658196054697,0.00039652030593498983,-0.0008594575270016531,3.1415763404614006,,,,
2025-04-30 00:15:23.965962,0.022874202661133047,-0.0016974889770509094,-0.01668702290076335,0.0,0.0,0.0003624771722994599,-0.0006156735716295284,3.1417459756158164,-0.00035651782672415315,-0.0005758926556843758,0.00039131636443560887,-0.0008678635910620161,3.141560493321715,,,,
2025-04-30 00:15:23.977527,-0.022615628881835992,-0.025639505578613386,0.22758778625954196,0.0,0.0,0.0003624771722994599,-0.0006156735716295284,3.141791916324365,-0.00028521426137932253,-0.00046071412454750066,0.0003871929914577826,-0.0008745241842682427,3.1415571248911496,,,,
2025-04-30 00:15:23.988969,-0.008250418920898284,0.0006967126831053383,-0.3372977099236642,0.0,0.0,0.0003624771722994599,-0.0006156735716295284,3.141724558096138,-0.00022817140910345803,-0.00036857129963800055,0.00038392958527219017,-0.0008797956504164187,3.1416025740880977,,,,
2025-04-30 00:15:24.000663,0.03005680764160168,0.005485116003417834,-0.1388244274809161,0.0,0.0,0.0003624771722994599,-0.0006156735716295284,3.141696226040046,-0.00018253712728276644,-0.0002948570397104005,0.00038126152240419605,-0.0008841054427897769,3.1415337365080642,,,,
2025-04-30 00:15:24.014253,-0.015433023901366916,0.012667720983886577,0.15888549618320608,0.0,0.0,0.0003624771722994599,-0.0006156735716295284,3.1417339130611937,-0.00014602970182621316,-0.0002358856317683204,0.00037878078154006883,-0.000888112648985983,3.1415008078943143,,,,
2025-04-30 00:15:24.026484,-0.008250418920898284,0.005485116003417834,0.3115572519083969,0.0,0.0,0.0003624771722994599,-0.0006156735716295284,3.14180042087811,-0.00011682376146097053,-0.00018870850541465633,0.0003769947107870465,-0.0008909977362161205,3.1415347250232726,,,,
2025-04-30 00:15:24.039496,-0.010644620581054642,0.022244527624511568,0.01384732824427476,0.0,0.0,0.0003624771722994599,-0.0006156735716295284,3.141803565678681,-9.345900916877643e-05,-0.00015096680433172508,0.00037547458005039616,-0.0008934532435184086,3.14160548130249,,,,
2025-04-30 00:15:24.051286,-0.029798233862304624,0.012667720983886577,-0.05485496183206112,0.0,0.0,0.0003624771722994599,-0.0006156735716295284,3.141792278357228,-7.476720733502115e-05,-0.00012077344346538006,0.000374372739424541,-0.0008952330757640921,3.141608330620764,,,,
2025-04-30 00:15:24.062734,0.025268404321288962,0.13956040897216782,-0.1388244274809161,0.0,0.0,0.00035839582989772857,-0.0006349548577720493,3.141764539573062,-0.0003564994535580678,-0.0016841929191703147,0.000373516775774359,-0.0008966157364411247,3.141597369942054,,,,
2025-04-30 00:15:24.074278,0.013297396020508057,0.0437923425659178,-0.16172519083969467,0.0,0.0,0.00035839582989772857,-0.0006349548577720493,3.141731955754306,-0.00028519956284645426,-0.0013473543353362519,0.00036940143493536056,-0.0009160576397367343,3.141569400088004,,,,
2025-04-30 00:15:24.085721,0.022874202661133047,-0.008880093957519652,0.0062137404580152045,0.0,0.0,0.00035839582989772857,-0.0006349548577720493,3.1417331968169786,-0.0002281596502771634,-0.0010778834682690014,0.00036613772095146616,-0.0009314762439646275,3.1415370989162774,,,,
2025-04-30 00:15:24.097492,-0.008250418920898284,-0.0016974889770509094,0.16651908396946563,0.0,0.0,0.00035839582989772857,-0.0006349548577720493,3.1417674054568074,-0.00018252772022173073,-0.0008623067746152012,0.00036345217079236154,-0.0009441634571339571,3.1415383754282797,,,,
2025-04-30 00:15:24.109179,-0.008250418920898284,0.005485116003417834,0.18941984732824424,0.0,0.0,0.00035839582989772857,-0.0006349548577720493,3.1418060428121874,-0.0001460221761773846,-0.0006898454196921609,0.0003613189619649735,-0.0009542412711848373,3.141572341547014,,,,
2025-04-30 00:15:24.123587,-0.06571125876464823,-0.018456900598144643,0.25048854961832057,0.0,0.0,0.00036970219956202345,-0.0006409369139098767,3.1418690349984075,0.0007846965534042194,-0.000415172948788994,0.0003592149885297852,-0.0009641809699033079,3.14161997634036,,,,
2025-04-30 00:15:24.135982,-0.020221427221679633,-0.025639505578613386,-0.03195419847328246,0.0,0.0,0.00036970219956202345,-0.0006409369139098767,3.141862122684704,0.0006277572427233755,-0.00033213835903119523,0.0003689406665752293,-0.0009693267022447871,3.141674161878313,,,,
2025-04-30 00:15:24.148930,-0.0010678139404296516,0.017456124304199072,-0.01668702290076335,0.0,0.0,0.00036970219956202345,-0.0006409369139098767,3.1418583516534286,0.0005022057941787005,-0.0002657106872249562,0.0003770688900749616,-0.0009736272417388883,3.1416669406811866,,,,
2025-04-30 00:15:24.161641,-0.0010678139404296516,-0.008880093957519652,0.3649923664122137,0.0,0.0,0.00036970219956202345,-0.0006409369139098767,3.141939328116556,0.0004017646353429604,-0.00021256854977996496,0.00038345269156441766,-0.000977004829772585,3.141663238532268,,,,
2025-04-30 00:15:24.173446,0.02048000100097669,-0.15492639522705087,-0.04722137404580157,0.0,0.0,0.0003715460886468246,-0.0006222392208250062,3.141929598957038,0.0001561979957574325,0.001583903397019873,0.0003881954504082535,-0.0009795141630505866,3.1417384389902696,,,,
2025-04-30 00:15:24.185583,-0.013038822241211001,0.010273519323730329,0.0062137404580152045,0.0,0.0,0.0003715460886468246,-0.0006222392208250062,3.1419309152105575,0.000124958396605946,0.0012671227176158984,0.000390091215515415,-0.0009602904285934053,3.1417284361103306,,,,
2025-04-30 00:15:24.197433,-0.048951847143554605,-0.14295538692626963,-0.123557251908397,0.0,0.0,0.00037972738959524854,-0.0005878498958514343,3.1419053611706667,0.0006904121221113514,0.002902082075046329,0.000391571957547492,-0.0009452751761675093,3.141729721232564,,,,
2025-04-30 00:15:24.208981,0.04202781594238303,-0.0016974889770509094,0.18941984732824424,0.0,0.0,0.00037972738959524854,-0.0005878498958514343,3.141943538210342,0.0005523296976890812,0.0023216656600370633,0.00039954470132916905,-0.0009117625015247393,3.1417048186145187,,,,
2025-04-30 00:15:24.220470,0.022874202661133047,0.1084357873901366,-0.2380610687022901,0.0,0.0,0.00038299151815294715,-0.0005757377003175337,3.1418957993793244,0.0002840934503552429,0.00105418501746429,0.00040589076505305135,-0.00088508742269811,3.141742803330509,,,,
2025-04-30 00:15:24.231998,-0.03219243552246098,0.022244527624511568,-0.23042748091603055,0.0,0.0,0.00038299151815294715,-0.0005757377003175337,3.1418494379095563,0.00022727476028419434,0.000843348013971432,0.0004091657309158325,-0.0008729350131971735,3.1416949060007475,,,,
2025-04-30 00:15:24.243724,0.01808579934082033,0.02942713260498031,-0.2914961832061069,0.0,0.0,0.00038299151815294715,-0.0005757377003175337,3.1417897791551876,0.0001818198082273555,0.0006746784111771457,0.0004118308409817261,-0.0008630455944237201,3.1416477458069756,,,,
2025-04-30 00:15:24.255175,0.001326387719726707,0.027032930944824063,-0.06248854961832068,0.0,0.0,0.00038299151815294715,-0.0005757377003175337,3.14177729111395,0.00014545584658188438,0.0005397427289417165,0.00041391273063729877,-0.0008553203305002674,3.141589491672759,,,,
2025-04-30 00:15:24.266614,0.03245100930175804,-0.04958152218017586,-0.1540916030534351,0.0,0.0,0.00038045962944395316,-0.0005633291530264218,3.141746526130919,-0.00022133203292389213,0.0010847273767673942,0.00041557664711044874,-0.0008491460388574528,3.1415770155927487,,,,
2025-04-30 00:15:24.277966,-0.04416344382324189,0.13716620731201157,0.22758778625954196,0.0,0.0,0.00038357805633744077,-0.0005685829391109368,3.1417916173483205,0.0002747071260593252,-0.0004628142731906294,0.0004130641248699041,-0.0008368324047980174,3.1415464859317015,,,,
2025-04-30 00:15:24.289696,0.01569159768066397,-0.0016974889770509094,-0.024320610687022903,0.0,0.0,0.00038357805633744077,-0.0005685829391109368,3.1417866380761175,0.00021976570084746017,-0.0003702514185525035,0.0004162865582722624,-0.0008422614163945188,3.1415930810420147,,,,
2025-04-30 00:15:24.301538,-0.03219243552246098,0.027032930944824063,-0.01668702290076335,0.0,0.0,0.00038357805633744077,-0.0005685829391109368,3.1417831890976347,0.00017581256067796815,-0.00029620113484200286,0.0004188890788242046,-0.0008466460265609499,3.141588054305763,,,,
2025-04-30 00:15:24.313497,-0.0034620156005860103,0.003090914343261586,0.21232061068702285,0.0,0.0,0.00038357805633744077,-0.0005685829391109368,3.141827502236248,0.00014065004854237452,-0.00023696090787360229,0.0004209914669184782,-0.0008501880359429917,3.1415845715804807,,,,
2025-04-30 00:15:24.325333,-0.020221427221679633,-0.02085110225830089,0.04438167938931292,0.0,0.0,0.00038357805633744077,-0.0005685829391109368,3.141836670702902,0.00011252003883389962,-0.00018956872629888183,0.00042265624173210307,-0.0008529927740524337,3.141628433247409,,,,
2025-04-30 00:15:24.337040,-0.0034620156005860103,0.003090914343261586,-0.17699236641221378,0.0,0.0,0.00038357805633744077,-0.0005685829391109368,3.1418005056695506,9.00160310671197e-05,-0.00015165498103910548,0.0004239735482475344,-0.0008552121131218431,3.1416375018018776,,,,
2025-04-30 00:15:24.351148,0.022874202661133047,0.015061922644042824,-0.05485496183206112,0.0,0.0,0.00038357805633744077,-0.0005685829391109368,3.141786998729626,7.201282485369576e-05,-0.0001213239848312844,0.00042524348924521477,-0.0008573516528864923,3.141593920962872,,,,
2025-04-30 00:15:24.362885,-0.022615628881835992,0.005485116003417834,0.1130839694656488,0.0,0.0,0.00038357805633744077,-0.0005685829391109368,3.1418101627028903,5.761025988295661e-05,-9.705918786502752e-05,0.00042608866005692706,-0.0008587755588497474,3.1415826845438173,,,,
2025-04-30 00:15:24.374675,-0.027404032202148265,-0.008880093957519652,0.12071755725190836,0.0,0.0,0.00038357805633744077,-0.0005685829391109368,3.141835004861271,4.608820790636529e-05,-7.764735029202203e-05,0.00042676792836753393,-0.0008599199597030658,3.1416059558056264,,,,
2025-04-30 00:15:24.386685,-0.005856217260741925,0.007879317663574081,-0.222793893129771,0.0,0.0,0.00038357805633744077,-0.0005685829391109368,3.141788303753398,3.6870566325092234e-05,-6.211788023361763e-05,0.00042732145223825844,-0.000860852511950974,3.1416312601063154,,,,
2025-04-30 00:15:24.398489,-0.005856217260741925,-0.0016974889770509094,-0.08538931297709923,0.0,0.0,0.00038357805633744077,-0.0005685829391109368,3.1417707125170113,2.949645306007379e-05,-4.969430418689411e-05,0.00042775665865096065,-0.0008615857282401619,3.1415853618562544,,,,
2025-04-30 00:15:24.410133,0.03723941262207031,-0.0016974889770509094,-0.07775572519083979,0.0,0.0,0.00038357805633744077,-0.0005685829391109368,3.141754910028093,2.359716244805903e-05,-3.975544334951529e-05,0.00042810012606950114,-0.0008621643867771892,3.141568007974354,,,,
2025-04-30 00:15:24.421622,-0.12077789694824226,-0.006485892297363405,-0.1540916030534351,0.0,0.0,0.0003994649233256972,-0.0005681895914088807,3.1417240135981777,0.0013828857477703005,3.423928276692656e-05,0.0004283712149730617,-0.0008626211052310248,3.141552417414802,,,,
2025-04-30 00:15:24.433185,-0.04176924216308597,-0.0016974889770509094,-0.11592366412213745,0.0,0.0,0.0003994649233256972,-0.0005681895914088807,3.1417006181536498,0.0011063085982162405,2.739142621354125e-05,0.00044436193924265674,-0.0008622251860954075,3.141521319005528,,,,
2025-04-30 00:15:24.447052,-0.013038822241211001,-0.04000471553955087,0.08254961832061064,0.0,0.0,0.0003994649233256972,-0.0005681895914088807,3.1417205967235553,0.0008850468785729925,2.1913140970833e-05,0.00045970274772503064,-0.0008618453584195867,3.141493263284926,,,,
2025-04-30 00:15:24.458543,-0.008250418920898284,0.13956040897216782,0.13598473282442747,0.0,0.0,0.0004105025870818932,-0.0005860037610121108,3.141747870523035,0.0009605036876961756,-0.00155019902536373,0.00046987329676018396,-0.0008615935427472718,3.141509819862201,,,,
2025-04-30 00:15:24.469940,0.04202781594238303,0.010273519323730329,-0.04722137404580157,0.0,0.0,0.0004105025870818932,-0.0005860037610121108,3.1417384771770127,0.0007684029501569406,-0.001240159220290984,0.0004808205047562253,-0.000879261721832166,3.141536870147691,,,,
2025-04-30 00:15:24.481528,-0.0034620156005860103,0.12998360233154282,0.30392366412213734,0.0,0.0,0.0004196877709392209,-0.0006171919573040773,3.1417999446071345,0.0007926558729610291,-0.002691454775634833,0.0004897246491831618,-0.0008936325110224113,3.1415273198005083,,,,
2025-04-30 00:15:24.492993,0.00850899270019534,-0.0016974889770509094,0.021480916030534314,0.0,0.0,0.0004196877709392209,-0.0006171919573040773,3.1418042429192115,0.0006341246983688233,-0.0021531638205078666,0.0004988123173548244,-0.0009244895938175431,3.141588134653753,,,,
2025-04-30 00:15:24.504430,-0.0345866371826169,0.005485116003417834,0.01384732824427476,0.0,0.0,0.0004196877709392209,-0.0006171919573040773,3.141807006957883,0.0005072997586950586,-0.0017225310564062933,0.0005060646118132266,-0.0009491146842511268,3.1415924224182636,,,,
2025-04-30 00:15:24.515758,0.02048000100097669,0.005485116003417834,-0.06248854961832068,0.0,0.0,0.0004196877709392209,-0.0006171919573040773,3.1417946523103315,0.0004058398069560469,-0.0013780248451250347,0.0005118112943223814,-0.0009686274849644352,3.1415951601815983,,,,
2025-04-30 00:15:24.527366,-0.010644620581054642,0.012667720983886577,-0.44416793893129775,0.0,0.0,0.0004196877709392209,-0.0006171919573040773,3.1417046620465525,0.00032467184556483756,-0.0011024198761000277,0.0005165224297958433,-0.0009846240964843185,3.141582499742673,,,,
2025-04-30 00:15:24.538754,0.03005680764160168,-0.025639505578613386,0.1970534351145038,0.0,0.0,0.0004196877709392209,-0.0006171919573040773,3.141743828230125,0.00025973747645187005,-0.0008819359008800222,0.000520219813367326,-0.000997178523960705,3.141494217277447,,,,
2025-04-30 00:15:24.550210,-0.036980838842773256,-0.008880093957519652,-0.11592366412213745,0.0,0.0,0.0004196877709392209,-0.0006171919573040773,3.141720650821492,0.00020778998116149604,-0.0007055487207040178,0.0005231952453504534,-0.0010072815723247443,3.1415336155144047,,,,
2025-04-30 00:15:24.564014,0.025268404321288962,0.017456124304199072,0.021480916030534314,0.0,0.0,0.0004196877709392209,-0.0006171919573040773,3.1417258262799166,0.00016623198492919685,-0.0005644389765632143,0.0005260636687907311,-0.0010170212742940728,3.141505685695061,,,,
2025-04-30 00:15:24.576538,-0.04416344382324189,-0.14774379024658213,0.03674809160305342,0.0,0.0,0.0004285126040026071,-0.000601410232503203,3.1417338584861483,0.0007046667926417431,0.0012601776507168915,0.0005281454605426824,-0.0010240899765440613,3.14151038088167,,,,
2025-04-30 00:15:24.588712,-0.04176924216308597,-0.03042790889892588,-0.0014198473282442947,0.0,0.0,0.0004429862977593592,-0.000581954666624995,3.1417335567930063,0.0011888661382746869,0.0015980760586967351,0.0005367243333265019,-0.0010087481101989997,3.141518189219226,,,,
2025-04-30 00:15:24.600722,0.0061147910400389804,-0.004091690637207157,0.2581221374045801,0.0,0.0,0.0004429862977593592,-0.000581954666624995,3.14178766325712,0.0009510929106197495,0.0012784608469573883,0.0005510027315659831,-0.000989555060915784,3.141517891596871,,,,
2025-04-30 00:15:24.612712,0.02766260598144532,-0.006485892297363405,0.08254961832061064,0.0,0.0,0.0004429862977593592,-0.000581954666624995,3.1418049381024726,0.0007608743284957996,0.0010227686775659106,0.0005624064024670592,-0.000974226225429971,3.141571907837,,,,
2025-04-30 00:15:24.624558,0.03723941262207031,0.005485116003417834,0.15888549618320608,0.0,0.0,0.0004429862977593592,-0.000581954666624995,3.1418377874699637,0.0006086994627966397,0.0008182149420527285,0.0005714195882092739,-0.0009621106845095078,3.1415889748620818,,,,
2025-04-30 00:15:24.636222,-0.005856217260741925,-0.004091690637207157,0.326824427480916,0.0,0.0,0.0004429862977593592,-0.000581954666624995,3.14190431896735,0.0004869595702373118,0.0006545719536421829,0.0005785192611036265,-0.0009525672910930646,3.1416213191089777,,,,
2025-04-30 00:15:24.649060,0.001326387719726707,0.024638729284667815,0.05201526717557248,0.0,0.0,0.0004429862977593592,-0.000581954666624995,3.1419159739010905,0.0003895676561898495,0.0005236575629137463,0.0005847709090477355,-0.0009441638143808924,3.1416945498593667,,,,
2025-04-30 00:15:24.663274,0.0061147910400389804,0.017456124304199072,0.05201526717557248,0.0,0.0,0.0004429862977593592,-0.000581954666624995,3.141928878373941,0.0003116541249518796,0.00041892605033099704,0.000590308424607418,-0.0009367202757387441,3.1417074543322174,,,,
2025-04-30 00:15:24.675068,-0.0010678139404296516,0.0437923425659178,-0.09302290076335878,0.0,0.0,0.0004429862977593592,-0.000581954666624995,3.1419097300091194,0.0002493232999615037,0.0003351408402647977,0.0005939841014904288,-0.0009317794240842684,3.1417181614516902,,,,
2025-04-30 00:15:24.686656,-0.020221427221679633,-0.0016974889770509094,-0.1082900763358779,0.0,0.0,0.0004429862977593592,-0.000581954666624995,3.1418878296453756,0.00019945863996920297,0.00026811267221183815,0.0005968731056497432,-0.0009278960193578325,3.1416993486903353,,,,
2025-04-30 00:15:24.698303,-0.048951847143554605,0.01985032596435532,-0.19989312977099244,0.0,0.0,0.00045177122063424206,-0.0005815316468207431,3.1418471957190155,0.0007542657704819306,3.632010925166857e-05,0.0005991961976385775,-0.0009247733148160967,3.1416773356727172,,,,
2025-04-30 00:15:24.709841,0.001326387719726707,-0.028033707238769634,-0.17699236641221378,0.0,0.0,0.00045177122063424206,-0.0005815316468207431,3.1418115521267604,0.0006034126163855445,2.9056087401334855e-05,0.0006078992974206255,-0.0009243542350337672,3.141637080212233,,,,
2025-04-30 00:15:24.721353,-0.020221427221679633,-0.0112742956176759,-0.04722137404580157,0.0,0.0,0.00045177122063424206,-0.0005815316468207431,3.1418020642656463,0.00048273009310843563,2.3244869921067886e-05,0.0006148458082558383,-0.0009240197401616327,3.1416015183713366,,,,
2025-04-30 00:15:24.732803,-0.025009830541991906,0.05097494754638665,0.14361832061068697,0.0,0.0,0.0004604020827131765,-0.0005878185917987383,3.141830763317598,0.0007538307305219037,-0.0005491099593724838,0.0006203727477745888,-0.0009237536018122547,3.1415920821889527,,,,
2025-04-30 00:15:24.744332,-0.03219243552246098,0.055763350866699146,0.03674809160305342,0.0,0.0,0.000473115335313769,-0.0006012865723499956,3.1418381581709336,0.0011026540299773691,-0.0011681135817130327,0.0006290641779373306,-0.0009300846661617377,3.141620982639857,,,,
2025-04-30 00:15:24.755941,-0.11359529196777318,-0.0016974889770509094,0.05201526717557248,0.0,0.0,0.0005006605643286712,-0.00061434725053495,3.1418486966794648,0.002372878149851512,-0.0011251094652563664,0.0006418641852962555,-0.0009436445517065208,3.141628427955394,,,,
2025-04-30 00:15:24.772697,-0.039375040502929615,0.005485116003417834,0.33445801526717556,0.0,0.0,0.0005006605643286712,-0.00061434725053495,3.141946509775016,0.0018983025198812096,-0.0009000875722050931,0.0006816248343216276,-0.000962497219116342,3.141643639952315,,,,
2025-04-30 00:15:24.787978,-0.025009830541991906,0.007879317663574081,0.09781679389312975,0.0,0.0,0.0005006605643286712,-0.00061434725053495,3.1419725978171407,0.0015186420159049678,-0.0007200700577640745,0.0007106327229741302,-0.0009762514230952003,3.141732840941674,,,,
2025-04-30 00:15:24.799948,-0.013038822241211001,0.005485116003417834,0.0062137404580152045,0.0,0.0,0.0005006605643286712,-0.00061434725053495,3.141973895996932,0.0012149136127239744,-0.0005760560462112597,0.0007288112955555503,-0.0009848708644590502,3.1417532769070826,,,,
2025-04-30 00:15:24.811769,0.001326387719726707,0.022244527624511568,0.06728244274809159,0.0,0.0,0.0005006605643286712,-0.00061434725053495,3.141987776876184,0.0009719308901791796,-0.00046084483696900774,0.0007431722484109566,-0.0009916801664827252,3.1417545588489606,,,,
2025-04-30 00:15:24.823333,0.010903194360351698,-0.0016974889770509094,-0.0014198473282442947,0.0,0.0,0.0005006605643286712,-0.00061434725053495,3.1419874903022627,0.0007775447121433437,-0.0003686758695752062,0.0007544119048348236,-0.0009970094935826074,3.1417681387551157,,,,
2025-04-30 00:15:24.834941,0.003720589379883066,0.022244527624511568,-1.4289007633587787,0.0,0.0,0.0005006605643286712,-0.00061434725053495,3.141697989090361,0.000622035769714675,-0.000294940695660165,0.0007634379254784267,-0.0010012892166102532,3.1417678510881673,,,,
2025-04-30 00:15:24.847049,-0.005856217260741925,-0.037610513879394625,-0.10065648854961834,0.0,0.0,0.0005006605643286712,-0.00061434725053495,3.1416767185955985,0.00049762861577174,-0.000235952556528132,0.0007709692924211711,-0.0010048602437336353,3.1414658991063233,,,,
2025-04-30 00:15:24.858674,0.01569159768066397,0.007879317663574081,0.06728244274809159,0.0,0.0,0.0005006605643286712,-0.00061434725053495,3.141690369615397,0.000398102892617392,-0.00018876204522250562,0.0007767541320626941,-0.0010076031480989837,3.1414454767842153,,,,
2025-04-30 00:15:24.870072,0.16413210061035155,0.13237780399169907,-0.0014198473282442947,0.0,0.0,0.0004842121179315356,-0.0006333118359467749,3.141690087159528,-0.0014430896002110888,-0.0016638407858924243,0.0007812917394910921,-0.0010097546724272043,3.141458861547813,,,,
2025-04-30 00:15:24.881771,0.03005680764160168,0.012667720983886577,-0.3220305343511451,0.0,0.0,0.0004842121179315356,-0.0006333118359467749,3.141624330548249,-0.001154471680168871,-0.0013310726287139394,0.0007644084020477503,-0.0010292206747018432,3.141458571623912,,,,
2025-04-30 00:15:24.893094,-0.005856217260741925,-0.047187320520019616,-0.01668702290076335,0.0,0.0,0.0004842121179315356,-0.0006333118359467749,3.1416210329443,-0.0009235773441350969,-0.0010648581029711515,0.0007513368983867807,-0.0010442917423062956,3.1413949336000355,,,,
2025-04-30 00:15:24.904334,0.044422017602538943,0.003090914343261586,0.02911450381679387,0.0,0.0,0.0004842121179315356,-0.0006333118359467749,3.14162674472741,-0.0007388618753080776,-0.0008518864823769212,0.0007409554435693442,-0.0010562612609970434,3.1413916598827103,,,,
2025-04-30 00:15:24.915681,-0.029798233862304624,-0.025639505578613386,-0.04722137404580157,0.0,0.0,0.0004842121179315356,-0.0006333118359467749,3.141617393038767,-0.0005910895002464621,-0.0006815091859015371,0.0007325717130696803,-0.0010659274610314907,3.1413974256991484,,,,
2025-04-30 00:15:24.927645,-0.029798233862304624,0.03182133426513656,0.14361832061068697,0.0,0.0,0.0004842121179315356,-0.0006333118359467749,3.1416473829564096,-0.0004728716001971697,-0.0005452073487212297,0.0007254997284683334,-0.0010740812557890741,3.141387565083089,,,,
2025-04-30 00:15:24.940737,0.010903194360351698,-0.006485892297363405,0.13598473282442747,0.0,0.0,0.0004842121179315356,-0.0006333118359467749,3.141678453098567,-0.0003782972801577358,-0.0004361658789769837,0.0007193093250489279,-0.001081218612810307,3.141420379367054,,,,
2025-04-30 00:15:24.952597,-0.008250418920898284,-0.0016974889770509094,-0.2762290076335879,0.0,0.0,0.0004842121179315356,-0.0006333118359467749,3.1416212741478544,-0.00030263782412618865,-0.000348932703181587,0.0007148226692887716,-0.0010863915978036956,3.141448527983314,,,,
2025-04-30 00:15:24.964248,0.02766260598144532,-0.02324530391845714,-0.14645801526717556,0.0,0.0,0.0004842121179315356,-0.0006333118359467749,3.1415914902294704,-0.00024211025930095093,-0.0002791461625452696,0.0007112964076961758,-0.001090457275956063,3.141392353644179,,,,
2025-04-30 00:15:24.975742,0.013297396020508057,0.12998360233154282,0.04438167938931292,0.0,0.0,0.00047976377625127443,-0.0006532833567455079,3.141600393125472,-0.0003870329475571196,-0.0017376445240776005,0.0007085137268818808,-0.0010936656268666837,3.1413629743936307,,,,
2025-04-30 00:15:24.987334,-0.03219243552246098,0.015061922644042824,0.2046870229007633,0.0,0.0,0.00047976377625127443,-0.0006532833567455079,3.14164180734901,-0.0003096263580456957,-0.0013901156192620806,0.000704026998449924,-0.001113809490948597,3.1413719541167473,,,,
2025-04-30 00:15:24.998859,0.10427705910644525,-0.02324530391845714,0.2962900763358778,0.0,0.0,0.00046269484611073376,-0.0006659590035221026,3.141701401725017,-0.0014811379088917234,-0.0010999155076476773,0.0007004588022384675,-0.0011298294619789878,3.141413123890495,,,,
2025-04-30 00:15:25.010406,-0.017827225561523274,0.015061922644042824,0.42606106870229005,0.0,0.0,0.00046269484611073376,-0.0006659590035221026,3.14178726782128,-0.0011849103271133789,-0.0008799324061181419,0.0006833559715415404,-0.0011425302838236591,3.1414728366267326,,,,
2025-04-30 00:15:25.021741,-0.0034620156005860103,-0.1405611852661134,0.3420916030534351,0.0,0.0,0.00044996362991661973,-0.0006580347173358633,3.1418549456566636,-0.0011231641042390528,0.0006990906179266783,0.0006699248536058945,-0.001152504436003395,3.1415571265964766,,,,
2025-04-30 00:15:25.033245,-0.020221427221679633,0.034215535925292806,-0.07775572519083979,0.0,0.0,0.00044996362991661973,-0.0006580347173358633,3.1418393334188406,-0.0008985312833912423,0.0005592724943413427,0.0006570037791301907,-0.0011444619763971771,3.1416258136989508,,,,
2025-04-30 00:15:25.044928,-0.04176924216308597,-0.016062698937988396,0.4565954198473282,0.0,0.0,0.00044996362991661973,-0.0006580347173358633,3.141932432435475,-0.0007188250267129939,0.0004474179954730742,0.000646506678088833,-0.0011379282696790361,3.1416099594410274,,,,
2025-04-30 00:15:25.057603,-0.0944416786865232,-0.018456900598144643,0.09781679389312975,0.0,0.0,0.0004559040800477996,-0.0006495651557756688,3.141954072815042,0.00046864638579182516,0.0006681698064584528,0.0006373950230036929,-0.001132256905574927,3.141710973774056,,,,
2025-04-30 00:15:25.071499,-0.013038822241211001,0.0006967126831053383,0.2962900763358778,0.0,0.0,0.0004559040800477996,-0.0006495651557756688,3.1420259310370056,0.00037491710863346014,0.0005345358451667622,0.0006439072160405126,-0.0011229721849562455,3.141734696947556,,,,
2025-04-30 00:15:25.083803,-0.07049966208496095,-0.15253219356689462,-0.04722137404580157,0.0,0.0,0.00047087523192710176,-0.0006204842803078762,3.142015790216122,0.001216740858238347,0.0023634714055585184,0.000648520310881124,-0.0011163950923331629,3.1417983254347495,,,,
2025-04-30 00:15:25.095812,0.1617378989501952,-0.15253219356689462,0.021480916030534314,0.0,0.0,0.0004623284122967888,-0.0005711245188411719,3.1420202923286342,-0.0007117350599142311,0.004110426369623845,0.0006631314565698702,-0.0010880135147737476,3.141788428466732,,,,
2025-04-30 00:15:25.107428,0.02766260598144532,0.03182133426513656,-0.04722137404580157,0.0,0.0,0.0004623284122967888,-0.0005711245188411719,3.142010718794797,-0.000569388047931385,0.003288341095699076,0.000654863948097885,-0.001040266836622988,3.1417927834496315,,,,
2025-04-30 00:15:25.118932,0.02048000100097669,-0.02085110225830089,-0.2685954198473283,0.0,0.0,0.0004623284122967888,-0.0005711245188411719,3.141956788675021,-0.000455510438345108,0.002630672876559261,0.0006483136093315998,-0.0010024371908582386,3.141783302072921,,,,
2025-04-30 00:15:25.130544,-0.008250418920898284,-0.13816698360595714,-0.03958778625954201,0.0,0.0,0.00045822861389256735,-0.000522931792060519,3.1419487657193352,-0.00035307477662607377,0.004150359253167143,0.0006430243587482559,-0.0009718906064649601,3.1417288678811057,,,,
2025-04-30 00:15:25.142103,-0.0010678139404296516,-0.013668497277832148,0.14361832061068697,0.0,0.0,0.00045822861389256735,-0.000522931792060519,3.141977740873115,-0.000282459821300859,0.0033202874025337146,0.000638942995673491,-0.0009239145851678496,3.141720881001787,,,,
2025-04-30 00:15:25.154454,-0.005856217260741925,0.012667720983886577,-0.222793893129771,0.0,0.0,0.00045822861389256735,-0.000522931792060519,3.141929715884231,-0.0002259678570406872,0.0026562299220269717,0.0006354544589191148,-0.0008829071789268972,3.141751839068698,,,,
2025-04-30 00:15:25.168737,0.010903194360351698,0.005485116003417834,0.10545038167938925,0.0,0.0,0.00045822861389256735,-0.000522931792060519,3.1419560030153084,-0.00018077428563254979,0.0021249839376215776,0.0006322269731642108,-0.0008449684014947249,3.1416963000352807,,,,
2025-04-30 00:15:25.182389,-0.010644620581054642,-0.018456900598144643,0.10545038167938925,0.0,0.0,0.00045822861389256735,-0.000522931792060519,3.1419811299618567,-0.00014461942850603983,0.0016999871500972621,0.0006297589408236421,-0.0008159569242102877,3.141721426981829,,,,
2025-04-30 00:15:25.194607,-0.015433023901366916,-0.02085110225830089,-0.11592366412213745,0.0,0.0,0.00045822861389256735,-0.000522931792060519,3.141956411348167,-0.00011569554280483187,0.0013599897200778097,0.0006279920843022896,-0.0007951876996780569,3.1417439123584594,,,,
2025-04-30 00:15:25.206398,0.013297396020508057,-0.025639505578613386,-0.024320610687022903,0.0,0.0,0.00045822861389256735,-0.000522931792060519,3.1419514059656772,-9.25564342438655e-05,0.0010879917760622478,0.0006266278088821999,-0.0007791507763731824,3.1417200543112243,,,,
2025-04-30 00:15:25.218176,-0.008250418920898284,0.05097494754638665,-0.1082900763358779,0.0,0.0,0.00045828415326671534,-0.0005173031259624786,3.1419291469119983,4.715853577067632e-06,0.00047793057735642276,0.0006255377567108875,-0.0007663373203713888,3.1417150552032993,,,,
2025-04-30 00:15:25.229970,-0.015433023901366916,-0.006485892297363405,0.41079389312977094,0.0,0.0,0.00045828415326671534,-0.0005173031259624786,3.142013710490351,3.772682861654106e-06,0.0003823444618851382,0.0006255933781623745,-0.0007607003361037195,3.141692763254689,,,,
2025-04-30 00:15:25.241867,-0.008250418920898284,0.005485116003417834,-0.16935877862595422,0.0,0.0,0.00045828415326671534,-0.0005173031259624786,3.1419785449724222,3.018146289323285e-06,0.0003058755695081106,0.0006256382611994919,-0.0007561516418975755,3.1417780601618293,,,,
2025-04-30 00:15:25.253960,-0.017827225561523274,-0.0112742956176759,0.0901832061068702,0.0,0.0,0.00045828415326671534,-0.0005173031259624786,3.1419975786355567,2.414517031458628e-06,0.0002447004556064885,0.0006256747584061309,-0.0007524528139429372,3.141742316057351,,,,
2025-04-30 00:15:25.265870,-0.04655764548339825,-0.16450320186767586,0.09781679389312975,0.0,0.0,0.0004647745993641146,-0.0004915766599489748,3.1420179116213163,0.0005449594432499131,0.002160079659412721,0.0006257035152115005,-0.0007495384408885838,3.141761062264138,,,,
2025-04-30 00:15:25.277572,0.02766260598144532,0.0006967126831053383,0.12071755725190836,0.0,0.0,0.0004647745993641146,-0.0004915766599489748,3.1420425674157877,0.00043596755459993054,0.001728063727530177,0.0006320807936236127,-0.0007242605425953378,3.1417810407231213,,,,
