timestamp,imu_accel_x,imu_accel_y,imu_gyro_z,gps_lat,gps_lng,odom_x,odom_y,odom_heading,odom_vx,odom_vy,ekf_x,ekf_y,ekf_heading,map_matched_lat,map_matched_lng,distance_to_path,progress
2000-01-01 08:09:06.797423,-0.08507077338867175,0.008070853796386723,-0.6503511450381678,,,0.0,0.0,3.141592653589793,0.0,0.0,0.0,0.0,3.141592653589793,,,,
2000-01-01 08:09:06.811200,-0.03000413520507772,0.0320128703979492,-0.34500763358778624,,,0.0,0.0,3.141509697167979,0.0,0.0,0.0,0.0,3.141592653589793,,,,
2000-01-01 08:09:06.825450,0.008303091357422243,0.08707950858154301,-0.7724885496183207,,,-1.6571849513822521e-06,-1.732944307137896e-05,3.141317566628338,-0.00011629043542085787,-0.0012160673307410354,0.0,0.0,3.141506844547246,,,,
2000-01-01 08:09:06.837366,0.008303091357422243,0.08947371024169926,-0.25340458015267175,,,-4.174519492084383e-06,-4.397885719935764e-05,3.141264867133638,-0.00021126439564614298,-0.0022365213200867895,-1.3856661882986842e-06,-1.4490128760840916e-05,3.1413461933222284,,,,
2000-01-01 08:09:06.850749,-0.05394615180664042,0.07510850028076177,-0.6579847328244275,,,2.5177089687700317e-06,-8.65015046411045e-05,3.1411111709306736,0.0005000354612987648,-0.0031772423421515933,-4.213124860201916e-06,-4.4422629133348935e-05,3.1412870014901992,,,,
2000-01-01 08:09:06.862889,0.010697293017578602,0.11102152518310549,-0.7877557251908396,,,6.9111160374373335e-06,-0.00014033125149574358,3.140944269890184,0.00036191896066501436,-0.004434373079934403,1.8569061937601382e-06,-8.299181307228599e-05,3.141147594903839,,,,
2000-01-01 08:09:06.875180,-0.06591716010742177,0.07271429862060552,-0.9251603053435113,,,2.1019913659940012e-05,-0.0002045164859584408,3.1407458086228757,0.0011479120162023117,-0.005222202761274237,6.3051925603951005e-06,-0.00013749396261372084,3.1409786090549567,,,,
2000-01-01 08:09:06.888283,-0.2239344696777339,0.08229110526123051,-0.8793587786259542,,,7.342376706911843e-05,-0.0002854598915877036,3.1405447075043154,0.003999375740920898,-0.006177467338775783,2.134629320222904e-05,-0.00020592052858369093,3.140767033556111,,,,
2000-01-01 08:09:06.903241,-0.03958094184570271,0.046378080358886686,-0.7495877862595419,,,0.00014071805225403862,-0.00038619719159017446,3.140349010364239,0.004498767764237353,-0.006734505265373983,8.117048190800171e-05,-0.0002983254426850037,3.140537456712367,,,,
2000-01-01 08:09:06.916964,-0.05873455512695269,0.08707950858154301,1.7618625954198475,,,0.00021204508467861615,-0.0004928442641404059,3.1407709899298024,0.005197711113348134,-0.0077715370366281695,0.00014290607036083954,-0.0003907415591161835,3.140357924705036,,,,
2000-01-01 08:09:06.930926,-0.05634035346679678,0.07750270194091802,-0.09309923664122136,,,0.0002939173748513385,-0.0006139992167714857,3.1407483026100884,0.0058637741585589745,-0.008677237181478732,0.00021547852983813307,-0.0004992507748782115,3.140787272371427,,,,
2000-01-01 08:09:06.945300,-0.14013741157226534,0.06792589530029303,-0.02439694656488549,,,0.00040487982815490665,-0.0007500079720860339,3.1407421821028407,0.007719718714862192,-0.009462203678161354,0.00029976382445633023,-0.0006239765014387042,3.140763916393206,,,,
2000-01-01 08:09:06.960530,-0.07788816840820267,0.09426211356201175,0.12827480916030537,,,0.0005377831528167174,-0.0009126716333486627,3.1407762783633704,0.008726655649365294,-0.010680769364619608,0.000417331919713281,-0.0007680819156985556,3.140757431529563,,,,
2000-01-01 08:09:06.974816,-0.2143576630371089,0.11341572684326173,0.02140458015267177,,,0.0007028176809325432,-0.0010849280291291006,3.140781615437428,0.011551959770603302,-0.012057470500283269,0.0005420033629767206,-0.0009206703740214077,3.140789415906334,,,,
2000-01-01 08:09:06.988560,-0.07788816840820267,0.1469345500854492,-0.4442442748091603,,,0.0008728076273514919,-0.0012745470556712719,3.140675050087913,0.012368198036754421,-0.01379637867541997,0.0007007748361212444,-0.0010863896451876916,3.140794550438605,,,,
2000-01-01 08:09:07.002200,-0.06112875678710905,0.12299253348388672,-0.6198167938931298,,,0.001049253149069163,-0.0014813976885747994,3.140527498068156,0.012936184123521032,-0.01516534875613622,0.0008694732045477304,-0.001274567952635626,3.1406887947690922,,,,
2000-01-01 08:09:07.015997,-0.015638925244140456,0.09426211356201175,-0.3297404580152672,,,0.0012270635322721801,-0.001704040064950291,3.1404480946076703,0.012887458877473406,-0.0161368218111653,0.0010479558579596195,-0.0014838067559849362,3.1405395392042803,,,,
2000-01-01 08:09:07.029505,-0.025215731884765447,-0.018265364465332,-0.3602748091603053,,,0.0012270635322721801,-0.001704040064950291,3.140363154540547,0.010309967101978726,-0.012909457448932241,0.0012220437745912914,-0.0017017881064490426,3.140461798058008,,,,
2000-01-01 08:09:07.043085,-0.0491577484863277,0.058349088659668036,-0.33737404580152675,,,0.001373145384147109,-0.0018864041158592414,3.1402831903950745,0.010756971104845041,-0.01342866893465733,0.0013620552213403007,-0.0018771011599526646,3.140376405990633,,,,
2000-01-01 08:09:07.056912,-0.08028237006835903,0.06792589530029303,-0.1923358778625954,,,0.0015339314747120853,-0.0020811153804195324,3.1402367747302327,0.011628443090311021,-0.014081994599320396,0.001510791498143302,-0.002062778912574073,3.140294988832221,,,,
2000-01-01 08:09:07.070468,-0.09704178168945266,0.05116648367919929,-0.398442748091603,,,0.001705870190616567,-0.0022774257093428054,3.1401425077289042,0.012684030601397053,-0.014481940302592526,0.0016684211693218155,-0.002253667766824733,3.1402494843612754,,,,
2000-01-01 08:09:07.083902,0.022668301318359507,0.029618668737792953,-0.11599999999999999,,,0.001705870190616567,-0.0022774257093428054,3.140115309147652,0.010147224481117642,-0.011585552242074021,0.0018388206139726849,-0.002448220639060551,3.1401560612797383,,,,
2000-01-01 08:09:07.096198,-0.06352295844726541,0.03919547537841794,-0.5358473282442748,,,0.001837552881857144,-0.002422860417757627,3.140000309166474,0.010709010927796756,-0.011827384958664458,0.0019635953328804327,-0.0025906816664169295,3.140131166133092,,,,
2000-01-01 08:09:07.109524,-0.03479253852539044,0.07271429862060552,-0.4595114503816794,,,0.001983431495611374,-0.002589974101567451,3.139893441110202,0.010947562232668136,-0.01254116286380894,0.002106295199355195,-0.0027482841066167234,3.1400065447283794,,,,
2000-01-01 08:09:07.122708,-0.013244723583984097,0.05356068533935554,-0.49004580152671756,,,0.0021271205136722837,-0.0027611418450882597,3.139780676865973,0.010898486829941705,-0.012982685967563624,0.002250631242690231,-0.002913630673104458,3.139900806731532,,,,
2000-01-01 08:09:07.136928,-0.05394615180664042,0.08707950858154301,-0.3755419847328244,,,0.002289653308964445,-0.002959337926251439,3.1396874734565365,0.011429969458441448,-0.013937957262137694,0.002405606418727733,-0.003098242910991939,3.1397791853380816,,,,
2000-01-01 08:09:07.150226,-0.07788816840820267,0.058349088659668036,-0.4213435114503817,,,0.002452093638487666,-0.0031511246264919906,3.139589678442973,0.012214925667477563,-0.014421666678004699,0.002557607999074066,-0.003283596996000445,3.1396920209876344,,,,
2000-01-01 08:09:07.162726,-0.03958094184570271,-0.018265364465332,-0.8106564885496184,,,0.002452093638487666,-0.0031511246264919906,3.139412826704556,0.009771940533982051,-0.01153733334240376,0.002710289327840137,-0.003463861640367604,3.1396001012490977,,,,
2000-01-01 08:09:07.176802,-0.06831136176757768,0.2570678264526367,-0.8717251908396946,,,0.0026000328794907267,-0.0033602162113302403,3.1391986732828645,0.010510305319434273,-0.014854857855658,0.002847835614250222,-0.0036262569548708356,3.1394009503439,,,,
2000-01-01 08:09:07.189976,0.0322451079589845,0.046378080358886686,-0.40607633587786257,,,0.0027302308694099123,-0.00355988866031525,3.139105297964474,0.009882281777974832,-0.015155528940139204,0.0029863077461699107,-0.0038219680949490784,3.1392005012902318,,,,
2000-01-01 08:09:07.203002,0.0035146880371095257,0.036801273718261696,-0.49767938931297706,,,0.0027302308694099123,-0.00355988866031525,3.1389921595095824,0.007905825422379865,-0.012124423152111364,0.003115026092992991,-0.004019371354057911,3.139108187141413,,,,
2000-01-01 08:09:07.216384,-0.03239833686523408,0.024830265417480457,-0.6121832061068702,,,0.0027302308694099123,-0.00355988866031525,3.138849172104289,0.0063246603379038925,-0.009699538521689092,0.0032208262290515342,-0.0041816271022677666,3.138991944350307,,,,
2000-01-01 08:09:07.229680,-0.03239833686523408,0.08468530692138676,-0.40607633587786257,,,0.002818211368115105,-0.0037009591493120716,3.1387549400773427,0.0066171798058186175,-0.010610178445506234,0.003304917456281062,-0.00431058993256566,3.1388498842023074,,,,
2000-01-01 08:09:07.246633,-0.07788816840820267,0.08947371024169926,-0.7114198473282443,-7.283545666666667,112.79661533333334,0.0029500116405557254,-0.0039025066653473653,3.1385444382858907,0.007774345843570731,-0.011888443510440551,0.0034171000268463677,-0.004490466727076647,3.138729730404955,-7.283564,112.796615,2.0389051665896387,0.05664488017429194
2000-01-01 08:09:07.262545,-0.09943598334960901,0.05356068533935554,-0.5587480916030534,-7.283545666666667,112.79661533333334,0.0030958685578128696,-0.004101255458784287,3.1383892686634507,0.00916671538672584,-0.01249082770397156,0.00016123386452191043,-0.00021309152587480062,3.1385321623939584,-7.283564,112.796615,2.0389051665896387,0.05664488017429194
2000-01-01 08:09:07.277226,-0.05634035346679678,0.027224467077636705,-0.7877557251908396,-7.283545666666667,112.79661533333334,0.0032396415863069476,-0.004286765696404982,3.138187411024366,0.009792671075679828,-0.012635476606556215,0.00014863545559352966,-0.00019923288643474966,3.1383889865756087,-7.283564,112.796615,2.0389051665896387,0.05664488017429194
2000-01-01 08:09:07.292700,-0.013244723583984097,0.06313749197998053,-0.6427175572519084,-7.283545666666667,112.79661533333334,0.003391188932629989,-0.004493190761733022,3.138013840637373,0.00979422858398616,-0.013340875471203899,0.00019780973271873542,-0.0002601390302527455,3.138176247613471,-7.283564,112.796615,2.0389051665896387,0.05664488017429194
2000-01-01 08:09:07.309510,-0.0012737152832027476,0.05356068533935554,-0.5358473282442748,-7.283545666666667,112.79661533333334,0.003552836124544226,-0.004727801813076178,3.137856626799798,0.00961603051661042,-0.013956487598292404,0.00026550219065308466,-0.00035483718981242033,3.1379876788023076,-7.283564,112.796615,2.0389051665896387,0.05664488017429194
2000-01-01 08:09:07.325111,-0.07070556342773404,0.08947371024169926,-0.8564580152671755,-7.283545666666667,112.79661533333334,0.003716640100321766,-0.004962597129230104,3.1376234169325565,0.010499314926106633,-0.015049634514505205,0.00032151106607040237,-0.0004430469232675235,3.137841769858665,-7.283564,112.796615,2.0389051665896387,0.05664488017429194
2000-01-01 08:09:07.342534,-0.23351127631835888,0.07271429862060552,-0.49004580152671756,-7.283545666666667,112.79661533333334,0.003965293568346612,-0.005241485069142279,3.1374743972066685,0.01427134157858308,-0.016006633988456184,0.00040264699872914186,-0.0005629535008034698,3.137581326573013,-7.283564,112.796615,2.0389051665896387,0.05664488017429194
2000-01-01 08:09:07.361587,-0.0491577484863277,0.07510850028076177,-0.49767938931297706,-7.283545666666667,112.79661533333334,0.004249127294101397,-0.00556713921953302,3.1373089075075096,0.01489772847458341,-0.01709277886636281,0.0005482877558386186,-0.0007053296998919048,3.1374183752151503,-7.283564,112.796615,2.0389051665896387,0.05664488017429194
2000-01-01 08:09:07.378915,0.015485696337890875,0.05116648367919929,-0.6274503816793893,-7.283545666666667,112.79661533333334,0.004497490148148481,-0.005872437291436488,3.137119145711672,0.014332917977986907,-0.01761862594234971,0.0006630148484328563,-0.0008233194935410808,3.1372678604694033,-7.283564,112.796615,2.0389051665896387,0.05664488017429194
2000-01-01 08:09:07.392072,-0.07788816840820267,0.10383892020263674,-0.5129465648854962,-7.283545666666667,112.79661533333334,0.0046954387923576184,-0.006117297665650132,3.13700135084229,0.015044426952016958,-0.018609796636993914,0.0007066975425310262,-0.0008755963264992867,3.1371237705372095,-7.283564,112.796615,2.0389051665896387,0.05664488017429194
2000-01-01 08:09:07.404619,-0.08028237006835903,0.06553169364013678,-0.596916030534351,-7.283545666666667,112.79661533333334,0.004892750273303862,-0.006356277106538618,3.1368706428384945,0.0157268152174213,-0.019047981848759388,0.0007478966384842264,-0.000926324525399314,3.137011449510264,-7.283564,112.796615,2.0389051665896387,0.05664488017429194
2000-01-01 08:09:07.417406,-0.04676354682617179,0.0918679119018555,-0.5053129770992366,-7.283545666666667,112.79661533333334,0.005097260682224722,-0.006609743710985711,3.1367578633168565,0.015992744100053143,-0.019821125800987424,0.0007959031533487153,-0.0009811509344217757,3.13687822533548,-7.283564,112.796615,2.0389051665896387,0.05664488017429194
2000-01-01 08:09:07.430737,-0.05155195014648406,0.0320128703979492,-0.5663816793893129,-7.283545666666667,112.79661533333334,0.005315141380718283,-0.006874308234022498,3.1366260863658773,0.016344282818205744,-0.019846261821603036,0.0008482688101912079,-0.00104689664484229,3.1367606569079767,-7.283564,112.796615,2.0389051665896387,0.05664488017429194
2000-01-01 08:09:07.446969,0.029850906298828583,0.046378080358886686,-0.27630534351145036,-7.283545666666667,112.79661533333334,0.005567369707618864,-0.007201948813135542,3.136547807911544,0.015538828339623438,-0.02018469050837083,0.0009355222340505212,-0.0011501310178845137,3.1366001986198317,-7.283564,112.796615,2.0389051665896387,0.05664488017429194
2000-01-01 08:09:07.461783,-0.13534900825195306,0.09905051688232425,-0.7495877862595419,-7.283545666666667,112.79661533333334,0.005821953060346349,-0.007516436778102519,3.136354000992489,0.017185437516952125,-0.021229248550115046,0.000979491247292503,-0.001217696011874226,3.136528759505793,-7.283564,112.796615,2.0389051665896387,0.05664488017429194
2000-01-01 08:09:07.477091,-0.13056060493164034,0.25946202811279295,-0.7724885496183207,-7.283545666666667,112.79661533333334,0.00610942235885012,-0.007894659154892604,3.136147612666673,0.018779142581558748,-0.02470765392424639,0.0010434600738776034,-0.001295472048426756,3.1363284896528163,-7.283564,112.796615,2.0389051665896387,0.05664488017429194
2000-01-01 08:09:07.491755,-0.13774320991210898,0.06792589530029303,-0.5358473282442748,-7.283545666666667,112.79661533333334,0.0064082452715701725,-0.00826420957276357,3.136010467803031,0.0203775883542937,-0.02520069904608235,0.0011073214579184773,-0.001391977256375735,3.136130778791498,-7.283564,112.796615,2.0389051665896387,0.05664488017429194
2000-01-01 08:09:07.505921,-0.17365623481445303,0.048772282019043045,-0.5892824427480916,-7.283545666666667,112.79661533333334,0.006725245701843029,-0.008623859189429456,3.135864767990085,0.022376993044113995,-0.02538759005318566,0.001172133018705501,-0.0014684903661434411,3.1359982907860373,-7.283564,112.796615,2.0389051665896387,0.05664488017429194
2000-01-01 08:09:07.520977,-0.17126203315429667,-0.011082759484863258,-0.7572213740458016,-7.283545666666667,112.79661533333334,0.007093453104547783,-0.008996193370863749,3.1356657986440526,0.024457190985876516,-0.0247313012150664,0.0012659338226353111,-0.0015524344778635115,3.1358434494856184,-7.283564,112.796615,2.0389051665896387,0.05664488017429194
2000-01-01 08:09:07.535036,-0.10422438666992173,0.036801273718261696,-0.17706870229007632,-7.283545666666667,112.79661533333334,0.007450570462305173,-0.009344190384510271,3.135622349687808,0.02540099819583768,-0.02475228751495572,0.0013506455085637871,-0.0015940085059886477,3.1356576431973098,-7.283564,112.796615,2.0389051665896387,0.05664488017429194
2000-01-01 08:09:07.549248,-0.11140699165039036,0.096656315222168,-0.3526412213740458,-7.283545666666667,112.79661533333334,0.007826292228345522,-0.009708206579347484,3.1355348768321933,0.026436471866367425,-0.02561284642924487,0.0014357990866951807,-0.001631950203574562,3.1356137212049546,-7.283564,112.796615,2.0389051665896387,0.05664488017429194
2000-01-01 08:09:07.562918,0.04182191459960949,0.13496354178466796,-0.6198167938931298,-7.283545666666667,112.79661533333334,0.008172646980811967,-0.010076009051114367,3.135386993388455,0.025336248069570855,-0.026905173377662517,0.0015079788795604638,-0.0016629108899677877,3.135529583765094,-7.283564,112.796615,2.0389051665896387,0.05664488017429194
2000-01-01 08:09:07.577881,-0.12098379829101535,0.12538673514404297,-0.6427175572519084,-7.283545666666667,112.79661533333334,0.008570538229381057,-0.010498217035979984,3.1352191463658925,0.0265918331305204,-0.02821696712429766,0.0015817712159891459,-0.0017312568695382687,3.1353677173243604,-7.283564,112.796615,2.0389051665896387,0.05664488017429194
2000-01-01 08:09:07.592914,-0.15210841987304669,0.12538673514404297,-1.0091297709923663,-7.283545666666667,112.79661533333334,0.008995775456304277,-0.010941885588997058,3.1349543901723003,0.028288474957501114,-0.0295146002203622,0.0016597977568925024,-0.0018054264872749835,3.1351990933684486,-7.283564,112.796615,2.0389051665896387,0.05664488017429194
2000-01-01 08:09:07.606739,-0.09464758002929674,-0.013476961145019506,-0.764854961832061,-7.283545666666667,112.79661533333334,0.009396795926594705,-0.011339369319183659,3.1347698329959925,0.029006281743841827,-0.028750465177091275,0.0017188312548508968,-0.0018550262692748213,3.134955593423549,-7.283564,112.796615,2.0389051665896387,0.05664488017429194
2000-01-01 08:09:07.621181,-0.0730997650878904,0.10623312186279299,-0.5205801526717557,-7.283545666666667,112.79661533333334,0.009822108429197004,-0.01176808820769623,3.1346386177941206,0.029450248970908324,-0.029686120036383025,0.001791096200696668,-0.0019019765228111408,3.1347628073603375,-7.283564,112.796615,2.0389051665896387,0.05664488017429194
2000-01-01 08:09:07.635155,-0.09225337836914038,0.05116648367919929,-0.5740152671755725,-7.283545666666667,112.79661533333334,0.010243024476954358,-0.012184565929095977,3.1344986120122704,0.030119677942708045,-0.029802082637877102,0.001845990256083502,-0.0019415990654086525,3.1346358347248375,-7.283564,112.796615,2.0389051665896387,0.05664488017429194
2000-01-01 08:09:07.648540,-0.06112875678710905,0.06313749197998053,-0.29920610687022897,-7.283545666666667,112.79661533333334,0.010648756985705525,-0.01258664149216316,3.1344287153469446,0.03031315712439639,-0.030039938768156776,0.0018862556463527032,-0.0019627869234032716,3.134501740693665,-7.283564,112.796615,2.0389051665896387,0.05664488017429194
2000-01-01 08:09:07.661879,-0.06831136176757768,0.09905051688232425,-0.2839389312977099,-7.283545666666667,112.79661533333334,0.011056793623195312,-0.012996677229417247,3.1343626132360014,0.030590469480127686,-0.030740341807043662,0.0019220477632303713,-0.001983138979495411,3.1344320843236106,-7.283564,112.796615,2.0389051665896387,0.05664488017429194
2000-01-01 08:09:07.675939,-0.09464758002929674,0.06313749197998053,-0.23050381679389312,-7.283545666666667,112.79661533333334,0.011496536822859291,-0.013432604005675735,3.134306049542715,0.03127640743958402,-0.03100496716834536,0.0019733554916023274,-0.002026335462189762,3.134362408103731,-7.283564,112.796615,2.0389051665896387,0.05664488017429194
2000-01-01 08:09:07.690339,-0.12098379829101535,0.14932875174560545,-0.5663816793893129,-7.283545666666667,112.79661533333334,0.011962293354064003,-0.013900698371959888,3.13416369517761,0.0323425850873007,-0.03250492662179573,0.0020328083290729495,-0.0020739065078021167,3.1343044732769387,-7.283564,112.796615,2.0389051665896387,0.05664488017429194
2000-01-01 08:09:07.705353,-0.12577220161132807,0.13256934012451171,-0.49004580152671756,-7.283545666666667,112.79661533333334,0.012465728960817045,-0.014408455374525371,3.134035283337076,0.03353149357492092,-0.033819321559226935,0.002110673370803088,-0.00214713305018122,3.134156058345786,-7.283564,112.796615,2.0389051665896387,0.05664488017429194
2000-01-01 08:09:07.720607,-0.10183018500976537,-0.03741897774658198,-0.4671450381679389,-7.283545666666667,112.79661533333334,0.012990266037540948,-0.014905656672105949,3.1339109159096252,0.03438734520782411,-0.03259527956434778,0.0021960990607287232,-0.0022302947732124193,3.1340255940773267,-7.283564,112.796615,2.0389051665896387,0.05664488017429194
2000-01-01 08:09:07.735121,-0.11619539497070264,0.14454034842529295,-0.7343206106870228,-7.283545666666667,112.79661533333334,0.013503124287508187,-0.015399300253835482,3.1337249033986883,0.03533607243154978,-0.03401217658188925,0.002257508289501101,-0.002264239806787251,3.133907260449948,-7.283564,112.796615,2.0389051665896387,0.05664488017429194
2000-01-01 08:09:07.748778,-0.19759825141601528,-0.035024776086425735,-0.47477862595419845,-7.283545666666667,112.79661533333334,0.014012242945705035,-0.015848415588268997,3.133611731613243,0.037277722634784315,-0.0328842728477804,0.0022968759380545475,-0.002287293516725377,3.1337322222952,-7.283564,112.796615,2.0389051665896387,0.05664488017429194
2000-01-01 08:09:07.762213,-0.1784446381347653,0.08229110526123051,-0.5358473282442748,-7.283545666666667,112.79661533333334,0.014534474211489498,-0.016296171291768698,3.133486088977481,0.038872660733386084,-0.03332901856696974,0.002346842887044293,-0.002289098226656699,3.133620898724429,-7.283564,112.796615,2.0389051665896387,0.05664488017429194
2000-01-01 08:09:07.776201,-0.16168522651367168,0.07510850028076177,-0.7495877862595419,-7.283545666666667,112.79661533333334,0.015098238638878927,-0.016767716873311515,3.1333030853265904,0.04030303803201257,-0.03371039140364184,0.002425036524464198,-0.0023113136498526046,3.133490077466151,-7.283564,112.796615,2.0389051665896387,0.05664488017429194
2000-01-01 08:09:07.789946,-0.10422438666992173,0.024830265417480457,-2.1007328244274808,-7.283545666666667,112.79661533333334,0.015660393227673878,-0.017226576347082953,3.1327991176734793,0.04089792618471198,-0.03338298977099562,0.0025001601501958045,-0.0023284452327789577,3.133310250696631,-7.283564,112.796615,2.0389051665896387,0.05664488017429194
2000-01-01 08:09:07.804473,-0.037186740185546796,0.07032009696044927,-0.27630534351145036,-7.283545666666667,112.79661533333334,0.016250180198735174,-0.017716428958700056,3.1327290640188097,0.04060046696762249,-0.03372106498245608,0.0025958913124180948,-0.002360007141074502,3.132777636994827,-7.283564,112.796615,2.0389051665896387,0.05664488017429194
2000-01-01 08:09:07.819489,-0.08507077338867175,0.08229110526123051,-0.29920610687022897,-7.283545666666667,112.79661533333334,0.016866312043943885,-0.018231036830358108,3.1326506443416564,0.04102951913767203,-0.03426882360128364,0.002687570163031343,-0.002403014710518868,3.132705219436039,-7.283564,112.796615,2.0389051665896387,0.05664488017429194
2000-01-01 08:09:07.833751,0.04182191459960949,0.1014447185424805,-0.14653435114503816,-7.283545666666667,112.79661533333334,0.017431243104431532,-0.018730139828216662,3.1326141698878662,0.03961169893222082,-0.034995982820056164,0.002744440113665659,-0.002424838961784393,3.132630742842438,-7.283564,112.796615,2.0389051665896387,0.05664488017429194
2000-01-01 08:09:07.847501,-0.14732001655273397,0.13017513846435547,-0.10073282442748091,-7.283545666666667,112.79661533333334,0.017992096505281937,-0.01922608185949352,3.1325899954016956,0.040788758292088216,-0.03606799853574326,0.0027595286937059,-0.0024381382858511846,3.1325955766226343,-7.283564,112.796615,2.0389051665896387,0.05664488017429194
2000-01-01 08:09:07.860747,-0.211963461376953,0.1373577434448242,-0.3755419847328244,-7.283545666666667,112.79661533333334,0.01855779005328379,-0.019718215775021683,3.1325031779709263,0.04270809113612169,-0.037154569271283695,0.0027707516857272147,-0.002448386170815625,3.132572289306258,-7.283564,112.796615,2.0389051665896387,0.05664488017429194
2000-01-01 08:09:07.877136,-0.18562724311523393,0.11820413016357423,-0.34500763358778624,-7.283545666666667,112.79661533333334,0.019292308910596502,-0.020346526174738647,3.132404491219281,0.04481776218244164,-0.03833729493929279,0.002908369907032947,-0.0025619268460730905,3.1324648684408287,-7.283564,112.796615,2.0389051665896387,0.05664488017429194
2000-01-01 08:09:07.895600,-0.17126203315429667,0.20918379324951175,-0.482412213740458,-7.283547,112.79661666666667,0.020159841495712406,-0.02111065285772886,3.1322490294757683,0.046984858631811094,-0.04138447914586769,0.038533615454896766,-0.002731623587101677,3.1323536865786887,-7.283564,112.796617,1.8906712605354095,0.05228758169934641
2000-01-01 08:09:07.911234,-0.118589596630859,0.21397219656982425,-0.7419541984732825,-7.283547,112.79661666666667,0.020907641977839744,-0.021796254112219374,3.132046572446984,0.0478307671122931,-0.04385238405054638,0.06933576958471224,-0.00282316422967209,3.1322220507666074,-7.283564,112.796617,1.8906712605354095,0.05228758169934641
2000-01-01 08:09:07.927800,-0.14732001655273397,0.1373577434448242,-0.32210687022900764,-7.283547,112.79661666666667,0.021723424013727836,-0.022545507037151368,3.131953441072561,0.04924424472537988,-0.04522825065201514,0.09523670080389936,-0.002963111027256857,3.1320075281325086,-7.283564,112.796617,1.8906712605354095,0.05228758169934641
2000-01-01 08:09:07.942189,-0.13534900825195306,0.1565113567260742,-0.5434809160305343,-7.283547,112.79661666666667,0.02244497461759453,-0.023215300076389587,3.131816954530651,0.050146269504494266,-0.04654922617746074,0.11659794430997505,-0.0030205388611145812,3.131926636142475,-7.283564,112.796617,1.8906712605354095,0.05228758169934641
2000-01-01 08:09:07.956791,-0.15929102485351532,0.17327076834716804,-0.5282137404580153,-7.283547,112.79661666666667,0.023195493285115176,-0.023917954638800407,3.131682337086169,0.05139811821695485,-0.04812021849340681,0.1344075219520564,-0.0030944365789569335,3.131788127795499,-7.283564,112.796617,1.8906712605354095,0.05228758169934641
2000-01-01 08:09:07.972927,-0.12098379829101535,0.1517229534057617,-0.45187786259541984,-7.283547,112.79661666666667,0.024038717019909808,-0.024717886755264817,3.131555080687742,0.05225906413913238,-0.04957605206813458,0.14943988115128784,-0.0032345186826094677,3.131639373931293,-7.283564,112.796617,1.8906712605354095,0.05228758169934641
2000-01-01 08:09:07.986869,-0.07788816840820267,0.1565113567260742,-0.5740152671755725,-7.283547,112.79661666666667,0.02476731213652445,-0.025425253863894954,3.1314153961707265,0.05225631689461818,-0.05073380118323889,0.16179635786956273,-0.003285210949396671,3.131529411105222,-7.283564,112.796617,1.8906712605354095,0.05228758169934641
2000-01-01 08:09:08.001013,-0.06831136176757768,0.12538673514404297,-0.4671450381679389,-7.283547,112.79661666666667,0.02550475376480804,-0.02615317162379392,3.1313000813872627,0.05214008919585283,-0.05146671339495072,0.17210064526229682,-0.0033521238381713477,3.131387715398683,-7.283564,112.796617,1.8906712605354095,0.05228758169934641
2000-01-01 08:09:08.016069,-0.07788816840820267,0.05356068533935554,0.013770992366412216,-7.283547,112.79661666666667,0.02629124202702603,-0.02692462100099113,3.131303700030262,0.0522383091312376,-0.051239431001144545,0.18076972553640558,-0.00345571567191166,3.13126496236265,-7.283564,112.796617,1.8906712605354095,0.05228758169934641
2000-01-01 08:09:08.030192,-0.14013741157226534,0.07032009696044927,-2.039664122137405,-7.283547,112.79661666666667,0.02704153505570815,-0.02764788429682131,3.1308009090201043,0.053122613313304874,-0.05120884097188037,0.1879498640671104,-0.0035024455471457864,3.1312683570054674,-7.283564,112.796617,1.8906712605354095,0.05228758169934641
2000-01-01 08:09:08.045467,-0.13774320991210898,0.13975194510498046,0.12064122137404582,-7.283547,112.79661666666667,0.02786786454301567,-0.02844670879167071,3.1308330703514784,0.05409938459270865,-0.052298646281820266,0.19403826775713107,-0.003589107679203228,3.1307246099099357,-7.283564,112.796617,1.8906712605354095,0.05228758169934641
2000-01-01 08:09:08.060040,-0.24069388129882796,0.12778093680419922,-0.4213435114503817,-7.283547,112.79661666666667,0.028690281056666447,-0.02922074341299559,3.1307259040024866,0.056434809693102585,-0.05311480961931576,0.19910240729635223,-0.0036464946591852326,3.130755294325101,-7.283564,112.796617,1.8906712605354095,0.05228758169934641
2000-01-01 08:09:08.073917,-0.03239833686523408,0.11580992850341798,-0.6274503816793893,-7.283547,112.79661666666667,0.029463645624740825,-0.029965006269441097,3.1305739342541155,0.05572933770866133,-0.05363224251938531,0.2033213775783606,-0.003676691760970902,3.1306532440765356,-7.283564,112.796617,1.8906712605354095,0.05228758169934641
2000-01-01 08:09:08.088100,-0.10422438666992173,0.08468530692138676,-0.2228702290076336,-7.283547,112.79661666666667,0.030258636681049878,-0.030727408564969024,3.1305187629193223,0.056050330600794965,-0.05375268108492135,0.2068587478907273,-0.003723087110044994,3.130497919270581,-7.283564,112.796617,1.8906712605354095,0.05228758169934641
2000-01-01 08:09:08.102614,-0.17365623481445303,0.060743290319824284,0.13590839694656492,-7.283547,112.79661666666667,0.031091581434314824,-0.03150489851797103,3.1305531904833175,0.057389647894443216,-0.053568828507956676,0.2098433388419984,-0.0037785364636113445,3.130441463015896,-7.283564,112.796617,1.8906712605354095,0.05228758169934641
2000-01-01 08:09:08.116209,-0.128166403271484,0.07032009696044927,0.03667175572519085,-7.283547,112.79661666666667,0.03187923978925376,-0.03223157330295365,3.130561891627777,0.05793894403286215,-0.0534530858883152,0.2123087245819758,-0.0037847036474963195,3.1304737101382853,-7.283564,112.796617,1.8906712605354095,0.05228758169934641
2000-01-01 08:09:08.129980,-0.192809848095703,0.06553169364013678,-0.3602748091603053,-7.283547,112.79661666666667,0.03269688078856881,-0.032965552704328084,3.130475297224742,0.059372331293181715,-0.05329731290050307,0.2143897055099035,-0.0037980824093800337,3.1304825244342465,-7.283564,112.796617,1.8906712605354095,0.05228758169934641
2000-01-01 08:09:08.145106,-0.15689682319335896,0.058349088659668036,0.04430534351145041,-7.283547,112.79661666666667,0.03361200168083256,-0.03376906383959565,3.1304869935769264,0.06050085462162947,-0.05312206375425255,0.2162256600559461,-0.003865324449090038,3.130387413986676,-7.283564,112.796617,1.8906712605354095,0.05228758169934641
2000-01-01 08:09:08.160671,-0.13056060493164034,0.08229110526123051,0.15117557251908398,-7.283547,112.79661666666667,0.03456566116072796,-0.03459926659463495,3.1305280627368677,0.06126839453114736,-0.053336847175442334,0.21780525985131177,-0.003936041113399129,3.130399450211898,-7.283564,112.796617,1.8906712605354095,0.05228758169934641
2000-01-01 08:09:08.175179,-0.10183018500976537,0.10383892020263674,-0.3068396946564885,-7.283547,112.79661666666667,0.0354574857634707,-0.03537921413962562,3.130450370913711,0.06147422262986894,-0.05376244260689856,0.2190834803079794,-0.003951941438864211,3.130437727873004,-7.283564,112.796617,1.8906712605354095,0.05228758169934641
2000-01-01 08:09:08.189837,0.0322451079589845,0.1421461467651367,-0.3602748091603053,-7.283547,112.79661666666667,0.0363334757307752,-0.036181401032285836,3.1303581965938094,0.05975860554173295,-0.0547238802708417,0.22016556890248964,-0.0039771545972641514,3.1303592246319925,-7.283564,112.796617,1.8906712605354095,0.05228758169934641
2000-01-01 08:09:08.204740,-0.09464758002929674,0.08229110526123051,-0.5434809160305343,-7.283547,112.79661666666667,0.03722660990724903,-0.0369987549020743,3.130216838722914,0.059931945971488425,-0.05484686316354952,0.22106387427265334,-0.004020520181185273,3.1302655181586685,-7.283564,112.796617,1.8906712605354095,0.05228758169934641
2000-01-01 08:09:08.218965,-0.06352295844726541,0.07989690360107427,-0.09309923664122136,-7.283547,112.79661666666667,0.0380745286129415,-0.03777935436866652,3.130193724097097,0.059606117755834805,-0.054873779070411216,0.2217849620917216,-0.004028985894067597,3.1301305830242256,-7.283564,112.796617,1.8906712605354095,0.05228758169934641
2000-01-01 08:09:08.232481,-0.05394615180664042,0.05356068533935554,-0.016763358778625947,-7.283547,112.79661666666667,0.03887361847231843,-0.038515910227024885,3.1301897695527403,0.05912042887459507,-0.05449386915032969,0.22235109519917773,-0.004007118896291505,3.130108620536532,-7.283564,112.796617,1.8906712605354095,0.05228758169934641
2000-01-01 08:09:08.247078,-0.11140699165039036,0.09426211356201175,-0.03203053435114503,-7.283547,112.79661666666667,0.039742329223236804,-0.039315351853492574,3.1301816097047936,0.05951612971725253,-0.05477044170562293,0.22287407766859602,-0.004032643260345433,3.1301043500346033,-7.283564,112.796617,1.8906712605354095,0.05228758169934641
2000-01-01 08:09:08.263001,-0.11380119331054672,0.07032009696044927,-0.19996946564885495,-7.283547,112.79661666666667,0.04069911921464455,-0.040187809624317644,3.1301260367702,0.06008891283469444,-0.05479262890901,0.22338163965003927,-0.0041136421042834714,3.130095448521641,-7.283564,112.796617,1.8906712605354095,0.05228758169934641
2000-01-01 08:09:08.278247,-0.0730997650878904,0.09905051688232425,-0.5511145038167939,-7.283547,112.79661666666667,0.041613353830979506,-0.04102927462269159,3.129979380764512,0.0599621252264607,-0.05518936682626785,0.22377979728713104,-0.004149777474177407,3.130042235037168,-7.283564,112.796617,1.8906712605354095,0.05228758169934641
2000-01-01 08:09:08.292640,-0.109012789990234,-0.04220738106689448,-0.4671450381679389,-7.283547,112.79661666666667,0.042481312283520214,-0.04179938048021088,3.1298620375434276,0.06030732138929192,-0.05350834630072802,0.22406989703400537,-0.004147362697919846,3.129903799335661,-7.283564,112.796617,1.8906712605354095,0.05228758169934641
2000-01-01 08:09:08.306822,-0.13534900825195306,0.058349088659668036,-0.3297404580152672,-7.283547,112.79661666666667,0.04334602382346758,-0.04255487250706687,3.1297804194934735,0.06097259022833893,-0.053271297590258775,0.22430785972697972,-0.004117173827293391,3.1297881706157566,-7.283564,112.796617,1.8906712605354095,0.05228758169934641
2000-01-01 08:09:08.322161,-0.16168522651367168,0.03440707205810545,-2.085465648854962,-7.283547,112.79661666666667,0.04429976626879248,-0.043364059754379555,3.129222101904624,0.06217706379526556,-0.052753117306566816,0.22457240132602196,-0.0041380330589280544,3.1296998930181053,-7.283564,112.796617,1.8906712605354095,0.05228758169934641
2000-01-01 08:09:08.336606,-0.14492581489257805,0.08707950858154301,0.250412213740458,-7.283547,112.79661666666667,0.04520939231477759,-0.04412903096499409,3.1292852358850496,0.06296984020366114,-0.05295595382895102,0.22476432003431307,-0.004110840966409336,3.129174104976512,-7.283564,112.796617,1.8906712605354095,0.05228758169934641
2000-01-01 08:09:08.350896,-0.19041564643554665,0.08229110526123051,-0.02439694656488549,-7.283547,112.79661666666667,0.046129133205666195,-0.044887571441221935,3.129279151112951,0.06436266544789332,-0.0530820010111428,0.22492780740474136,-0.004084871854936492,3.1292365595647222,-7.283564,112.796617,1.8906712605354095,0.05228758169934641
2000-01-01 08:09:08.365643,-0.192809848095703,0.08947371024169926,-0.3602748091603053,-7.283547,112.79661666666667,0.04710011980529788,-0.04567426176984363,3.129186425847469,0.06584554782916333,-0.05334785843558372,0.22510578639534462,-0.0040843578918332585,3.129230280431989,-7.283564,112.796617,1.8906712605354095,0.05228758169934641
2000-01-01 08:09:08.379834,-0.13534900825195306,0.10623312186279299,-0.5282137404580153,-7.283547,112.79661666666667,0.0480423193522635,-0.04643750061146938,3.1290555944533596,0.06639234125692774,-0.05378182763614525,0.22524443465879257,-0.004064062164315369,3.129141045238099,-7.283564,112.796617,1.8906712605354095,0.05228758169934641
2000-01-01 08:09:08.399173,-0.12098379829101535,0.07510850028076177,-0.7572213740458016,-7.283547,112.79661666666667,0.04934456944067885,-0.047484863990762176,3.1288000137185534,0.06733897678953141,-0.05415885851405496,0.22563632385330726,-0.004267531062646193,3.1289627601809835,-7.283564,112.796617,1.8906712605354095,0.05228758169934641
2000-01-01 08:09:08.414521,-0.08267657172851539,0.048772282019043045,-0.47477862595419845,-7.283547,112.79661666666667,0.05037639441029415,-0.04831100447901661,3.128672828692399,0.06722620206686176,-0.05382529889707468,0.22575740771179661,-0.004265961759851698,3.1287599136015505,-7.283564,112.796617,1.8906712605354095,0.05228758169934641
2000-01-01 08:09:08.427150,-0.10183018500976537,0.05116648367919929,-0.42897709923664123,-7.283547,112.79661666666667,0.05122423528756373,-0.04898538103547751,3.1285782734432073,0.06713363821174606,-0.05339840643887041,0.22571512795129528,-0.004147784808944235,3.12865526276735,-7.283564,112.796617,1.8906712605354095,0.05228758169934641
2000-01-01 08:09:08.439636,-0.15450262153320304,0.08947371024169926,-0.398442748091603,-7.283547,112.79661666666667,0.052069115804931274,-0.04965274941041353,3.1284914450394137,0.06766697664703249,-0.053449924946154644,0.22567800301248034,-0.004044270792894554,3.128561780336137,-7.283564,112.796617,1.8906712605354095,0.05228758169934641
2000-01-01 08:09:08.454745,-0.128166403271484,0.046378080358886686,-0.2915725190839694,-7.283547,112.79661666666667,0.053099561531834795,-0.050454909404917245,3.128414558345697,0.06820212297732127,-0.05309257262585761,0.22579761599592307,-0.0040721993972548005,3.128456712322072,-7.283564,112.796617,1.8906712605354095,0.05228758169934641
2000-01-01 08:09:08.467407,-0.118589596630859,0.06553169364013678,-0.23050381679389312,-7.283547,112.79661666666667,0.05396438888733759,-0.05112428635792364,3.128363616827329,0.06829879187525478,-0.05286331070424631,0.2257726365620122,-0.003988886730292791,3.128392274574172,-7.283564,112.796617,1.8906712605354095,0.05228758169934641
2000-01-01 08:09:08.484700,-0.2382996796386716,0.14454034842529295,-0.49767938931297706,-7.283547,112.79661666666667,0.055191058535702255,-0.05206341008263507,3.128213414793235,0.0709379817977004,-0.05430927697459697,0.22600526537664267,-0.004110981799414121,3.1283227074132802,-7.283564,112.796617,1.8906712605354095,0.05228758169934641
2000-01-01 08:09:08.498269,-0.16168522651367168,0.11820413016357423,-0.764854961832061,-7.283547,112.79661666666667,0.056163272900064565,-0.05280733608586246,3.128032274252043,0.07164779487124943,-0.05482397671997502,0.22602412469820632,-0.004070661711678307,3.128204842042172,-7.283564,112.796617,1.8906712605354095,0.05228758169934641
2000-01-01 08:09:08.513559,-0.19759825141601528,-0.044601582727050726,-0.7037862595419848,-7.283547,112.79661666666667,0.05728223076947216,-0.053619210394003844,3.127844466846004,0.07318451040071977,-0.053099965041317164,0.22614772591344684,-0.004118749510916975,3.1280007382756807,-7.283564,112.796617,1.8906712605354095,0.05228758169934641
2000-01-01 08:09:08.530173,-0.14971421821289033,0.07989690360107427,-0.8411908396946566,-7.283547,112.79661666666667,0.058514035077560304,-0.05450597658674942,3.127600539410258,0.07414006639207482,-0.053372848246038135,0.22634480933824835,-0.004189699222084665,3.127796655243029,-7.283564,112.796617,1.8906712605354095,0.05228758169934641
2000-01-01 08:09:08.545114,-0.18083883979492166,0.06313749197998053,-0.9404274809160305,-7.283547,112.79661666666667,0.059638976021127735,-0.05530185101227533,3.1273553028905625,0.07529172696164103,-0.05326747175938171,0.22642103817243003,-0.004179584998906759,3.1275772967936932,-7.283564,112.796617,1.8906712605354095,0.05228758169934641
2000-01-01 08:09:08.560910,-0.15210841987304669,0.05116648367919929,-0.5663816793893129,-7.283547,112.79661666666667,0.0608415225891155,-0.05613949111256798,3.127199154050218,0.07612892625799754,-0.05302800167865896,0.22654973299074713,-0.004205180401307218,3.127318025235455,-7.283564,112.796617,1.8906712605354095,0.05228758169934641
2000-01-01 08:09:08.575760,-0.1688678314941403,0.036801273718261696,-0.7343206106870228,-7.283547,112.79661666666667,0.061985793506223276,-0.056919686935150225,3.1270088330770154,0.0770557932842385,-0.052538788784458244,0.22661032703157366,-0.004183023481024197,3.1271712306189663,-7.283564,112.796617,1.8906712605354095,0.05228758169934641
2000-01-01 08:09:08.590567,0.05139872124023448,0.08468530692138676,-1.0243969465648854,-7.283547,112.79661666666667,0.06309260804861119,-0.0577000860228809,3.126744101765365,0.07475068695085359,-0.05270563917404884,0.2266710859555157,-0.004157383827895035,3.12698146271787,-7.283564,112.796617,1.8906712605354095,0.05228758169934641
2000-01-01 08:09:08.605888,0.03463930961914086,0.05595488699951179,-0.7114198473282443,-7.283547,112.79661666666667,0.06420683278023873,-0.058504215837293976,3.126553860627023,0.07272298599138355,-0.05248377600037349,0.22672409408709207,-0.004159701127402125,3.126707528216379,-7.283564,112.796617,1.8906712605354095,0.05228758169934641
2000-01-01 08:09:08.622616,-0.2478764862792966,0.003282450476074228,-0.581648854961832,-7.283547,112.79661666666667,0.06546694123803895,-0.0593665230498271,3.126384046385048,0.07533071000962549,-0.05154970126931653,0.2268205365687278,-0.004215123558700897,3.126499826918475,-7.283564,112.796617,1.8906712605354095,0.05228758169934641
2000-01-01 08:09:08.635920,-0.10183018500976537,0.012859257116699219,-0.18470229007633587,-7.283547,112.79661666666667,0.06646667808895396,-0.06004109298825527,3.126341160708339,0.07514897842666445,-0.05070658514169771,0.2267334827962724,-0.00410905059850253,3.1263647749668086,-7.283564,112.796617,1.8906712605354095,0.05228758169934641
2000-01-01 08:09:08.649352,-0.05873455512695269,0.08468530692138676,-0.32210687022900764,-7.283547,112.79661666666667,0.06746608309688408,-0.06072371877272162,3.126265645522826,0.07440199542742859,-0.05081895737114608,0.22667236033353766,-0.004020333198289524,3.1263214731033933,-7.283564,112.796617,1.8906712605354095,0.05228758169934641
2000-01-01 08:09:08.663945,-0.07070556342773404,0.10623312186279299,-0.8793587786259542,-7.283547,112.79661666666667,0.06854450844607879,-0.06147287272977105,3.1260416800289366,0.07390136269560821,-0.05133734878923404,0.2266846109588119,-0.0039963220858299205,3.1262394351161356,-7.283564,112.796617,1.8906712605354095,0.05228758169934641
2000-01-01 08:09:08.678629,-0.23111707465820297,0.096656315222168,-0.9709618320610687,-7.283547,112.79661666666667,0.06965645882902087,-0.06223281212573463,3.125792842590239,0.07572673148950312,-0.051753861925174366,0.22669456852445669,-0.0039866231100657585,3.126014073645742,-7.283564,112.796617,1.8906712605354095,0.05228758169934641
2000-01-01 08:09:08.693119,-0.08267657172851539,0.07989690360107427,-0.764854961832061,-7.283547,112.79661666666667,0.07074855896324313,-0.06298445001636373,3.125599408846314,0.07536794585685153,-0.05187198688995195,0.22671432616000323,-0.003976028752086718,3.125768514955851,-7.283564,112.796617,1.8906712605354095,0.05228758169934641
2000-01-01 08:09:08.707752,-0.05394615180664042,0.04158967703857419,-0.4213435114503817,-7.283547,112.79661666666667,0.07184057956686694,-0.06373724825707182,3.125491796284999,0.07462451852652464,-0.05144335745501043,0.22673566116887506,-0.003974879665863067,3.125573168405494,-7.283564,112.796617,1.8906712605354095,0.05228758169934641
2000-01-01 08:09:08.722024,-0.06831136176757768,0.06553169364013678,-0.27630534351145036,-7.283547,112.79661666666667,0.07289773178377239,-0.06447005625851616,3.12542297114762,0.0740725147964915,-0.051346372510921764,0.22672356231568622,-0.003954296620566055,3.1254682155852165,-7.283564,112.796617,1.8906712605354095,0.05228758169934641
2000-01-01 08:09:08.736745,-0.2478764862792966,0.05116648367919929,-0.49004580152671756,-7.283547,112.79661666666667,0.07401877758785191,-0.06522251488412027,3.1252970664706563,0.07615449363059713,-0.05111575762767954,0.22673380539968288,-0.003954594011645294,3.1253972260268736,-7.283564,112.796617,1.8906712605354095,0.05228758169934641
2000-01-01 08:09:08.750467,-0.14971421821289033,0.10383892020263674,-0.7495877862595419,-7.283547,112.79661666666667,0.07507021903916626,-0.0659295392949308,3.1251175375825015,0.07662149513979395,-0.05152285692076855,0.22670861942325074,-0.003912077375416274,3.125279858348924,-7.283564,112.796617,1.8906712605354095,0.05228758169934641
2000-01-01 08:09:08.764376,-0.17365623481445303,0.06553169364013678,-1.1847022900763358,-7.283547,112.79661666666667,0.07614732320230509,-0.0666447990152303,3.124829947103044,0.07744079365536537,-0.05142518458780499,0.22670660530343023,-0.003890354001879959,3.1250978933838423,-7.283564,112.796617,1.8906712605354095,0.05228758169934641
2000-01-01 08:09:08.778408,-0.16407942817382803,0.03919547537841794,-1.1618015267175572,-7.283547,112.79661666666667,0.07724374786436287,-0.06736005499746935,3.124545421271585,0.07813874018992248,-0.050974046188062984,0.22672355263120691,-0.0038769768277868485,3.1248077591428696,-7.283564,112.796617,1.8906712605354095,0.05228758169934641
2000-01-01 08:09:08.792604,-0.16168522651367168,0.0008882488159179802,-0.8946259541984733,-7.283547,112.79661666666667,0.0783627767408272,-0.06806995662745331,3.1243237563546766,0.07882485712531667,-0.050005764581624965,0.2267570289506952,-0.0038675586773023497,3.124519895105754,-7.283564,112.796617,1.8906712605354095,0.05228758169934641
2000-01-01 08:09:08.807935,-0.15929102485351532,-0.015871162805175754,-0.17706870229007632,-7.283547,112.79661666666667,0.07958375403732024,-0.06881820324692592,3.124276379430352,0.07964525320710011,-0.04880868107901957,0.22686348022934616,-0.0038923007137399105,3.1242805268516096,-7.283564,112.796617,1.8906712605354095,0.05228758169934641
2000-01-01 08:09:08.822350,-0.17365623481445303,0.08229110526123051,0.0824732824427481,-7.283547,112.79661666666667,0.0807439483911648,-0.06952507667664154,3.1242971288554755,0.08048507003039466,-0.04903726457964547,0.22690317042741537,-0.0038607335466361017,3.1242359781969298,-7.283564,112.796617,1.8906712605354095,0.05228758169934641
2000-01-01 08:09:08.836218,-0.128166403271484,0.03919547537841794,-0.19996946564885495,-7.283547,112.79661666666667,0.08186181429526646,-0.07019932841887783,3.124248727883707,0.08060772838381519,-0.04861933895745153,0.22691229625985565,-0.003816186005730375,3.1242559401796366,-7.283564,112.796617,1.8906712605354095,0.05228758169934641
2000-01-01 08:09:08.849120,-0.12337799995117171,0.07271429862060552,-0.5358473282442748,-7.283547,112.79661666666667,0.0829009630219799,-0.07082629991137313,3.124128060962109,0.08053931168957883,-0.04859347960158179,0.2268620954162636,-0.0037384057102218967,3.124210909256533,-7.283564,112.796617,1.8906712605354095,0.05228758169934641
2000-01-01 08:09:08.863893,-0.08267657172851539,0.058349088659668036,-0.40607633587786257,-7.283547,112.79661666666667,0.08408444534864948,-0.07154260863159699,3.124023358334444,0.08011046361021172,-0.04848726708632313,0.22694137443912504,-0.0037462765400168956,3.1240727465064846,-7.283564,112.796617,1.8906712605354095,0.05228758169934641
2000-01-01 08:09:08.877096,-0.06352295844726541,0.07271429862060552,-0.4595114503816794,-7.283547,112.79661666666667,0.08513163193548343,-0.0721826014388432,3.1239174692805842,0.07931342572689505,-0.04847275797977533,0.22690203327992578,-0.003690854786861206,3.1239791709514786,-7.283564,112.796617,1.8906712605354095,0.05228758169934641
2000-01-01 08:09:08.892731,-0.09225337836914038,0.060743290319824284,-2.0930992366412213,-7.283547,112.79661666666667,0.08636873815022893,-0.07294027486656769,3.1233462948453146,0.07912348627876357,-0.04845967334718765,0.22701375179231675,-0.003737828855055121,3.1238537773778834,-7.283564,112.796617,1.8906712605354095,0.05228758169934641
2000-01-01 08:09:08.914630,-0.05394615180664042,-0.00868855782470701,-2.0091297709923666,-7.283547,112.79661666666667,0.08809224357826193,-0.07397667317626162,3.1225783824019175,0.07870209752503263,-0.04732605973710272,0.2274829814663775,-0.004007980654427684,3.123053770841577,-7.283564,112.796617,1.8906712605354095,0.05228758169934641
2000-01-01 08:09:08.932922,-0.128166403271484,0.02243606375732421,-0.4595114503816794,-7.283547,112.79661666666667,0.08954492419740584,-0.07483319484425184,3.122431683097118,0.07941742328173254,-0.046825670391914244,0.22762048118841238,-0.004064323620745865,3.1224123549630134,-7.283564,112.796617,1.8906712605354095,0.05228758169934641
2000-01-01 08:09:08.948460,-0.128166403271484,0.08468530692138676,-0.7266870229007634,-7.283547,112.79661666666667,0.09078418072908254,-0.07556685087722705,3.1222346106467813,0.07975539538203055,-0.047216234483091514,0.2275694801176431,-0.0039997181123710614,3.122287738663794,-7.283564,112.796617,1.8906712605354095,0.05228758169934641
2000-01-01 08:09:08.964122,-0.109012789990234,0.012859257116699219,-0.42897709923664123,-7.283547,112.79661666666667,0.09203441556139362,-0.0762951325796934,3.122117353069705,0.07982926932570672,-0.04650182083289244,0.22754110185427215,-0.003956733866469091,3.1220891043783046,-7.283564,112.796617,1.8906712605354095,0.05228758169934641
2000-01-01 08:09:08.976465,-0.06112875678710905,-0.00868855782470701,-0.4595114503816794,-7.283547,112.79661666666667,0.09300921482285307,-0.07685651982384535,3.1220183600552964,0.07897403864165431,-0.045481177166886405,0.22731695889953293,-0.003794714378798583,3.1219966894099063,-7.283564,112.796617,1.8906712605354095,0.05228758169934641
2000-01-01 08:09:08.989064,-0.06352295844726541,0.003282450476074228,1.601557251908397,-7.283547,112.79661666666667,0.09399414993712189,-0.07741876092206885,3.1223705227005003,0.07817793044458825,-0.04462714836056702,0.22714800716771008,-0.003664663169026421,3.1218956485213116,-7.283564,112.796617,1.8906712605354095,0.05228758169934641
2000-01-01 08:09:09.001903,-0.008456320263671824,0.010465055456542971,0.12064122137404582,-7.283547,112.79661666666667,0.09399414993712189,-0.07741876092206885,3.1223975562410473,0.0625423443556706,-0.035701718688453614,0.22702126272526113,-0.003560106934999486,3.122254528864323,-7.283564,112.796617,1.8906712605354095,0.05228758169934641
2000-01-01 08:09:09.017564,-0.006062118603515465,0.05595488699951179,-0.23050381679389312,-7.283547,112.79661666666667,0.09495524863875199,-0.07798018681287085,3.1223345502824977,0.06136798393377611,-0.035848113194104636,0.2268866437536812,-0.0034560146018629318,3.122287504959465,-7.283564,112.796617,1.8906712605354095,0.05228758169934641
2000-01-01 08:09:09.031442,-0.05634035346679678,0.05356068533935554,0.04430534351145041,-7.283547,112.79661666666667,0.09580032435262589,-0.07847805305248026,3.122345281863537,0.060892721864388016,-0.03587421808068779,0.22667155088367089,-0.003320071462725678,3.1222316726332986,-7.283564,112.796617,1.8906712605354095,0.05228758169934641
2000-01-01 08:09:09.045753,-0.10183018500976537,0.029618668737792953,-0.2610381679389313,-7.283547,112.79661666666667,0.09667462585736453,-0.07898750489641725,3.1222800831279014,0.06109468534613852,-0.035599618593410196,0.22650811558523581,-0.003219628015876389,3.1222427386486697,-7.283564,112.796617,1.8906712605354095,0.05228758169934641
2000-01-01 08:09:09.059999,-0.17126203315429667,0.04158967703857419,-0.02439694656488549,-7.283547,112.79661666666667,0.09756149199986223,-0.07949345467591294,3.1222740169340195,0.062252189561158744,-0.03551435788594677,0.2263711298768942,-0.0031307087933360785,3.122177832651805,-7.283564,112.796617,1.8906712605354095,0.05228758169934641
2000-01-01 08:09:09.074269,-0.13056060493164034,0.05595488699951179,-0.12363358778625953,-7.283547,112.79661666666667,0.09845792520590282,-0.08000179263899995,3.1222432240233102,0.06281755560281771,-0.03562178202019433,0.22627195793668364,-0.003056141977925649,3.122171756204372,-7.283564,112.796617,1.8906712605354095,0.05228758169934641
2000-01-01 08:09:09.088852,-0.09464758002929674,0.015253458776855466,0.6015572519083969,-7.283547,112.79661666666667,0.0993753249557939,-0.08051442815214922,3.122396331856293,0.06290939982943078,-0.03515326057948258,0.22621120400629968,-0.0030037171154847346,3.122140289090228,-7.283564,112.796617,1.8906712605354095,0.05228758169934641
2000-01-01 08:09:09.102238,-0.03479253852539044,0.012859257116699219,-0.016763358778625947,-7.283547,112.79661666666667,0.0993753249557939,-0.08051442815214922,3.1223924153635654,0.050327519863544626,-0.028122608463586066,0.22610254853514924,-0.0029212104596351525,3.1222808333948247,-7.283564,112.796617,1.8906712605354095,0.05228758169934641
2000-01-01 08:09:09.115683,-0.04676354682617179,0.08468530692138676,0.013770992366412216,-7.283547,112.79661666666667,0.1000464231028753,-0.080900122866103,3.12239564677678,0.04991558303091123,-0.028687572157174185,0.22587389462048102,-0.002775177111576003,3.1222768998119976,-7.283564,112.796617,1.8906712605354095,0.05228758169934641
2000-01-01 08:09:09.129926,-0.0491577484863277,0.08468530692138676,-0.3144732824427481,-7.283547,112.79661666666667,0.10075258070145199,-0.08131755847345021,3.122317474655824,0.049580495502704894,-0.029308845921169394,0.22570936786894838,-0.0026774256418203037,3.1222803230207123,-7.283564,112.796617,1.8906712605354095,0.05228758169934641
2000-01-01 08:09:09.144304,-0.05873455512695269,-0.035024776086425735,-0.5587480916030534,-7.283547,112.79661666666667,0.10146324192914719,-0.0817236781940075,3.122177257471904,0.049425924518992186,-0.028245304333034665,0.2255718490225963,-0.0026055829670067004,3.1222014063161274,-7.283564,112.796617,1.8906712605354095,0.05228758169934641
2000-01-01 08:09:09.158912,0.0035146880371095257,-0.046995784387206974,-0.29920610687022897,-7.283547,112.79661666666667,0.10146324192914719,-0.0817236781940075,3.1221009743060786,0.03954073961519375,-0.022596243466427732,0.22546246890592234,-0.002536892830259644,3.122058952427829,-7.283564,112.796617,1.8906712605354095,0.05228758169934641
2000-01-01 08:09:09.173289,-0.03000413520507772,0.08229110526123051,-0.32210687022900764,-7.283547,112.79661666666667,0.10202609516326047,-0.0820588290799114,3.1220201500036002,0.03914989090154869,-0.02331179750502094,0.22524076853121272,-0.0024050033700019524,3.121983874473522,-7.283564,112.796617,1.8906712605354095,0.05228758169934641
2000-01-01 08:09:09.187155,-0.07788816840820267,-0.018265364465332,0.334381679389313,-7.283547,112.79661666666667,0.10257286220390656,-0.08237246826731438,3.122101077393982,0.03942998694411313,-0.022618022201647017,0.22503431198104928,-0.002293655968887555,3.1219059178448,-7.283564,112.796617,1.8906712605354095,0.05228758169934641
2000-01-01 08:09:09.200687,-0.0491577484863277,-0.027842171105956992,0.3191145038167939,-7.283547,112.79661666666667,0.10310465216965771,-0.08266757798474854,3.1221764421216935,0.039300304475550794,-0.02180917748696906,0.22485471376436716,-0.00218659195623643,3.121984888195309,-7.283564,112.796617,1.8906712605354095,0.05228758169934641
2000-01-01 08:09:09.216634,0.0561871245605472,0.03919547537841794,1.7771297709923666,-7.283547,112.79661666666667,0.1037046713183198,-0.08301792515556843,3.12267108078764,0.037624744392683394,-0.021968836794943252,0.22477594696181638,-0.0021280977237378967,3.1220737091553925,-7.283564,112.796617,1.8906712605354095,0.05228758169934641
2000-01-01 08:09:09.233172,-0.07549396674804676,0.03440707205810545,1.7923969465648855,-7.283547,112.79661666666667,0.10433450868675384,-0.08338356222884168,3.123188428648133,0.03808529549074655,-0.022109510606850638,0.22470041471063792,-0.0020888535243119527,3.1225866503800486,-7.283564,112.796617,1.8906712605354095,0.05228758169934641
2000-01-01 08:09:09.249512,-0.08028237006835903,0.012859257116699219,-0.5511145038167939,-7.283547,112.79661666666667,0.10496532185651877,-0.08374136326779487,3.1230312567532486,0.03860513458277447,-0.02189706544616352,0.22463356667969425,-0.0020521497245408337,3.1230978226002044,-7.283564,112.796617,1.8906712605354095,0.05228758169934641
2000-01-01 08:09:09.265033,-0.08985917670898402,-0.023053767785644497,-0.18470229007633587,-7.283547,112.79661666666667,0.10557384706653845,-0.08406938697956717,3.122981221734447,0.039206146227546125,-0.02113395698007602,0.22455764221700603,-0.002003119307540626,3.122948528162389,-7.283564,112.796617,1.8906712605354095,0.05228758169934641
2000-01-01 08:09:09.279933,-0.14013741157226534,-0.02065956612548825,-0.11599999999999999,-7.283547,112.79661666666667,0.1061769020580317,-0.0843740586222587,3.1229510555262134,0.0404735732945049,-0.020447803658335456,0.22448245724404692,-0.001941648045221104,3.12290049568184,-7.283564,112.796617,1.8906712605354095,0.05228758169934641
2000-01-01 08:09:09.294667,0.037033511279297215,-0.006294356164550763,-2.0549312977099237,-7.283547,112.79661666666667,0.1061769020580317,-0.0843740586222587,3.1224226063261735,0.03237885863560392,-0.016358242926668366,0.22443070381167218,-0.0018792647421478539,3.12287066494868,-7.283564,112.796617,1.8906712605354095,0.05228758169934641
2000-01-01 08:09:09.309676,-0.14013741157226534,0.0008882488159179802,-0.21523664122137404,-7.283547,112.79661666666667,0.1066840564816881,-0.08461544718007068,3.1223662266594148,0.03379179697469063,-0.016083766121542255,0.22429432694126922,-0.0017800178615505237,3.122332390697979,-7.283564,112.796617,1.8906712605354095,0.05228758169934641
2000-01-01 08:09:09.324610,-0.09464758002929674,0.010465055456542971,-0.16180152671755724,-7.283547,112.79661666666667,0.1071992767972287,-0.08485353622470394,3.122324051303103,0.03449802254678476,-0.015941920343887785,0.224196219396196,-0.0016926340358121696,3.1222762868884595,-7.283564,112.796617,1.8906712605354095,0.05228758169934641
2000-01-01 08:09:09.339110,-0.128166403271484,-0.018265364465332,-0.3526412213740458,-7.283547,112.79661666666667,0.10771593920763563,-0.0850768069719075,3.1222348124233528,0.035633887174325994,-0.015398845464512681,0.22411171328329652,-0.001612593432114292,3.122235341627069,-7.283564,112.796617,1.8906712605354095,0.05228758169934641
2000-01-01 08:09:09.354113,-0.05873455512695269,0.008070853796386723,-0.05493129770992365,-7.283547,112.79661666666667,0.1082527888330344,-0.08530524938681268,3.1222204283711323,0.03578233109599166,-0.015226241650877926,0.2240694795724179,-0.001545218052143455,3.1221430006492525,-7.283564,112.796617,1.8906712605354095,0.05228758169934641
2000-01-01 08:09:09.367886,-0.2239344696777339,0.1014447185424805,0.24277862595419847,-7.283547,112.79661666666667,0.1087770284124172,-0.08553042900133559,3.122278789376123,0.03806228539118871,-0.016349110386399114,0.22400206479590523,-0.0014724333127122701,3.122129795838791,-7.283564,112.796617,1.8906712605354095,0.05228758169934641
2000-01-01 08:09:09.384772,-0.14732001655273397,-0.02065956612548825,0.532854961832061,-7.283547,112.79661666666667,0.10944816791455336,-0.08579599706881662,3.1224358314877723,0.039745050841402486,-0.01572700803676575,0.22406564934188086,-0.001464249885574601,3.1222013471441445,-7.283564,112.796617,1.8906712605354095,0.05228758169934641
2000-01-01 08:09:09.400543,-0.23111707465820297,-0.03023637276611324,0.9679694656488551,-7.283547833333333,112.79661733333333,0.11011892710875408,-0.08603276636471337,3.1227022753293427,0.042530449531331734,-0.015012697070376923,0.22410497863737208,-0.001433584669134187,3.1223480211127654,-7.283564,112.796617,1.798027246169403,0.05228758169934641
2000-01-01 08:09:09.419542,-0.013244723583984097,-0.003900154504394515,1.906900763358779,-7.283547833333333,112.79661733333333,0.11011892710875408,-0.08603276636471337,3.1233345896716616,0.034024359625065385,-0.01201015765630154,0.22428002683468168,-0.0014345288198399605,3.122668992705948,-7.283564,112.796617,1.798027246169403,0.05228758169934641
2000-01-01 08:09:09.436763,-0.08746497504882766,0.07989690360107427,1.9298015267175572,-7.283547833333333,112.79661733333333,0.11071814231083224,-0.0862591209318312,3.1239146120064327,0.034795903598076036,-0.013144212077898907,0.2242380453617931,-0.0013688804136246136,3.1232421319731873,-7.283564,112.796617,1.798027246169403,0.05228758169934641
2000-01-01 08:09:09.450301,0.0322451079589845,0.08947371024169926,2.0443053435114504,-7.283547833333333,112.79661733333333,0.11117372490342443,-0.08644947879529555,3.1243976502990085,0.03365183048517719,-0.01406087646232089,0.2241151096409078,-0.001293549859795796,3.1236981147535654,-7.283564,112.796617,1.798027246169403,0.05228758169934641
2000-01-01 08:09:09.462718,-0.11619539497070264,0.0320128703979492,2.5557557251908394,-7.283547833333333,112.79661733333333,0.11160070791253666,-0.08662571401425163,3.124951541490375,0.03438609391059256,-0.014192697742183069,0.2239748604726872,-0.0012308355078604841,3.1241411628551794,-7.283564,112.796617,1.798027246169403,0.05228758169934641
2000-01-01 08:09:09.475369,-0.109012789990234,0.04158967703857419,2.761862595419847,-7.283547833333333,112.79661733333333,0.11204399032311892,-0.0868084600486112,3.1255613290947957,0.03504139142906532,-0.01444603974629117,0.22387612787236572,-0.001184297115772193,3.124705444425064,-7.283564,112.796617,1.798027246169403,0.05228758169934641
2000-01-01 08:09:09.488118,-0.19041564643554665,0.06553169364013678,3.0901068702290075,-7.283547833333333,112.79661733333333,0.11251195868769066,-0.08699984901568315,3.126248906270486,0.03670674801807921,-0.015012268177955486,0.22380654198234248,-0.0011505666774548782,3.1253199842331525,-7.283564,112.796617,1.798027246169403,0.05228758169934641
2000-01-01 08:09:09.502794,-0.2646358979003902,0.05116648367919929,3.0366717557251905,-7.283547833333333,112.79661733333333,0.11309561821156851,-0.08722738644523756,3.127026769678191,0.039767789592646804,-0.015503320433892482,0.2238240952821816,-0.001152060118127579,3.126111535396269,-7.283564,112.796617,1.798027246169403,0.05228758169934641
2000-01-01 08:09:09.516924,-0.32927934272460924,0.046378080358886686,3.616824427480916,-7.283547833333333,112.79661733333333,0.11371056780061299,-0.08745201178763355,3.127918695059363,0.043522695798856426,-0.01589772661041287,0.22385926992155522,-0.0011526072912688677,3.1268603924855545,-7.283564,112.796617,1.798027246169403,0.05228758169934641
2000-01-01 08:09:09.532649,-0.2622416962402343,0.07750270194091802,3.464152671755725,-7.283547833333333,112.79661733333333,0.11444461637768388,-0.08771660517079996,3.128869486487027,0.04667818223584157,-0.016825505209917983,0.22398879453172876,-0.0011777854637064792,3.127853087088495,-7.283564,112.796617,1.798027246169403,0.05228758169934641
2000-01-01 08:09:09.547925,-0.2670300995605466,0.13975194510498046,2.998503816793893,-7.283547833333333,112.79661733333333,0.11520406461370274,-0.08800116582287444,3.1296689097702806,0.04971682182186348,-0.018628591871993186,0.22412053802659054,-0.001204412257488037,3.128776655798675,-7.283564,112.796617,1.798027246169403,0.05228758169934641
2000-01-01 08:09:09.562734,-0.43462421577148413,0.04398387869873044,2.6244580152671753,-7.283547833333333,112.79661733333333,0.11601891597387694,-0.0882820293424025,3.1303472593840773,0.05502268887360734,-0.01896525772213796,0.2242506956725777,-0.0012426733953976316,3.129551685878889,-7.283564,112.796617,1.798027246169403,0.05228758169934641
2000-01-01 08:09:09.578469,-0.3244909394042965,-0.03263057442626949,2.830564885496183,-7.283547833333333,112.79661733333333,0.11694617393967968,-0.0885673806947807,3.131124594328694,0.05893087149218602,-0.018135194840373986,0.22446612009876452,-0.0012926459598907067,3.1302724193750193,-7.283564,112.796617,1.798027246169403,0.05228758169934641
2000-01-01 08:09:09.593610,-0.2574532929199216,0.0008882488159179802,3.311480916030534,-7.283547833333333,112.79661733333333,0.11787842983395634,-0.08883722643844638,3.1319996809803303,0.061572062677849676,-0.017822315894527475,0.22466880181773255,-0.0013143949043283054,3.131020419925437,-7.283564,112.796617,1.798027246169403,0.05228758169934641
2000-01-01 08:09:09.609631,-0.06591716010742177,-0.025447969445800744,3.097740458015267,-7.283547833333333,112.79661733333333,0.11886180604498936,-0.08911079710464667,3.132865888739674,0.061379030416462296,-0.017075359413179905,0.22491453601669786,-0.001340626673031516,3.131946395004131,-7.283564,112.796617,1.798027246169403,0.05228758169934641
2000-01-01 08:09:09.624375,0.05379292290039084,-0.011082759484863258,2.9756030534351146,-7.283547833333333,112.79661733333333,0.1197372407933125,-0.08935506952863508,3.133631606926698,0.05937548659676743,-0.016567532947789686,0.22505373411353016,-0.0013348724420297136,3.1327435430661494,-7.283564,112.796617,1.798027246169403,0.05228758169934641
2000-01-01 08:09:09.638322,0.04182191459960949,-0.06136099434814446,2.662625954198473,-7.283547833333333,112.79661733333333,0.12054091598938442,-0.08956976403964771,3.134279757733822,0.05762249080471923,-0.015393323754565712,0.2251092462798632,-0.0013138259593319602,3.1334678804511,-7.283564,112.796617,1.798027246169403,0.05228758169934641
2000-01-01 08:09:09.651875,-0.06112875678710905,-0.11163922921142577,2.479419847328244,-7.283547833333333,112.79661733333333,0.12131734603878053,-0.08975418568034298,3.1348662156955207,0.05729185570356936,-0.013608254904027122,0.2251197705646361,-0.0012784562034355294,3.1340976722112766,-7.283564,112.796617,1.798027246169403,0.05228758169934641
2000-01-01 08:09:09.666220,0.008303091357422243,-0.1834652790161132,2.700793893129771,-7.283547833333333,112.79661733333333,0.12212130624356612,-0.08990848362796032,3.135542403390721,0.05604490007434406,-0.010756270029804246,0.22516316541547549,-0.0012374776449755012,3.1347184353121795,-7.283564,112.796617,1.798027246169403,0.05228758169934641
2000-01-01 08:09:09.681136,0.23814645073242202,-0.12600443917236326,3.731328244274809,-7.283547833333333,112.79661733333333,0.12288879391953872,-0.09003798198840401,3.1365138275421627,0.051452127472968644,-0.008681528521804186,0.22521014430644035,-0.0011733730681147084,3.1354215673456256,-7.283564,112.796617,1.798027246169403,0.05228758169934641
2000-01-01 08:09:09.698304,-0.03958094184570271,0.09426211356201175,3.319114503816794,-7.283547833333333,112.79661733333333,0.1237657935838014,-0.09021132253986883,3.1375083772128427,0.05108254801227063,-0.010096556935536662,0.22528056231804072,-0.001107579624735529,3.1365396340083684,-7.283564,112.796617,1.798027246169403,0.05228758169934641
2000-01-01 08:09:09.713184,0.1854740142089848,-0.0876972126098633,3.0595725190839693,-7.283547833333333,112.79661733333333,0.12447051999501732,-0.09033939365091204,3.1383029667369313,0.04736045128651952,-0.008606894135423883,0.22523843183132292,-0.0010542163011020818,3.137401628158706,-7.283564,112.796617,1.798027246169403,0.05228758169934641
2000-01-01 08:09:09.728250,-0.03239833686523408,-0.09727401925048829,3.0901068702290075,-7.283547833333333,112.79661733333333,0.12517700409465007,-0.0904448470308473,3.139115470857321,0.046895123837217695,-0.006999802704247998,0.2251636416740595,-0.0009921339276019953,3.138206103661588,-7.283564,112.796617,1.798027246169403,0.05228758169934641
2000-01-01 08:09:09.742824,-0.39152858588867145,0.1014447185424805,2.784763358778626,-7.283547833333333,112.79661733333333,0.1259282889612823,-0.09056608953252007,3.139823852436338,0.051546958519491703,-0.008318658450476586,0.22507743509440678,-0.0009172594667659031,3.1389921578076843,-7.283564,112.796617,1.798027246169403,0.05228758169934641
2000-01-01 08:09:09.758511,-0.18083883979492166,-0.035024776086425735,2.6549923664122135,-7.283547833333333,112.79661733333333,0.12676431963705015,-0.09068556898924841,3.1405507341273164,0.053296553724847755,-0.0076167579361717305,0.22510768238599907,-0.0008778558763777912,3.139754568097375,-7.283564,112.796617,1.798027246169403,0.05228758169934641
2000-01-01 08:09:09.773050,-0.08746497504882766,-0.0876972126098633,3.1359083969465646,-7.283547833333333,112.79661733333333,0.12754181106461956,-0.09077593062116475,3.141346468743142,0.05347713028239,-0.0062152206328828395,0.2251071655388506,-0.0008287747822153747,3.1404282705986226,-7.283564,112.796617,1.798027246169403,0.05228758169934641
2000-01-01 08:09:09.787519,-0.04676354682617179,-0.12600443917236326,2.8687328244274806,-7.283547833333333,112.79661733333333,0.12830967980381522,-0.09083820388070334,3.1420709160677913,0.053069823675109956,-0.0043039008292602,0.22510727085290733,-0.0007704105919872826,3.14122018835031,-7.283564,112.796617,1.798027246169403,0.05228758169934641
2000-01-01 08:09:09.801986,-0.25027068793945295,-0.0829088092895508,2.532854961832061,-7.283547833333333,112.79661733333333,0.12911340635396734,-0.0908821607002959,3.1427104591095114,0.05555539324169252,-0.003038394585392599,0.22510348258712193,-0.0006983934645715591,3.141944540176239,-7.283564,112.796617,1.798027246169403,0.05228758169934641
2000-01-01 08:09:09.821457,-0.2047808563964839,-0.03741897774658198,2.830564885496183,-7.283547833333333,112.79661733333333,0.13024953393938474,-0.09092607702591791,3.143672369289743,0.058350296339705565,-0.002255495462910276,0.22534740835369435,-0.0006326666574869788,3.1428052796651373,-7.283564,112.796617,1.798027246169403,0.05228758169934641
2000-01-01 08:09:09.836553,-0.24308808295898388,-0.10685082589111328,2.815297709923664,-7.283547833333333,112.79661733333333,0.13116699895722203,-0.09093542871118877,3.1444141329433073,0.06077509684013201,-0.0006194782001550761,0.22538806606294487,-0.0005575413853613649,3.1435510658545396,-7.283564,112.796617,1.798027246169403,0.05228758169934641
2000-01-01 08:09:09.850876,-0.03239833686523408,-0.12361023751220701,2.9450687022900763,-7.283547833333333,112.79661733333333,0.1320265102963954,-0.0909192490884708,3.1451503636076095,0.06000818709535008,0.0011296067695000748,0.22541769207083243,-0.00047407076806673477,3.1442548553795766,-7.283564,112.796617,1.798027246169403,0.05228758169934641
2000-01-01 08:09:09.863784,0.013091494677734516,-0.12600443917236326,2.334381679389313,-7.283547833333333,112.79661733333333,0.13278340944557795,-0.09088439214909366,3.1456762883751437,0.0586359042704935,0.002700317687881366,0.22537010328641582,-0.0003852677788439063,3.144918364944572,-7.283564,112.796617,1.798027246169403,0.05228758169934641
2000-01-01 08:09:09.876612,0.049004519580078565,-0.1475522541137695,2.242778625954198,-7.283547833333333,112.79661733333333,0.13351249474609922,-0.09082669112208928,3.1461783976638364,0.0568386642067154,0.004498306708337099,0.22531700224645884,-0.00029431196121118986,3.1454409821618987,-7.283564,112.796617,1.798027246169403,0.05228758169934641
2000-01-01 08:09:09.889463,0.015485696337890875,-0.09487981759033204,2.364916030534351,-7.283547833333333,112.79661733333333,0.1342257678815503,-0.09075469266468028,3.146708854625406,0.05550074420241697,0.0056022970290314006,0.22525859534178755,-0.00019860596128048894,3.1459440433784644,-7.283564,112.796617,1.798027246169403,0.05228758169934641
2000-01-01 08:09:09.905621,-0.08028237006835903,-0.142763850793457,2.196977099236641,-7.283547833333333,112.79661733333333,0.13512494356180207,-0.09062933665841187,3.147328424212052,0.05564899924574092,0.00775814610146769,0.22534189796040802,-9.026786813304518e-05,3.1466109734288508,-7.283564,112.796617,1.798027246169403,0.05228758169934641
2000-01-01 08:09:09.920359,0.17110880424804709,-0.13079284249267575,2.3267480916030534,-7.283547833333333,112.79661733333333,0.13589207137044146,-0.09048967983660827,3.147926904932094,0.05205282399940867,0.009476298321857415,0.22534804725957425,2.0675699272690212e-05,3.1471760747567563,-7.283564,112.796617,1.798027246169403,0.05228758169934641
2000-01-01 08:09:09.935042,0.3458855254394533,-0.34148258858642566,2.4565190839694653,-7.283547833333333,112.79661733333333,0.13656749371942353,-0.09028168692739705,3.1485564241969546,0.046000643993617855,0.014165666540709164,0.22530592651093417,0.00013468633958867637,3.1477723382898586,-7.283564,112.796617,1.798027246169403,0.05228758169934641
2000-01-01 08:09:09.956747,0.20941603081054705,-0.14994645577392574,3.0901068702290075,-7.283547833333333,112.79661733333333,0.13744873873001842,-0.08991192333448575,3.14972705093963,0.04060028639284455,0.01703556626063832,0.2254411786542186,0.00037047737521208885,3.1487029426522164,-7.283564,112.796617,1.798027246169403,0.05228758169934641
2000-01-01 08:09:09.970881,0.20223342583007842,-0.17628267403564446,3.479419847328244,-7.283547833333333,112.79661733333333,0.13797119485861806,-0.0896418106585502,3.1505853523387928,0.03696529798771804,0.019111261232556215,0.22520949974154808,0.0005122171895135551,3.149465208537524,-7.283564,112.796617,1.798027246169403,0.05228758169934641
2000-01-01 08:09:09.983626,0.24532905571289088,-0.006294356164550763,3.166442748091603,-7.283547833333333,112.79661733333333,0.1383938600159907,-0.08940246972229704,3.151289750246717,0.03316098316926033,0.018777939511604294,0.22493790095507002,0.0006344232186682554,3.1502392304467235,-7.283564,112.796617,1.798027246169403,0.05228758169934641
2000-01-01 08:09:09.996386,0.2309638457519534,0.07989690360107427,2.632091603053435,-7.283547833333333,112.79661733333333,0.1387717904784862,-0.08918079501425402,3.151875891255907,0.029620211722976048,0.017373703465200323,0.22467508839987202,0.0007345484704398977,3.150944366220021,-7.283564,112.796617,1.798027246169403,0.05228758169934641
2000-01-01 08:09:10.009169,0.19265661918945343,0.046378080358886686,1.8076641221374046,-7.283547833333333,112.79661733333333,0.1391120925016292,-0.08897089838097873,3.1522792038296226,0.02662060217050005,0.016419457985416563,0.2244209499619505,0.0008047838341428467,3.1515316189212736,-7.283564,112.796617,1.798027246169403,0.05228758169934641
2000-01-01 08:09:10.022309,0.14477258598632847,-0.04220738106689448,-0.11599999999999999,-7.283547833333333,112.79661733333333,0.13943032463782837,-0.08875257805439722,3.15225260041494,0.02421820811025674,0.016614686269588997,0.22418508502600487,0.000859033320473808,3.151946188216518,-7.283564,112.796617,1.798027246169403,0.05228758169934641
2000-01-01 08:09:10.038125,0.09449435112304716,-0.12361023751220701,2.21224427480916,-7.283547833333333,112.79661733333333,0.1397821963651553,-0.08846501469844224,3.1528632747152243,0.02224770293445221,0.01818169412678165,0.2240099246605006,0.0009429018284341298,3.151914167241421,-7.283564,112.796617,1.798027246169403,0.05228758169934641
2000-01-01 08:09:10.053715,0.017879897998047234,-0.08530301094970705,2.4183511450381676,-7.2835485,112.796618,0.14011760192126804,-0.08816696384128743,3.1535213034219547,0.02151404836595919,0.019117991456852407,0.24115251087121597,0.0010300331907378533,3.1525161146641976,-7.283564,112.796618,1.7235213629846684,0.05010893246187364
2000-01-01 08:09:10.068496,-0.0036679169433591063,-0.02065956612548825,2.151175572519084,-7.2835485,112.796618,0.14011760192126804,-0.08816696384128743,3.1540762260972235,0.017211238692767354,0.015294393165481927,0.25598853995262305,0.001102427950106458,3.153139958623885,-7.283564,112.796618,1.7235213629846684,0.05010893246187364
2000-01-01 08:09:10.082840,-0.06352295844726541,-0.04220738106689448,2.05193893129771,-7.2835485,112.796618,0.14037224760724293,-0.08794328511915181,3.154589945318333,0.017752205090454335,0.015593394148896104,0.2683574367233245,0.0011101868561790402,3.153678522526898,-7.283564,112.796618,1.7235213629846684,0.05010893246187364
2000-01-01 08:09:10.098032,-0.18083883979492166,-0.06375519600830071,1.5252213740458016,-7.2835485,112.796618,0.14067725137566292,-0.08769616056397982,3.154994359254325,0.020076561925597765,0.016266721755432034,0.2787906642148884,0.0011307926347914844,3.1542225961372874,-7.283564,112.796618,1.7235213629846684,0.05010893246187364
2000-01-01 08:09:10.112803,-0.09704178168945266,-0.05178418770751947,-0.13126717557251907,-7.2835485,112.796618,0.14098847575726056,-0.08744933762359541,3.1549605177262334,0.021069641976151913,0.016709715860641707,0.2875615492268399,0.0011509527424154405,3.1546158080865085,-7.283564,112.796618,1.7235213629846684,0.05010893246187364
2000-01-01 08:09:10.126760,0.20462762749023455,-0.09727401925048829,1.8763664122137407,-7.2835485,112.796618,0.1412373379898946,-0.0872027673389217,3.155417573588937,0.01783137062200867,0.017667148943635833,0.2948904069134156,0.0011626438028390872,3.154583833291082,-7.283564,112.796618,1.7235213629846684,0.05010893246187364
2000-01-01 08:09:10.140869,0.0921001494628908,-0.133187044152832,2.3038473282442746,-7.2835485,112.796618,0.1414655483895156,-0.08693276781896382,3.1559848883758015,0.016174929313280035,0.019136827932430014,0.30099825784987877,0.0011862833437323414,3.155045882315848,-7.283564,112.796618,1.7235213629846684,0.05010893246187364
2000-01-01 08:09:10.154196,0.13758998100585984,-0.09009141427001954,2.71606106870229,-7.2835485,112.796618,0.14165262054980093,-0.08666751001937141,3.1566166500310033,0.014036951414601559,0.019903607461119386,0.3060713259888232,0.0012120743120614212,3.1555817621670763,-7.283564,112.796618,1.7235213629846684,0.05010893246187364
2000-01-01 08:09:10.168175,0.1256189727050785,0.015253458776855466,3.1893435114503816,-7.2835485,112.796618,0.14182091696400823,-0.08639813245989332,3.1573948155570535,0.012038754032101997,0.019269395581598125,0.3103177257837444,0.0012533753541240811,3.156244451865669,-7.283564,112.796618,1.7235213629846684,0.05010893246187364
2000-01-01 08:09:10.183479,0.2309638457519534,0.15890555838623044,3.013770992366412,-7.2835485,112.796618,0.1419490739644665,-0.08614647898816839,3.158199814086731,0.008374036760400968,0.016443545148306194,0.3138944658390971,0.001300881376047139,3.157096346997667,-7.283564,112.796618,1.7235213629846684,0.05010893246187364
2000-01-01 08:09:10.201627,0.35546233208007827,0.1469345500854492,1.8916335877862596,-7.2835485,112.796618,0.1419841117491476,-0.08590342753618235,3.1587989570142936,0.0019307257401740441,0.01339313255124891,0.31691717885112214,0.0013396480832106542,3.1580509079586414,-7.283564,112.796618,1.7235213629846684,0.05010893246187364
2000-01-01 08:09:10.215656,0.005908889697265884,0.211577994909668,3.7084274809160305,-7.2835485,112.796618,0.14201025634075973,-0.08576011358225605,3.1597069909090383,0.0018635753645649994,0.010215357650168951,0.319319371683271,0.0012811207820340332,3.1585140874121933,-7.283564,112.796618,1.7235213629846684,0.05010893246187364
2000-01-01 08:09:10.228601,-0.0730997650878904,0.2067895915893555,1.8610992366412213,-7.2835485,112.796618,0.14204652859371306,-0.08566425296924401,3.1601274646052198,0.0028020933372232128,0.0074053956716919256,0.32131444594502584,0.0011869588141758286,3.1593519235572107,-7.283564,112.796618,1.7235213629846684,0.05010893246187364
2000-01-01 08:09:10.240951,-0.07788816840820267,0.18763597830810552,4.174076335877863,-7.2835485,112.796618,0.14209262878260998,-0.08560243937540808,3.161027202461949,0.003732711852882138,0.005005019283033518,0.32298474516389664,0.0010751644788201343,3.1597530904989704,-7.283564,112.796618,1.7235213629846684,0.05010893246187364
2000-01-01 08:09:10.253460,0.20462762749023455,0.17566497000732428,4.800030534351145,-7.2835485,112.796618,0.142107567592076,-0.08556865845265618,3.162075119740625,0.0011942915361543688,0.0027006348944905887,0.3243921991245975,0.0009577446863798708,3.160664352767737,-7.283564,112.796618,1.7235213629846684,0.05010893246187364
2000-01-01 08:09:10.265555,0.26448266899414086,0.13975194510498046,6.04430534351145,-7.2835485,112.796618,0.14208425096143174,-0.08555750313291191,3.163351067816842,-0.0019277759371124177,0.0009223012236166485,0.325542187965598,0.0008346124702810445,3.1616776354161162,-7.283564,112.796618,1.7235213629846684,0.05010893246187364
2000-01-01 08:09:10.279080,0.4655956084472659,0.24509681815185547,6.777129770992366,-7.2835485,112.796618,0.1419762770968822,-0.08559115590203085,3.1649508918644176,-0.007983063696587267,-0.002488122478192862,0.32647872186190063,0.0007135303806857264,3.1631044673296542,-7.283564,112.796618,1.7235213629846684,0.05010893246187364
2000-01-01 08:09:10.293260,0.5062970366699222,0.3576242961791992,6.784763358778626,-7.2835485,112.796618,0.1417673767590442,-0.08569867385726897,3.166630002514724,-0.014732345606405737,-0.007582523282897397,0.3271963678308997,0.0005708114048976295,3.1647816888000624,-7.283564,112.796618,1.7235213629846684,0.05010893246187364
2000-01-01 08:09:10.307156,0.48953762504882836,0.49409379080810545,5.502320610687023,-7.2835485,112.796618,0.14147659364008336,-0.0858978566841507,3.1679645417080424,-0.020924790457308995,-0.014333221715514833,0.3277235290972106,0.0003913582888307147,3.166427273138077,-7.283564,112.796618,1.7235213629846684,0.05010893246187364
2000-01-01 08:09:10.320969,0.49911443168945335,0.403114127722168,3.830564885496183,-7.2835485,112.796618,0.14110210555951347,-0.08616977671267238,3.1688880244710513,-0.027111240925962832,-0.019685778502288583,0.32809631181687365,0.00016199034028866816,3.167753787214306,-7.283564,112.796618,1.7235213629846684,0.05010893246187364
2000-01-01 08:09:10.335923,0.5685462798339846,0.403114127722168,5.72369465648855,-7.2835485,112.796618,0.14058279159564746,-0.086550161573936,3.17038188604538,-0.03472749592881321,-0.025437047027532994,0.3283152592983715,-0.00011251551122308297,3.1687535494367594,-7.283564,112.796618,1.7235213629846684,0.05010893246187364
2000-01-01 08:09:10.350387,0.5996709014160158,0.3624126994995117,6.196977099236641,-7.2835485,112.796618,0.13996994555999984,-0.08698869558431624,3.1719461903418207,-0.04237282328109389,-0.03032070543616213,0.3284184195935735,-0.0004052555525626068,3.170198382941754,-7.283564,112.796618,1.7235213629846684,0.05010893246187364
2000-01-01 08:09:10.364723,0.6044593047363283,0.3887489177612305,5.906900763358778,-7.2835485,112.796618,0.13925543378401217,-0.087496822165622,3.173424181897674,-0.049839592221453934,-0.035443532857319916,0.32841702240302567,-0.0007075177724950813,3.1717489557702843,-7.283564,112.796618,1.7235213629846684,0.05010893246187364
2000-01-01 08:09:10.379719,0.5805172881347658,0.29776925467529297,5.235145038167939,-7.2835485,112.796618,0.13839729685859925,-0.08808753929118307,3.1747943789135618,-0.05722419057533046,-0.039391510105397466,0.3283003016725132,-0.0010424894476942174,3.1732949717335655,-7.283564,112.796618,1.7235213629846684,0.05010893246187364
2000-01-01 08:09:10.394735,0.5350274565917972,0.37438370780029295,4.013770992366412,-7.2835485,112.796618,0.13743986698750393,-0.08875395023071869,3.1758463164401207,-0.06375980531186577,-0.04437947158874337,0.3281098487974774,-0.001373587902443115,3.1746670095337044,-7.283564,112.796618,1.7235213629846684,0.05010893246187364
2000-01-01 08:09:10.409595,0.5709404814941408,0.3624126994995117,3.9985038167938933,-7.2835485,112.796618,0.13639065254608854,-0.08948296624733959,3.176883337836982,-0.0706075959421166,-0.049059626235664025,0.32787691661371765,-0.0017081541372498702,3.1757079905085637,-7.283564,112.796618,1.7235213629846684,0.05010893246187364
2000-01-01 08:09:10.423075,0.5374216582519533,0.12059833182373048,4.937435114503817,-7.2835485,112.796618,0.1353630068210139,-0.09015603474991944,3.1780450067021486,-0.07623244327591294,-0.049929324077124505,0.32767435545155016,-0.0019920643482395912,3.176648749684836,-7.283564,112.796618,1.7235213629846684,0.05010893246187364
2000-01-01 08:09:10.438264,0.7624766143066408,0.13256934012451171,6.04430534351145,-7.2835485,112.796618,0.1340571406883743,-0.09093575626114003,3.1796473457696837,-0.08597417170026866,-0.05133444340773953,0.3273345811529898,-0.0023101236027005478,3.1779576586045155,-7.283564,112.796618,1.7235213629846684,0.05010893246187364
2000-01-01 08:09:10.452453,0.8821866973144534,0.027224467077636705,7.364916030534351,-7.2835485,112.796618,0.13268802422455717,-0.09166184243854307,3.1814711373773856,-0.09649623022440039,-0.05117503206564068,0.3269957626532591,-0.002552451471279023,3.1794544242586222,-7.283564,112.796618,1.7235213629846684,0.05010893246187364
2000-01-01 08:09:10.469806,0.9252823271972659,0.07750270194091802,8.586290076335878,-7.2835485,112.796618,0.13077514081878777,-0.09256658433606971,3.1840716855662077,-0.11023170324039527,-0.05213660176909491,0.326341603133315,-0.0028830277641475497,3.181685052256716,-7.283564,112.796618,1.7235213629846684,0.05010893246187364
2000-01-01 08:09:10.487042,0.9252823271972659,0.2738272380737305,9.113007633587786,-7.2835485,112.796618,0.1286476978483369,-0.09353904816195692,3.186813085769911,-0.12343109673526231,-0.05642091385377478,0.3256138495010698,-0.0031635947534557575,3.184268003825589,-7.283564,112.796618,1.7235213629846684,0.05010893246187364
2000-01-01 08:09:10.499926,0.8726098906738284,0.3672011028198242,8.433618320610687,-7.2835485,112.796618,0.12695019741765878,-0.09431780870536884,3.1887095766731144,-0.1317499439567537,-0.0604427875810697,0.3252495803245608,-0.003262267853710998,3.186317270868619,-7.283564,112.796618,1.7235213629846684,0.05010893246187364
2000-01-01 08:09:10.512617,0.9348591338378909,0.4462097576049805,8.456519083969466,-7.2835485,112.796618,0.125167718367648,-0.09514709383093807,3.1905826437230016,-0.140455940133132,-0.06534608187936015,0.32486568653132286,-0.003383707818501716,3.188185265540044,-7.283564,112.796618,1.7235213629846684,0.05010893246187364
2000-01-01 08:09:10.525766,1.090482241748047,0.39593152274169924,8.044305343511452,-7.2835485,112.796618,0.12317655654227515,-0.09606558882842152,3.1924288619098573,-0.1514221635567449,-0.06984891833638178,0.3243904329912336,-0.0035661328216666055,3.1901260893481447,-7.283564,112.796618,1.7235213629846684,0.05010893246187364
2000-01-01 08:09:10.676144,0.7289577910644534,0.32889387625732425,5.143541984732824,-7.283549166666667,112.796618,0.1013988464700559,-0.10655521816505005,3.2014060361946726,-0.21777710072219247,-0.10489629336628527,0.30963312688387273,-0.010305024880980878,3.2112391009740233,-7.283564,112.796618,1.6493914118779343,0.05010893246187364
2000-01-01 08:09:10.688475,0.5398158599121097,0.3672011028198242,4.013770992366412,-7.283549166666667,112.796618,0.09869030466290143,-0.10788225350188367,3.202269825009499,-0.21966351304520096,-0.10762294429202159,0.31273147589308004,-0.008879792313879621,3.2123460236269232,-7.283564,112.796618,1.6493914118779343,0.05010893246187364
2000-01-01 08:09:10.700585,0.2956072905761722,0.4438155559448242,2.181709923664122,-7.283549166666667,112.796618,0.09604487539282344,-0.10922576187166105,3.2027309496551166,-0.21845007322279036,-0.11094210874314903,0.3146427827620377,-0.00802311235079458,3.2131943713868014,-7.283564,112.796618,1.6493914118779343,0.05010893246187364
2000-01-01 08:09:10.712882,0.09449435112304716,0.37917211112060545,1.6397251908396948,-7.283549166666667,112.796618,0.09340186637434422,-0.11061963828607826,3.203082863366992,-0.21493685625568976,-0.11335391306995068,0.31582772417874017,-0.007539693597862595,3.2136626045040098,-7.283564,112.796618,1.6493914118779343,0.05010893246187364
2000-01-01 08:09:10.725724,-0.03000413520507772,0.34804748953857423,0.7618625954198472,-7.283549166666667,112.796618,0.09070512061559552,-0.11210208201822987,3.2032536259503392,-0.20999130259361942,-0.1154355353397149,0.31652281398986487,-0.007320628803978931,3.214030129712953,-7.283564,112.796618,1.6493914118779343,0.05010893246187364
2000-01-01 08:09:10.740696,-0.11619539497070264,0.22354900321044924,0.7389618320610687,-7.283549166666667,112.796618,0.08765255280561375,-0.11384323612960356,3.2034467226758023,-0.20388711752530392,-0.11629517017590388,0.31665970918413916,-0.007422252118349362,3.214229210593786,-7.283564,112.796618,1.6493914118779343,0.05010893246187364
2000-01-01 08:09:10.754183,-0.11140699165039036,0.19003017996826177,0.8610992366412213,-7.283549166666667,112.796618,0.08497960269609292,-0.11541294391503079,3.2036494223298067,-0.1981839213032407,-0.11638483004531719,0.31698325818060674,-0.0074312432933270845,3.214403159543347,-7.283564,112.796618,1.6493914118779343,0.05010893246187364
2000-01-01 08:09:10.769230,-0.20717505805664027,0.25946202811279295,0.6397251908396946,-7.283549166666667,112.796618,0.08210668389823965,-0.11718372760806504,3.2038174235888484,-0.19093328060324596,-0.11768572783971488,0.31699567740634427,-0.007622707798590547,3.214629296887924,-7.283564,112.796618,1.6493914118779343,0.05010893246187364
2000-01-01 08:09:10.783435,-0.3580097626464842,0.5539488323120118,-0.1694351145038168,-7.283549166666667,112.796618,0.07952614799681336,-0.11892697740150401,3.2037754159113083,-0.1816611344807217,-0.12271898057468388,0.31716835024811757,-0.007748670534732652,3.214787902555998,-7.283564,112.796618,1.6493914118779343,0.05010893246187364
2000-01-01 08:09:10.797483,-0.33167354438476515,0.3983257244018555,-1.3373740458015266,-7.283549166666667,112.796618,0.0770939197783488,-0.12068943768615313,3.2034475027189253,-0.1731313405622342,-0.12545578965514467,0.3173989259686367,-0.007923631701740153,3.2147463584498643,-7.283564,112.796618,1.6493914118779343,0.05010893246187364
2000-01-01 08:09:10.811868,-0.3532213593261715,0.42226774100341796,-2.8106564885496184,-7.283549166666667,112.796618,0.07472994756380608,-0.1225391336919191,3.2027418384144366,-0.16433473022259498,-0.1285841230414631,0.317610894260171,-0.00815644733345397,3.214410587383668,-7.283564,112.796618,1.6493914118779343,0.05010893246187364
2000-01-01 08:09:10.826281,-0.4322300141113278,0.37438370780029295,-4.0243969465648854,-7.283549166666667,112.796618,0.07250119497840367,-0.12442612545198957,3.2017294924697586,-0.15463617223522194,-0.13092399072372513,0.3178657255102013,-0.008407827725352283,3.213703560533224,-7.283564,112.796618,1.6493914118779343,0.05010893246187364
2000-01-01 08:09:10.839458,-0.4729314423339841,0.27143303641357425,-5.070198473282443,-7.283549166666667,112.796618,0.07058742459160751,-0.12615811205842817,3.200563476805068,-0.14524051257851825,-0.1314445161414569,0.31832739177116304,-0.008530653651578195,3.212778052408571,-7.283564,112.796618,1.6493914118779343,0.05010893246187364
2000-01-01 08:09:10.854260,-0.40110539252929645,0.2067895915893555,-7.833557251908397,-7.283549166666667,112.796618,0.06856908603558623,-0.12810426558022667,3.1985397300050042,-0.13635599315241123,-0.13147927809248017,0.3186150016643662,-0.008824425486750092,3.211468200752927,-7.283564,112.796618,1.6493914118779343,0.05010893246187364
2000-01-01 08:09:10.869156,-0.4465952240722655,0.18045337332763678,-6.803022900763359,-7.283549166666667,112.796618,0.06667760416514674,-0.13005751936875434,3.1967709762793906,-0.1269737996368786,-0.1311205034848486,0.3189508229745413,-0.00908729679214937,3.209431512978061,-7.283564,112.796618,1.6493914118779343,0.05010893246187364
2000-01-01 08:09:10.884043,-0.4992676605957027,0.22833740653076173,-7.245770992366412,-7.283549166666667,112.796618,0.06493610316938235,-0.13201418094138323,3.1948883614149284,-0.11698339340543393,-0.13143656596743386,0.31934826285025786,-0.009306533967280303,3.2076639340620634,-7.283564,112.796618,1.6493914118779343,0.05010893246187364
2000-01-01 08:09:10.898932,-0.4274416107910155,0.4102967327026367,-9.299206106870228,-7.283549166666667,112.796618,0.06332643462968247,-0.1340163161687431,3.1924718307974405,-0.10811038030308245,-0.13446967217762124,0.3198058074726742,-0.009497756421823898,3.205781017687361,-7.283564,112.796618,1.6493914118779343,0.05010893246187364
2000-01-01 08:09:10.914061,-0.3580097626464842,0.5515546306518555,-11.222870229007633,-7.283549166666667,112.796618,0.061809697238403134,-0.136129728227387,3.189508451431253,-0.10025463253002108,-0.13969415572009075,0.32028163387334074,-0.009724045226916219,3.203325578487164,-7.283564,112.796618,1.6493914118779343,0.05010893246187364
2000-01-01 08:09:10.928546,-0.40589379584960916,0.3504416911987305,-12.94806106870229,-7.283549166666667,112.796618,0.060473175425569174,-0.138180937627672,3.1862351203789903,-0.09227163737851167,-0.14161269060709777,0.32083323501528976,-0.00990952340916932,3.2004883838353004,-7.283564,112.796618,1.6493914118779343,0.05010893246187364
2000-01-01 08:09:10.942490,-0.34125035102539014,0.19960698660888676,-13.719053435114503,-7.283549166666667,112.796618,0.05927882839669258,-0.14015137901963015,3.1828963819800045,-0.08565439596141203,-0.141313172072183,0.32143233610278193,-0.01003036402112994,3.197337278047503,-7.283564,112.796618,1.6493914118779343,0.05010893246187364
2000-01-01 08:09:10.957124,-0.14013741157226534,0.08947371024169926,-13.94806106870229,-7.283549166666667,112.796618,0.05808050956092298,-0.14219568671104113,3.1793338257730706,-0.08188453150664782,-0.13969335419743853,0.32196726677220916,-0.010209838277849295,3.1938332140254295,-7.283564,112.796618,1.6493914118779343,0.05010893246187364
2000-01-01 08:09:10.971851,0.07534073784179718,-0.044601582727050726,-13.245770992366412,-7.283549166666667,112.796618,0.056882395020056785,-0.14420286419806308,3.175929232194843,-0.08135564136076727,-0.13629348965542717,0.32245993568106923,-0.010350673405150565,3.1902481090760384,-7.283564,112.796618,1.6493914118779343,0.05010893246187364
2000-01-01 08:09:10.991083,-0.18083883979492166,-0.06375519600830071,-11.93279389312977,-7.283549166666667,112.796618,0.05541388024048833,-0.14674653884377142,3.1719238676554147,-0.07635821723314586,-0.1322631980758951,0.3226035121110261,-0.010909147575088268,3.185802030319851,-7.283564,112.796618,1.6493914118779343,0.05010893246187364
2000-01-01 08:09:11.008943,-0.6213719452636717,-0.25529132882080074,-10.261038167938931,-7.283549166666667,112.796618,0.054269354564254614,-0.14897657766550118,3.16872518060095,-0.06407999335144003,-0.12485597819014382,0.32290535943887244,-0.011144725292732515,3.182082204633127,-7.283564,112.796618,1.6493914118779343,0.05010893246187364
2000-01-01 08:09:11.022646,-0.616583541943359,-0.21458990059814453,-9.192335877862595,-7.283549166666667,112.796618,0.05352130935174558,-0.15061085818302875,3.1665268545749283,-0.054593256198908695,-0.11927179467536583,0.32355216676602594,-0.0108139651263583,3.179628300907426,-7.283564,112.796618,1.6493914118779343,0.05010893246187364
2000-01-01 08:09:11.037406,-0.7602356415527343,-0.1475522541137695,-8.657984732824426,-7.283549166666667,112.796618,0.05289317062136096,-0.15230096378768648,3.1642964092841064,-0.042555743293148,-0.11450289047784938,0.32415686520305015,-0.010578066608726244,3.177260197601272,-7.283564,112.796618,1.6493914118779343,0.05010893246187364
2000-01-01 08:09:11.050310,-0.8033312714355465,-0.09487981759033204,-8.970961832061068,-7.283549166666667,112.796618,0.05248575989542385,-0.15373074670016815,3.1622760234211005,-0.03157290290435418,-0.11080316299050366,0.32487068424112436,-0.010157495631628575,3.175310298551005,-7.283564,112.796618,1.6493914118779343,0.05010893246187364
2000-01-01 08:09:11.064007,-0.8272732880371092,0.058349088659668036,-9.673251908396946,-7.283549166666667,112.796618,0.05221422599198994,-0.1552259861736069,3.159963572979314,-0.019824465827229173,-0.10916619792166896,0.32556827746531286,-0.009840936785961488,3.1731657348770463,-7.283564,112.796618,1.6493914118779343,0.05010893246187364
2000-01-01 08:09:11.079500,-0.8200906830566401,-0.025447969445800744,-10.451877862595419,-7.283549166666667,112.796618,0.0521060273337695,-0.15687455457650532,3.157137229677426,-0.006983427944427387,-0.1064029706324603,0.32626734502238414,-0.009711923264710062,3.170549943619418,-7.283564,112.796618,1.6493914118779343,0.05010893246187364
2000-01-01 08:09:11.096483,-0.7219284149902339,-0.08530301094970705,-10.329740458015266,-7.283549166666667,112.796618,0.05219353520797034,-0.15861877807644154,3.1540754360552903,0.005152737246312621,-0.10270533338962705,0.32702325346729066,-0.009684609054211209,3.167451947778273,-7.283564,112.796618,1.6493914118779343,0.05010893246187364
2000-01-01 08:09:11.109595,-0.5639111054199217,-0.21698410225830078,-9.558748091603052,-7.283549166666667,112.796618,0.0523543753949405,-0.1599009771087789,3.151887948281663,0.012266687993921157,-0.09778859234171464,0.3278077246385865,-0.00929043618560629,3.165088020960649,-7.283564,112.796618,1.6493914118779343,0.05010893246187364
2000-01-01 08:09:11.122823,-0.36519236762695284,-0.3079637653442382,-8.848824427480915,-7.283549166666667,112.796618,0.05257558818965767,-0.16111536548335598,3.149844936814652,0.01672254541369454,-0.091801492629264,0.32854582954523764,-0.008920354580938296,3.162881102728577,-7.283564,112.796618,1.6493914118779343,0.05010893246187364
2000-01-01 08:09:11.137535,-0.32209673774414016,-0.25050292550048825,-7.696152671755725,-7.283549166666667,112.796618,0.05288466342572087,-0.16238533301817776,3.1478688411066456,0.02100909170191464,-0.08632482089917454,0.32923996585542514,-0.008651990174432649,3.1606090422955475,-7.283564,112.796618,1.6493914118779343,0.05010893246187364
2000-01-01 08:09:11.152010,-0.08985917670898402,-0.2624739338012695,-6.61981679389313,-7.283549166666667,112.796618,0.05320089054656643,-0.16355591334931896,3.146196435750435,0.02184645135468055,-0.0808691746382845,0.32987352492945554,-0.008340325079118513,3.158664715533766,-7.283564,112.796618,1.6493914118779343,0.05010893246187364
2000-01-01 08:09:11.166782,-0.17126203315429667,-0.16431166573486322,-5.367908396946565,-7.283549166666667,112.796618,0.053553670483077354,-0.16469138743146217,3.14481245368132,0.023881185271467834,-0.07686510518370195,0.33042308697828443,-0.008028754018242684,3.156957959928773,-7.283564,112.796618,1.6493914118779343,0.05010893246187364
2000-01-01 08:09:11.182509,-0.05634035346679678,-0.14036964913330074,-4.871725190839695,-7.283549166666667,112.796618,0.05393533174022079,-0.1658420207592539,3.1434752202419385,0.02426783302228112,-0.07316272465723966,0.330931106285146,-0.007770572317151796,3.155484529813825,-7.283564,112.796618,1.6493914118779343,0.05010893246187364
2000-01-01 08:09:11.197320,-0.03239833686523408,-0.14515805245361324,-4.864091603053435,-7.283549166666667,112.796618,0.054294502709561675,-0.16687270577713503,3.1422179064950297,0.024251392221225947,-0.06959233556945445,0.3313444383968676,-0.0074478634945278595,3.154225242869114,-7.283564,112.796618,1.6493914118779343,0.05010893246187364
2000-01-01 08:09:11.211987,-0.08507077338867175,-0.16191746407470697,-4.696152671755725,-7.283549166666667,112.796618,0.05466106092885538,-0.16783893270628614,3.141015679193701,0.024990557860527916,-0.06587371039142662,0.33168878801051416,-0.007123169107825112,3.152980022764469,-7.283564,112.796618,1.6493914118779343,0.05010893246187364
2000-01-01 08:09:11.225057,-0.21914606635742162,-0.33190578194580067,-3.535847328244275,-7.283549166666667,112.796618,0.05501790038601004,-0.1686271355791302,3.1402091385980766,0.027303448975712023,-0.06030907314120419,0.3319539740751926,-0.006723487937492773,3.151908811984873,-7.283564,112.796618,1.6493914118779343,0.05010893246187364
2000-01-01 08:09:11.239719,-0.1784446381347653,-0.35584779854736315,-2.535847328244275,-7.283549166666667,112.796618,0.055447964036104254,-0.16941881192707076,3.1395602136123104,0.029331799727543833,-0.0539950123237313,0.33223923992575644,-0.006402909836439146,3.1510039863466743,-7.283564,112.796618,1.6493914118779343,0.05010893246187364
2000-01-01 08:09:11.255190,-0.07070556342773404,-0.24571452218017575,-1.5358473282442748,-7.283549166666667,112.796618,0.05590939487221986,-0.17017984930772412,3.1391455143675744,0.029826258915570864,-0.04919241668129018,0.3325236488247063,-0.006086472361878663,3.150319273776323,-7.283564,112.796618,1.6493914118779343,0.05010893246187364
2000-01-01 08:09:11.270614,0.029850906298828583,-0.23134931221923827,-1.6274503816793893,-7.283549166666667,112.796618,0.05635343757424985,-0.17086947158711624,3.138707398256826,0.028788606073131846,-0.044710258833021765,0.33276730089805623,-0.005752491754375567,3.149905817571619,-7.283564,112.796618,1.6493914118779343,0.05010893246187364
2000-01-01 08:09:11.285296,0.039427712939453574,-0.2624739338012695,-1.5282137404580152,-7.283549166666667,112.796618,0.05675951574901528,-0.17145731059791922,3.138315790012326,0.027657905584166056,-0.040037600811395305,0.33294050825196936,-0.00538621996780771,3.1494887797122493,-7.283564,112.796618,1.6493914118779343,0.05010893246187364
2000-01-01 08:09:11.300890,0.015485696337890875,-0.25529132882080074,-1.749587786259542,-7.283549166666667,112.796618,0.05717872529760096,-0.17200831845378034,3.137839610406398,0.026882736850917452,-0.03533459398021213,0.33309210756938595,-0.0050472188543507985,3.149072850758915,-7.283564,112.796618,1.6493914118779343,0.05010893246187364
2000-01-01 08:09:11.316277,0.11843636772460941,-0.39654922677001947,-1.3908091603053434,-7.283549166666667,112.796618,0.05755700361329094,-0.17244902292429762,3.1374660961030396,0.02458380595627079,-0.028640798951152895,0.3332038824445329,-0.0046929774592098725,3.148602983230141,-7.283564,112.796618,1.6493914118779343,0.05010893246187364
2000-01-01 08:09:11.331700,0.20223342583007842,-0.5402013263793946,0.12064122137404582,-7.283549166666667,112.796618,0.05788195275848699,-0.17275579839855648,3.1374985709402505,0.02106888288659461,-0.01989054790631909,0.3332679492743203,-0.004308135338112869,3.1482285979200637,-7.283564,112.796618,1.6493914118779343,0.05010893246187364
2000-01-01 08:09:11.346264,0.2716652739746097,-0.5952679645629881,1.7771297709923666,-7.283549166666667,112.796618,0.05812663173650642,-0.172915746389289,3.1379502706942195,0.01680131652897449,-0.010983112820820871,0.33326138543821093,-0.0038588959208764274,3.1482592617527803,-7.283564,112.796618,1.6493914118779343,0.05010893246187364
2000-01-01 08:09:11.360029,0.40813476860351594,-0.5593549396606445,3.433618320610687,-7.283549166666667,112.796618,0.05827778970466863,-0.17295982389743478,3.138775234657151,0.010980584367356726,-0.0032019271149387393,0.333193539127801,-0.003368196703220058,3.1486862364138024,-7.283564,112.796618,1.6493914118779343,0.05010893246187364
2000-01-01 08:09:11.373719,0.4464419951660159,-0.43006805001220694,4.04430534351145,-7.283549166666667,112.796618,0.05834325749150951,-0.17292364536157828,3.1397415206392516,0.004782371232078128,0.002642814083808927,0.3330691415634931,-0.002867314412511099,3.1495066139494434,-7.283564,112.796618,1.6493914118779343,0.05010893246187364
2000-01-01 08:09:11.388702,0.3363087187988283,-0.2888101520629882,4.578656488549618,-7.283549166666667,112.796618,0.058339531231557266,-0.1728212513290606,3.1409388657494928,-0.00024869624821349974,0.006833933234120735,0.33289739059745604,-0.002374418732456057,3.1505642231497593,-7.283564,112.796618,1.6493914118779343,0.05010893246187364
2000-01-01 08:09:11.403495,0.33391451713867215,-0.12121603585205076,4.418351145038168,-7.283549166666667,112.796618,0.05826430159624289,-0.17269621658030404,3.1420796367674773,-0.005085434595026733,0.008452201506094527,0.3326894723005052,-0.0019084067659220832,3.151746383293212,-7.283564,112.796618,1.6493914118779343,0.05010893246187364
2000-01-01 08:09:11.418667,0.34827972709960964,0.012859257116699219,4.342015267175572,-7.283549166666667,112.796618,0.05811012998705345,-0.17257357581288316,3.143229390578011,-0.01016174427767288,0.008083486467454236,0.3324524811232177,-0.0014934766326811634,3.152916350636185,-7.283564,112.796618,1.6493914118779343,0.05010893246187364
2000-01-01 08:09:11.434053,0.19505082084960979,-0.05417838936767572,4.632091603053435,-7.283549166666667,112.796618,0.05791162565106325,-0.17243925447166175,3.144473255132899,-0.012901832882052164,0.008730245051258093,0.33218647489081876,-0.0011478890947771389,3.1540823204291963,-7.283564,112.796618,1.6493914118779343,0.05010893246187364
2000-01-01 08:09:11.449538,0.08970594780273444,-0.25529132882080074,3.7923969465648852,-7.283549166666667,112.796618,0.05769452346530595,-0.17224686353848728,3.145498199697367,-0.014020224733913792,0.012424398724796804,0.3319265561562021,-0.0008484593557991555,3.155334203388064,-7.283564,112.796618,1.6493914118779343,0.05010893246187364
2000-01-01 08:09:11.465093,-0.09225337836914038,-0.2744449421020507,7.418351145038168,-7.283549166666667,112.796618,0.0575022870930645,-0.1719922574259442,3.147512211913374,-0.012358285270376518,0.016367844095792967,0.33169316632229584,-0.0005482062284729339,3.1563638033124946,-7.283564,112.796618,1.6493914118779343,0.05010893246187364
2000-01-01 08:09:11.481514,-0.06831136176757768,-0.21458990059814453,8.960335877862596,-7.283549166666667,112.796618,0.05732097698104748,-0.17167199138530737,3.1500802985433713,-0.01104114245997777,0.01950306544089698,0.3315104140122304,-0.00023261771374318173,3.158489947761975,-7.283564,112.796618,1.6493914118779343,0.05010893246187364
2000-01-01 08:09:11.499910,-0.2143576630371089,-0.04938998604736322,10.464152671755725,-7.283549166666667,112.796618,0.05719281968593557,-0.17130317967094297,3.1534399268733058,-0.006966803042110198,0.02004910115616983,0.3313578667750371,0.00010723912639509664,3.1613667595980877,-7.283564,112.796618,1.6493914118779343,0.05010893246187364
2000-01-01 08:09:11.514005,-0.2550590912597652,-0.02065956612548825,11.2427786259542,-7.283550333333333,112.79661816666666,0.05714618149339889,-0.17102147839129933,3.1562058274607208,-0.003308690704893802,0.019984959854103354,0.3313180611040701,0.000327415809399697,3.163941105939373,-7.283564,112.796618,1.5197751800826518,0.05010893246187364
2000-01-01 08:09:11.528010,-0.34125035102539014,0.07271429862060552,11.769496183206108,-7.283550333333333,112.79661816666666,0.05716659758331384,-0.17076001751443787,3.159082649348424,0.0014577895590717977,0.018669340602540784,0.33132808024945254,0.0005098560510480615,3.1666891820784264,-7.283564,112.796618,1.5197751800826518,0.05010893246187364
2000-01-01 08:09:11.541712,-0.21914606635742162,0.13975194510498046,13.38018320610687,-7.283550333333333,112.79661816666666,0.05722701609267859,-0.17053420086939455,3.162282433773155,0.004409493570604176,0.016480662216317974,0.33139203934707756,0.0006430695606181362,3.1695037811010143,-7.283564,112.796618,1.5197751800826518,0.05010893246187364
2000-01-01 08:09:11.556519,-0.30054892280273426,0.11820413016357423,14.57102290076336,-7.283550333333333,112.79661816666666,0.057356175125673044,-0.17031886803079482,3.1660479418230603,0.008723055040774854,0.014543002991299592,0.331483893204915,0.0007447783601447414,3.1729615471010364,-7.283564,112.796618,1.5197751800826518,0.05010893246187364
2000-01-01 08:09:11.572249,-0.7051690033691402,0.08947371024169926,16.00613740458015,-7.283550333333333,112.79661816666666,0.05766221036860945,-0.17011142884051628,3.1704424444933124,0.019454748383411876,0.013186968968035886,0.3316215495929889,0.0008166521669700756,3.176962037502136,-7.283564,112.796618,1.5197751800826518,0.05010893246187364
2000-01-01 08:09:11.587729,-0.8224848847167965,0.1565113567260742,17.37254961832061,-7.283550333333333,112.79661816666666,0.058151601985484455,-0.1699416375810194,3.1751359752826382,0.0316153346305841,0.010968736082197766,0.3318748959827715,0.0008559464608820066,3.1812864055642285,-7.283564,112.796618,1.5197751800826518,0.05010893246187364
2000-01-01 08:09:11.604349,-0.7195342133300779,0.21397219656982425,18.18934351145038,-7.283550333333333,112.79661816666666,0.0588634276718161,-0.1698133017614004,3.1804122763740685,0.04282905355735976,0.007721696192386631,0.3322753379904559,0.0008694359479646279,3.186325773942442,-7.283564,112.796618,1.5197751800826518,0.05010893246187364
2000-01-01 08:09:11.622276,-0.8943109345214841,0.34325908621826173,17.265679389312975,-7.283550333333333,112.79661816666666,0.05990202120699712,-0.16977319498361954,3.185814394890711,0.057935204832843326,0.002237250962199827,0.33281213303109247,0.0008421378902623861,3.192016890241613,-7.283564,112.796618,1.5197751800826518,0.05010893246187364
2000-01-01 08:09:11.638815,-1.2342875702636715,0.6928125286010742,13.5633893129771,-7.283550333333333,112.79661816666666,0.061180518226025785,-0.16990652592782826,3.189729710499882,0.07729983005845356,-0.008061387062675292,0.3334198298778485,0.0007340701485995433,3.1970009382886038,-7.283564,112.796618,1.5197751800826518,0.05010893246187364
2000-01-01 08:09:11.651327,-1.4665251312988277,0.7239371501831054,10.143541984732826,-7.283550333333333,112.79661816666666,0.062358564041389695,-0.17010495591887836,3.1919446803420968,0.09415889693505816,-0.015860120915873063,0.3339415229760638,0.0005300555932654233,3.1999626747640564,-7.283564,112.796618,1.5197751800826518,0.05010893246187364
2000-01-01 08:09:11.664173,-1.2702005951660151,0.7047835369018555,7.265679389312977,-7.283550333333333,112.79661816666666,0.0637550273960053,-0.1704077777981267,3.193573711309938,0.10870607141882406,-0.02357281823683177,0.3345870814138566,0.00027300483784765186,3.2022369485286037,-7.283564,112.796618,1.5197751800826518,0.05010893246187364
2000-01-01 08:09:11.677886,-1.1097890839355466,0.5228242107299805,4.861099236641222,-7.283550333333333,112.79661816666666,0.06542531291868631,-0.1708099327668571,3.194737192862498,0.12179881688366413,-0.02932552472623441,0.3353679243920961,-4.345424314916909e-05,3.203975955186308,-7.283564,112.796618,1.5197751800826518,0.05010893246187364
2000-01-01 08:09:11.693065,-1.0523282440917967,0.36959530447998046,4.189343511450382,-7.283550333333333,112.79661816666666,0.06747882231372318,-0.17131658563691282,3.195847007722382,0.1352911843557594,-0.033379767831961844,0.33632286076707246,-0.00041175745202808766,3.2052637274001285,-7.283564,112.796618,1.5197751800826518,0.05010893246187364
2000-01-01 08:09:11.708966,-0.9014935395019528,0.24749101981201171,4.258045801526717,-7.283550333333333,112.79661816666666,0.06981354607332564,-0.1718856081694808,3.197028745361935,0.14682571712715578,-0.035784593814230645,0.3373744411689034,-0.0007923694948862763,3.20642639805781,-7.283564,112.796618,1.5197751800826518,0.05010893246187364
2000-01-01 08:09:11.723600,-0.8895225312011714,0.05116648367919929,5.326748091603053,-7.283550333333333,112.79661816666666,0.07210625671812601,-0.1723989389755556,3.1983892813807437,0.15666743392981095,-0.03507735279514993,0.33825666745854505,-0.0011058517661239142,3.2075139705472706,-7.283564,112.796618,1.5197751800826518,0.05010893246187364
2000-01-01 08:09:11.737797,-1.3109020233886715,-0.1882536823364257,6.364916030534351,-7.283550333333333,112.79661816666666,0.0745422346058736,-0.17283473480715356,3.1999663676156556,0.17158840874114156,-0.030697123178345907,0.3390640756572151,-0.0013477850315239141,3.2088338215950785,-7.283564,112.796618,1.5197751800826518,0.05010893246187364
2000-01-01 08:09:11.752078,-0.8224848847167965,0.05116648367919929,7.464152671755725,-7.283550333333333,112.79661816666666,0.07710841489538041,-0.17326466952330463,3.2018268312011755,0.17968998494143676,-0.0301050409384266,0.3399348145569665,-0.0015009827289580472,3.2104202969822326,-7.283564,112.796618,1.5197751800826518,0.05010893246187364
2000-01-01 08:09:11.766596,-0.6094009369628903,0.16608816336669918,8.174076335877864,-7.283550333333333,112.79661816666666,0.07979279767761199,-0.17371940426059113,3.2038980723000052,0.18489699216745598,-0.03132157072190498,0.340799667123239,-0.0016285426843524544,3.2123116494906285,-7.283564,112.796618,1.5197751800826518,0.05010893246187364
2000-01-01 08:09:11.781104,-0.5830647187011717,0.4438155559448242,8.677893129770993,-7.283550333333333,112.79661816666666,0.0825475563029526,-0.1742483338695794,3.206095423524192,0.18987847564215243,-0.03645776691752003,0.3415886115103197,-0.0017503881685249738,3.214381427992696,-7.283564,112.796618,1.5197751800826518,0.05010893246187364
2000-01-01 08:09:11.795434,-0.690803793408203,0.7406965618041992,7.509954198473283,-7.283550333333333,112.79661816666666,0.08536272639200636,-0.1748998425577278,3.2079737252295812,0.196450863741761,-0.04546419593603749,0.34228556980870106,-0.0019104517357077366,3.216551840891905,-7.283564,112.796618,1.5197751800826518,0.05010893246187364
2000-01-01 08:09:11.809161,-0.633342953564453,0.9250500896362305,5.4336183206106865,-7.283550333333333,112.79661816666666,0.08813367738258882,-0.17567395691809234,3.2092755027466584,0.20186386027849076,-0.056394253673664685,0.3428573198993132,-0.0021319184534022402,3.2183510636110952,-7.283564,112.796618,1.5197751800826518,0.05010893246187364
2000-01-01 08:09:11.824008,-0.7315052216308588,1.085461600866699,2.9374351145038164,-7.283550333333333,112.79661816666666,0.09124453383312345,-0.17671764052712602,3.2100366856418168,0.20952536237570113,-0.0702951710776552,0.3435851312045532,-0.0024967330433834692,3.2197590869931427,-7.283564,112.796618,1.5197751800826518,0.05010893246187364
2000-01-01 08:09:11.838689,-0.4394126190917964,1.0782789958862304,0.09774045801526718,-7.283550333333333,112.79661816666666,0.0943671761025425,-0.17794985022966686,3.21006172941604,0.21270328233133973,-0.0839337412478309,0.3442614774090511,-0.0029670329170827393,3.220511738078449,-7.283564,112.796618,1.5197751800826518,0.05010893246187364
2000-01-01 08:09:11.853418,-0.15450262153320304,0.834070426550293,-1.4824122137404578,-7.283550333333333,112.79661816666666,0.09748224034801443,-0.17933605638360886,3.209680648871716,0.2114932851772882,-0.09411468603137908,0.3448751076985401,-0.003533665687363936,3.2205368640094134,-7.283564,112.796618,1.5197751800826518,0.05010893246187364
2000-01-01 08:09:11.868173,-0.38195177924804646,0.5060647991088867,-2.4595114503816795,-7.283550333333333,112.79661816666666,0.10062905069229866,-0.18079920525566767,3.2090472566003343,0.2132671796515107,-0.09916124558350162,0.3453776459391849,-0.004137266496612203,3.2201551018350436,-7.283564,112.796618,1.5197751800826518,0.05010893246187364
2000-01-01 08:09:11.882028,-0.2718185028808593,0.2929808513549805,-2.665618320610687,-7.283550333333333,112.79661816666666,0.10357938980180743,-0.18219714660776165,3.2084026866724327,0.21294979613613838,-0.10090071510059508,0.3456682532022404,-0.004634153667037674,3.2195603703590527,-7.283564,112.796618,1.5197751800826518,0.05010893246187364
2000-01-01 08:09:11.896284,-0.1880214447753903,0.22833740653076173,-2.1999694656488553,-7.283550333333333,112.79661816666666,0.10659476085302476,-0.18364966673231048,3.2078553214549075,0.21152299407287012,-0.10189174084284897,0.3459807521608994,-0.005106019397289763,3.218897148994083,-7.283564,112.796618,1.5197751800826518,0.05010893246187364
2000-01-01 08:09:11.909457,-0.018033126904296815,0.1373577434448242,-1.8259236641221372,-7.283550333333333,112.79661816666666,0.10933009340024707,-0.1849881838699903,3.207435508396366,0.20764150804743217,-0.10160801738618686,0.3460470604151377,-0.005426444590143333,3.218391336002982,-7.283564,112.796618,1.5197751800826518,0.05010893246187364
2000-01-01 08:09:11.924357,0.03463930961914086,0.12299253348388672,-2.535847328244275,-7.283550333333333,112.79661816666666,0.1123562426819038,-0.18649902987635433,3.2067760629264983,0.2031009382764734,-0.1014008936518171,0.3463500217545117,-0.005836065057371988,3.217916505726246,-7.283564,112.796618,1.5197751800826518,0.05010893246187364
2000-01-01 08:09:11.938741,0.037033511279297215,0.16369396170654293,-4.032030534351145,-7.283550333333333,112.79661816666666,0.11521397781549529,-0.1879620786344474,3.205763784933913,0.1986659136592984,-0.10170918740442263,0.34645965497170245,-0.006133651900268052,3.2172798581559787,-7.283564,112.796618,1.5197751800826518,0.05010893246187364
2000-01-01 08:09:11.953531,-0.09704178168945266,0.03919547537841794,-4.0243969465648854,-7.283550333333333,112.79661816666666,0.1181146900103198,-0.1894433029134178,3.2047249798713797,0.19613213763220883,-0.10015322604756768,0.3465596052536133,-0.00641950718646291,3.216239082659181,-7.283564,112.796618,1.5197751800826518,0.05010893246187364
2000-01-01 08:09:11.968932,-0.14013741157226534,-0.023053767785644497,-3.535847328244275,-7.283550333333333,112.79661816666666,0.12110720518467162,-0.19094759937966585,3.2037745134843694,0.19429895765947683,-0.09767142967491968,0.3467010895782274,-0.006686505685634819,3.2151572899032717,-7.283564,112.796618,1.5197751800826518,0.05010893246187364
2000-01-01 08:09:11.984252,-0.13774320991210898,-0.10206242257080078,-2.818290076335878,-7.283550333333333,112.79661816666666,0.12405450221741758,-0.19238861804325638,3.203020949349276,0.19238302325265957,-0.09406161780944185,0.3467750673715978,-0.006868135582723088,3.214211862831693,-7.283564,112.796618,1.5197751800826518,0.05010893246187364
2000-01-01 08:09:11.998679,-0.19759825141601528,0.10862732352294924,-3.421343511450382,-7.283550333333333,112.79661816666666,0.1268159250447047,-0.19373810854009066,3.2021595055647474,0.1914167847256848,-0.09354421545636911,0.34667263861980097,-0.0069053333845372255,3.2135022589988322,-7.283564,112.796618,1.5197751800826518,0.05010893246187364
2000-01-01 08:09:12.013424,-0.18083883979492166,0.18763597830810552,-3.703786259541985,-7.283550333333333,112.79661816666666,0.12962289846331557,-0.1951275131074348,3.2012062945779176,0.1903586185094626,-0.09422431015440792,0.3466241068630542,-0.0069543266370482235,3.2126217378250117,-7.283564,112.796618,1.5197751800826518,0.05010893246187364
2000-01-01 08:09:12.031256,-0.2550590912597652,0.16608816336669918,-4.077832061068702,-7.283550333333333,112.79661816666666,0.1330318562601336,-0.19682115457083546,3.1999371597785933,0.19117036785561606,-0.09497743324251123,0.347023013453221,-0.007229150284618474,3.2114690164866024,-7.283564,112.796618,1.5197751800826518,0.05010893246187364
2000-01-01 08:09:12.045844,-0.24548228461914023,0.3001634563354492,-4.772488549618321,-7.283550333333333,112.79661816666666,0.13581958367462965,-0.19823856146674873,3.1987220332056467,0.19109575964715442,-0.09716174045396206,0.34686443278780726,-0.007219243404382138,3.210430756877197,-7.283564,112.796618,1.5197751800826518,0.05010893246187364
2000-01-01 08:09:12.059754,-0.19759825141601528,0.22594320487060549,-4.963328244274809,-7.283550333333333,112.79661816666666,0.13846433187818408,-0.1996037140563889,3.1975170755823332,0.1901353736443915,-0.09814310389321937,0.3466356418329658,-0.007188984255043096,3.209272129807413,-7.283564,112.796618,1.5197751800826518,0.05010893246187364
2000-01-01 08:09:12.072581,-0.17605043647460894,0.21876059989013674,-4.726687022900763,-7.283550333333333,112.79661816666666,0.1408846382916423,-0.20087104915377355,3.196458922472405,0.18869311457821614,-0.0988045998680422,0.3462824337523198,-0.007096813797977353,3.20816100034362,-7.283564,112.796618,1.5197751800826518,0.05010893246187364
2000-01-01 08:09:12.084957,-0.12577220161132807,0.1612997600463867,-4.894625954198474,-7.283550333333333,112.79661816666666,0.14319334321034224,-0.20209255485292923,3.1954016779323458,0.1865476805402353,-0.09869994779258687,0.3459194929877463,-0.0069992501809144755,3.207140030795734,-7.283564,112.796618,1.5197751800826518,0.05010893246187364
2000-01-01 08:09:12.097625,-0.06112875678710905,0.17566497000732428,-4.627450381679389,-7.283550333333333,112.79661816666666,0.14552041388216846,-0.20334500959104562,3.19437851686742,0.1836896580840202,-0.0988637712621605,0.34564998489755283,-0.006946440013466625,3.2060577953765192,-7.283564,112.796618,1.5197751800826518,0.05010893246187364
2000-01-01 08:09:12.110729,0.022668301318359507,0.3097402629760742,-4.932793893129771,-7.283550333333333,112.79661816666666,0.14787823819559287,-0.20466686943190834,3.193250340725299,0.1799305335291004,-0.10087390526213165,0.34546561995955577,-0.006942861994604418,3.204999454153966,-7.283564,112.796618,1.5197751800826518,0.05010893246187364
2000-01-01 08:09:12.126427,-0.022821530224609088,0.33368227957763674,-5.925160305343511,-7.283550333333333,112.79661816666666,0.1506556755194531,-0.2062988291492404,3.1916270455590157,0.17693927530572903,-0.10396553946770733,0.3456387187873846,-0.007170819750604548,3.203648034096053,-7.283564,112.796618,1.5197751800826518,0.05010893246187364
2000-01-01 08:09:12.141813,0.049004519580078565,0.336076481237793,-6.719053435114504,-7.283551666666667,112.79661833333333,0.1533160985266752,-0.20794492777517296,3.189822681212187,0.17290673909528234,-0.10698356797643878,0.3456871949157854,-0.007370361310310779,3.202056865323926,-7.283564,112.796618,1.3718968341111213,0.05010893246187364
