timestamp,imu_accel_x,imu_accel_y,imu_gyro_z,gps_lat,gps_lng,odom_x,odom_y,odom_heading,odom_vx,odom_vy,ekf_x,ekf_y,ekf_heading,map_matched_lat,map_matched_lng,distance_to_path,progress
2025-04-30 00:20:35.712511,0.0020159177978515963,-0.02144965267333976,0.10648091603053433,,,0.0,0.0,3.141592653589793,0.0,0.0,0.0,0.0,3.141592653589793,,,,
2025-04-30 00:20:35.725591,-0.0075608888427733945,-0.00947864437255852,0.05304580152671756,,,0.0,0.0,3.1416047636982003,0.0,0.0,0.0,0.0,3.141592653589793,,,,
2025-04-30 00:20:35.739010,-0.029108703784179735,-0.03102645931396475,0.07594656488549617,,,0.0,0.0,3.1416225500715216,0.0,0.0,0.0,0.0,3.1416050766984687,,,,
2025-04-30 00:20:35.751987,-0.002772485522460677,0.016857573889160204,0.05304580152671756,,,0.0,0.0,3.1416345646022728,0.0,0.0,0.0,0.0,3.1416222781039145,,,,
2025-04-30 00:20:35.766540,0.013986926098632946,-0.016661249353027263,0.0225114503816794,,,0.0,0.0,3.1416402826752585,0.0,0.0,0.0,0.0,3.1416357521253384,,,,
2025-04-30 00:20:35.782590,-0.024320300463867017,-0.004690241052246025,0.09884732824427478,,,0.0,0.0,3.1416679720789418,0.0,0.0,0.0,0.0,3.1416420580988857,,,,
2025-04-30 00:20:35.798081,0.028352136059570654,0.014463372229003957,-0.00802290076335882,,,0.0,0.0,3.141665803001194,0.0,0.0,0.0,0.0,3.1416687825401364,,,,
2025-04-30 00:20:35.810864,-0.019531897143554744,-0.007084442712402272,-0.00802290076335882,,,0.0,0.0,3.141664012974557,0.0,0.0,0.0,0.0,3.1416669925134992,,,,
2025-04-30 00:20:35.825755,0.04271734602050792,-0.007084442712402272,-0.1912290076335878,,,0.0,0.0,3.141614315027741,0.0,0.0,0.0,0.0,3.1416649074653136,,,,
2025-04-30 00:20:35.839045,0.03074633771972657,0.014463372229003957,0.1370152671755725,,,0.0,0.0,3.141646097271475,0.0,0.0,0.0,0.0,3.1416205497301872,,,,
2025-04-30 00:20:35.853134,0.04032314436035156,0.026434380529785306,0.04541221374045801,,,0.0,0.0,3.141657263816603,0.0,0.0,0.0,0.0,3.1416542408242374,,,,
2025-04-30 00:20:35.866050,-0.002772485522460677,-0.026238055993652254,0.0225114503816794,,,0.0,0.0,3.141662338440106,0.0,0.0,0.0,0.0,3.141664477831772,,,,
2025-04-30 00:20:35.878848,0.011592724438476587,-0.00947864437255852,0.06067938931297706,,,0.0,0.0,3.141675892555274,0.0,0.0,0.0,0.0,3.1416695062737934,,,,
2025-04-30 00:20:35.892271,-0.014743493823242027,0.007280767248535214,0.007244274809160289,,,0.0,0.0,3.141677589737553,0.0,0.0,0.0,0.0,3.1416837221873193,,,,
2025-04-30 00:20:35.905399,-0.009955090502929753,0.04558799381103529,0.0225114503816794,,,0.0,0.0,3.141682747731276,0.0,0.0,0.0,0.0,3.1416853820503383,,,,
2025-04-30 00:20:35.918116,0.028352136059570654,0.11023143863525398,-0.01565648854961832,,,-4.491619268919516e-06,-1.7469423976541265e-05,3.141679272846468,-0.0003532110292312316,-0.0013737569578810757,0.0,0.0,3.141690378362039,,,,
2025-04-30 00:20:35.930565,-0.024320300463867017,0.028828582189941554,0.17518320610687022,,,-4.491619268919516e-06,-1.7469423976541265e-05,3.141717336768312,-0.0002825688233849853,-0.0010990055663048605,-4.397217536530016e-06,-1.7102263763598978e-05,3.1416869765099453,,,,
2025-04-30 00:20:35.945141,-0.019531897143554744,0.0024923639282227184,-0.504206106870229,,,-4.491619268919516e-06,-1.7469423976541265e-05,3.141589067509624,-0.00022605505870798828,-0.0008792044530438885,-8.515928909493078e-06,-3.312132301672273e-05,3.141731542848345,,,,
2025-04-30 00:20:35.958385,0.035534741040039286,-0.0286322576538085,-0.0767251908396947,,,-4.491619268919516e-06,-1.7469423976541265e-05,3.1415713321702383,-0.00018084404696639062,-0.0007033635624351109,-1.1509836483009149e-05,-4.476564049265866e-05,3.141614993559544,,,,
2025-04-30 00:20:35.971071,0.021169531079101578,-0.03102645931396475,0.10648091603053433,,,-4.491619268919516e-06,-1.7469423976541265e-05,3.141594907512918,-0.0001446752375731125,-0.0005626908499480887,-1.380394039320277e-05,-5.3688185226298605e-05,3.1415980062651667,,,,
2025-04-30 00:20:35.984031,0.05947675764160154,-0.002296039392089777,-0.04619083969465648,,,-1.6119445728998005e-05,-2.4238130601421016e-05,3.1415844592334854,-0.0008971952948511388,-0.0005222688657179057,-1.567895976214618e-05,-6.098076867097218e-05,3.1416220920443445,,,,
2025-04-30 00:20:35.996510,-0.04107971208496064,-0.03102645931396475,-0.15306106870229014,,,-2.082220562049179e-05,-2.5890442894785765e-05,3.1415511224096475,-0.0003768518871235158,-0.00013240671865858387,-2.687511982298189e-05,-6.74981967592893e-05,3.1416120316423175,,,,
2025-04-30 00:20:36.009793,-0.002772485522460677,-0.023843854333496006,-0.04619083969465648,,,-2.082220562049179e-05,-2.5890442894785765e-05,3.141540413687259,-0.00030148150969881265,-0.0001059253749268671,-3.1880938676169345e-05,-6.925698866453612e-05,3.141576546500587,,,,
2025-04-30 00:20:36.022804,-0.014743493823242027,9.816226806647066e-05,-0.0003893129770992654,,,-2.082220562049179e-05,-2.5890442894785765e-05,3.1415403252803484,-0.00024118520775905013,-8.474029994149369e-05,-3.58035081769217e-05,-7.063518146136463e-05,3.141566057280675,,,,
2025-04-30 00:20:36.035765,-0.002772485522460677,-0.004690241052246025,0.23625190839694654,,,-2.082220562049179e-05,-2.5890442894785765e-05,3.1415937669755234,-0.0001929481662072401,-6.779223995319495e-05,-3.892943063723686e-05,-7.173347272616554e-05,3.1415659692155855,,,,
2025-04-30 00:20:36.048522,0.013986926098632946,0.11023143863525398,-0.14542748091603058,,,-2.5465722245465346e-05,-4.431847616673846e-05,3.1415613871468704,-0.0003639957454948529,-0.001444535736720136,-4.1390882532295204e-05,-7.259830259619299e-05,3.141618571352848,,,,
2025-04-30 00:20:36.060821,0.013986926098632946,0.03361698551025405,0.08358015267175573,,,-2.5465722245465346e-05,-4.431847616673846e-05,3.141579329083328,-0.00029119659639588235,-0.0011556285893761088,-4.58678619116126e-05,-9.036542428930784e-05,3.1415873528094695,,,,
2025-04-30 00:20:36.074018,0.0020159177978515963,0.016857573889160204,0.07594656488549617,,,-2.5465722245465346e-05,-4.431847616673846e-05,3.1415968218666133,-0.00023295727711670588,-0.0009245028715008871,-4.971076743388873e-05,-0.00010561619144379792,3.141606603838135,,,,
2025-04-30 00:20:36.087256,-0.014743493823242027,0.038405388830566545,0.25151908396946565,,,-2.5465722245465346e-05,-4.431847616673846e-05,3.1416549332654014,-0.0001863658216933647,-0.0007396022972007097,-5.2794589421362903e-05,-0.00011785449675842075,3.1416241506622127,,,,
2025-04-30 00:20:36.100754,-0.009955090502929753,-0.026238055993652254,0.23625190839694654,,,-2.5465722245465346e-05,-4.431847616673846e-05,3.141710591826024,-0.00014909265735469179,-0.0005916818377605678,-5.5310212361662784e-05,-0.00012783787508729614,3.1416834060150176,,,,
2025-04-30 00:20:36.113499,0.009198522778320672,-0.014267047692871015,-0.22176335877862602,,,-2.5465722245465346e-05,-4.431847616673846e-05,3.141661262666952,-0.00011927412588375344,-0.0004733454702084542,-5.7210383901816386e-05,-0.00013537880305039297,3.1417359580147464,,,,
2025-04-30 00:20:36.127674,-0.002772485522460677,-0.04060326595458974,0.0225114503816794,,,-2.5465722245465346e-05,-4.431847616673846e-05,3.141666831984984,-9.541930070700276e-05,-0.0003786763761667634,-5.890108726530475e-05,-0.00014208844583874912,3.1416810939055075,,,,
2025-04-30 00:20:36.140745,-0.029108703784179735,0.04319379215087904,0.09884732824427478,0.0,0.0,-2.1813632857710463e-05,-5.640053693443038e-05,3.141689381914841,0.0002794077873778863,-0.0009243535706942937,-6.0148295937508766e-05,-0.00014703805725713713,3.141686229417373,,,,
2025-04-30 00:20:36.154458,0.03314053937988293,-0.02144965267333976,0.1599160305343511,0.0,0.0,-2.1813632857710463e-05,-5.640053693443038e-05,3.1417276567422086,0.00022352622990230906,-0.000739482856555435,-5.6316676409119485e-05,-0.00015971405038476793,3.1417098878611927,,,,
2025-04-30 00:20:36.167372,0.021169531079101578,-0.01905545101318351,0.10648091603053433,0.0,0.0,-2.1813632857710463e-05,-5.640053693443038e-05,3.1417516570055497,0.00017882098392184726,-0.0005915862852443481,-5.343001827253986e-05,-0.00016926386566000351,3.1417459321307986,,,,
2025-04-30 00:20:36.179106,-0.0075608888427733945,0.04319379215087904,-0.10725954198473281,0.0,0.0,-2.1813632857710463e-05,-5.640053693443038e-05,3.141729691010037,0.0001430567871374778,-0.00047326902819547846,-5.1331773909777e-05,-0.000176205403285388,3.1417677386692233,,,,
2025-04-30 00:20:36.190493,-0.0075608888427733945,-0.016661249353027263,-0.18359541984732825,0.0,0.0,-2.1813632857710463e-05,-5.640053693443038e-05,3.1416932050786706,0.00011444542970998224,-0.0003786152225563828,-4.970287289542238e-05,-0.00018159423114539998,3.1417464229725107,,,,
2025-04-30 00:20:36.201912,-0.0075608888427733945,0.0312227838500978,0.09121374045801522,0.0,0.0,-2.1813632857710463e-05,-5.640053693443038e-05,3.141711384371012,9.15563437679858e-05,-0.00030289217804510625,-4.8395986627429095e-05,-0.00018591775054207713,3.141709831612556,,,,
2025-04-30 00:20:36.213167,-0.029108703784179735,-0.01905545101318351,0.06067938931297706,0.0,0.0,-2.1813632857710463e-05,-5.640053693443038e-05,3.141723304063909,7.324507501438864e-05,-0.00024231374243608502,-4.7365517610339415e-05,-0.00018932680983987132,3.141727749389689,,,,
2025-04-30 00:20:36.224618,0.03074633771972657,-0.04778587093505848,-0.03855725190839693,0.0,0.0,-2.494357747697112e-05,-5.2979436018927095e-05,3.1417155979376115,-0.00027332790415039444,0.00029875363844053906,-4.652677035860442e-05,-0.00019210160371489925,3.1417398768887854,,,,
2025-04-30 00:20:36.236578,0.04032314436035156,-0.004690241052246025,0.03777862595419845,0.0,0.0,-2.494357747697112e-05,-5.2979436018927095e-05,3.141723483762387,-0.00021866232332031556,0.00023900291075243125,-4.97957150168591e-05,-0.000188528572583848,3.141731828535393,,,,
2025-04-30 00:20:36.250772,0.021169531079101578,0.016857573889160204,0.05304580152671756,0.0,0.0,-2.494357747697112e-05,-5.2979436018927095e-05,3.14173662447605,-0.00017492985865625246,0.00019120232860194501,-5.289930632352286e-05,-0.00018513627644057518,3.1417411872045418,,,,
2025-04-30 00:20:36.270105,0.009198522778320672,-0.03820906429443349,-0.05382442748091604,0.0,0.0,-2.494357747697112e-05,-5.2979436018927095e-05,3.141718462454677,-0.00013994388692500196,0.00015296186288155602,-5.628128870687788e-05,-0.00018143969249569857,3.141759086493511,,,,
2025-04-30 00:20:36.283784,-0.04107971208496064,0.0360111871704103,-0.09962595419847325,0.0,0.0,-1.92862143515041e-05,-5.753144754887927e-05,3.141694677763521,0.0004135865439596816,-0.0003327788361794668,-5.8195551627388205e-05,-0.00017934735942706467,3.1417462364546376,,,,
2025-04-30 00:20:36.298207,-0.029108703784179735,0.012069170568847709,0.14464885496183205,0.0,0.0,-1.92862143515041e-05,-5.753144754887927e-05,3.1417310903848032,0.0003308692351677453,-0.00026622306894357345,-5.223033833411215e-05,-0.00018414707248903556,3.141721157499529,,,,
2025-04-30 00:20:36.311922,0.013986926098632946,-0.04778587093505848,0.06831297709923662,0.0,0.0,-1.92862143515041e-05,-5.753144754887927e-05,3.141747442626692,0.0002646953881341963,-0.00021297845515485877,-4.769245725705513e-05,-0.0001877983295369222,3.1417557824443882,,,,
2025-04-30 00:20:36.325437,-0.043473913745117,-0.02144965267333976,-0.00802290076335882,0.0,0.0,-1.92862143515041e-05,-5.753144754887927e-05,3.1417455502088485,0.00021175631050735703,-0.00017038276412388703,-4.411516336600982e-05,-0.0001906766816378794,3.1417718959051695,,,,
2025-04-30 00:20:36.338177,-0.02192609880371066,-0.00947864437255852,-0.08435877862595426,0.0,0.0,-1.92862143515041e-05,-5.753144754887927e-05,3.1417267924180736,0.00016940504840588563,-0.00013630621129910963,-4.1417359342202505e-05,-0.0001928473810873528,3.141770111954567,,,,
2025-04-30 00:20:36.350900,-0.0003782838623043183,-0.00947864437255852,-0.03855725190839693,0.0,0.0,-1.92862143515041e-05,-5.753144754887927e-05,3.1417182300020396,0.0001355240387247085,-0.0001090449690392877,-3.9261902985611064e-05,-0.00019458169828953927,3.141751378385058,,,,
2025-04-30 00:20:36.363297,-0.005166687182617036,-0.011872846032714768,-0.030923664122137373,0.0,0.0,-1.92862143515041e-05,-5.753144754887927e-05,3.1417115391974586,0.00010841923097976681,-8.723597523143017e-05,-3.7581836896569845e-05,-0.00019593350831813205,3.1417430359377763,,,,
2025-04-30 00:20:36.376901,0.0020159177978515963,-0.023843854333496006,0.03777862595419845,0.0,0.0,-1.92862143515041e-05,-5.753144754887927e-05,3.141720509258294,8.673538478381346e-05,-6.978878018514414e-05,-3.610688388417363e-05,-0.00019712028084265708,3.141735693501639,,,,
2025-04-30 00:20:36.390462,-0.024320300463867017,-0.004690241052246025,-0.03855725190839693,0.0,0.0,-1.92862143515041e-05,-5.753144754887927e-05,3.1417113835233046,6.938830782705076e-05,-5.583102414811531e-05,-3.4930685111806695e-05,-0.00019806667057486787,3.1417446349513445,,,,
2025-04-30 00:20:36.403302,-0.0003782838623043183,-0.014267047692871015,-0.10725954198473281,0.0,0.0,-1.92862143515041e-05,-5.753144754887927e-05,3.141687346569361,5.551064626164061e-05,-4.4664819318492254e-05,-3.403973697880875e-05,-0.00019878354274376569,3.1417359942386285,,,,
2025-04-30 00:20:36.416545,-0.012349292163085668,-0.002296039392089777,0.08358015267175573,0.0,0.0,-1.92862143515041e-05,-5.753144754887927e-05,3.1417066650698353,4.440851700931249e-05,-3.57318554547938e-05,-3.330459847734364e-05,-0.00019937504780726727,3.141711202545308,,,,
2025-04-30 00:20:36.429399,0.016381127758789304,0.012069170568847709,-0.030923664122137373,0.0,0.0,-1.92862143515041e-05,-5.753144754887927e-05,3.1416997275871945,3.552681360744999e-05,-2.8585484363835043e-05,-3.273377757892449e-05,-0.00019983434010537783,3.141729953100093,,,,
2025-04-30 00:20:36.443073,-0.03150290544433565,0.0024923639282227184,-0.03855725190839693,0.0,0.0,-1.92862143515041e-05,-5.753144754887927e-05,3.1416905256412955,2.8421450885959995e-05,-2.2868387491068036e-05,-3.224798319186335e-05,-0.00020022521861220972,3.1417225729609446,,,,
2025-04-30 00:20:36.456837,-0.019531897143554744,0.02164597720947281,-0.06909160305343515,0.0,0.0,-1.92862143515041e-05,-5.753144754887927e-05,3.14167392865468,2.2737160708768e-05,-1.829470999285443e-05,-3.185680660648835e-05,-0.0002005399660108447,3.1417133108485378,,,,
2025-04-30 00:20:36.469512,-0.0003782838623043183,-0.01905545101318351,0.11411450381679389,0.0,0.0,-1.92862143515041e-05,-5.753144754887927e-05,3.1416991741634517,1.81897285670144e-05,-1.4635767994283545e-05,-3.1568601185736386e-05,-0.00020077186104200365,3.1416980257391733,,,,
2025-04-30 00:20:36.482217,0.037928942700195645,0.0360111871704103,0.06067938931297706,0.0,0.0,-2.5058400428646732e-05,-6.341038631055981e-05,3.141712628794242,-0.00045434641654662847,-0.0004627492467791112,-3.1337512100056874e-05,-0.00020095779928905094,3.1417233287050417,,,,
2025-04-30 00:20:36.495155,-0.014743493823242027,0.004886565588378966,-0.06145801526717559,0.0,0.0,-2.5058400428646732e-05,-6.341038631055981e-05,3.141698750636884,-0.00036347713323730277,-0.000370199397423289,-3.7215964636338434e-05,-0.0002069449698362888,3.141737031036782,,,,
2025-04-30 00:20:36.508071,0.037928942700195645,0.019251775549316452,-0.09962595419847325,0.0,0.0,-2.5058400428646732e-05,-6.341038631055981e-05,3.141676291301865,-0.00029078170658984224,-0.0002961595179386312,-4.1910840632514225e-05,-0.00021172667439437617,3.141723176151621,,,,
2025-04-30 00:20:36.521316,0.018775329418945663,-0.02144965267333976,-0.0767251908396947,0.0,0.0,-2.5058400428646732e-05,-6.341038631055981e-05,3.141658555323944,-0.0002326253652718738,-0.00023692761435090498,-4.5762136429022756e-05,-0.00021564919730652723,3.141700146378678,,,,
2025-04-30 00:20:36.534263,-0.014743493823242027,-0.05257427425537098,0.2896870229007633,0.0,0.0,-2.5589139673894404e-05,-5.777963145659451e-05,3.141724015674116,-4.099296072663696e-05,0.00043490530360573997,-4.877395622933381e-05,-0.00021871671868068407,3.141682808847265,,,,
2025-04-30 00:20:36.546591,-0.024320300463867017,0.012069170568847709,-0.09962595419847325,0.0,0.0,-2.5589139673894404e-05,-5.777963145659451e-05,3.141702579893774,-3.279436858130957e-05,0.000347924242884592,-4.927931373806284e-05,-0.00021335524546998164,3.141745138663234,,,,
2025-04-30 00:20:36.560261,-0.03629130876464837,0.02404017886962906,0.05304580152671756,0.0,0.0,-2.5589139673894404e-05,-5.777963145659451e-05,3.1417152354349476,-2.6235494865047658e-05,0.0002783393943076736,-4.972759605814283e-05,-0.00020859929822783009,3.1417213701400137,,,,
2025-04-30 00:20:36.573575,-0.024320300463867017,0.0024923639282227184,-0.24466412213740457,0.0,0.0,-2.5589139673894404e-05,-5.777963145659451e-05,3.14165837795589,-2.098839589203813e-05,0.0002226715154461389,-5.00769206854775e-05,-0.0002048932196617794,3.1417336974502996,,,,
2025-04-30 00:20:36.586528,0.009198522778320672,0.007280767248535214,0.12938167938931294,0.0,0.0,-2.5589139673894404e-05,-5.777963145659451e-05,3.141687625538884,-1.6790716713630505e-05,0.00017813721235691111,-5.034876426353836e-05,-0.00020200915830699646,3.1416783895098592,,,,
2025-04-30 00:20:36.598737,0.004410119458007955,0.0024923639282227184,0.25151908396946565,0.0,0.0,-2.5589139673894404e-05,-5.777963145659451e-05,3.1417412239187144,-1.3432573370904405e-05,0.0001425097698855289,-5.055377310257857e-05,-0.00019983416460553615,3.141705960572403,,,,
2025-04-30 00:20:36.611488,-0.017137695483398385,0.014463372229003957,-0.1759618320610687,0.0,0.0,-2.5589139673894404e-05,-5.777963145659451e-05,3.1417020660346813,-1.0746058696723524e-05,0.00011400781590842312,-5.07250436140395e-05,-0.00019801710986088527,3.141761932682984,,,,
2025-04-30 00:20:36.624430,0.018775329418945663,9.816226806647066e-05,0.0225114503816794,0.0,0.0,-2.5589139673894404e-05,-5.777963145659451e-05,3.141707151056043,-8.596846957378819e-06,9.12062527267385e-05,-5.08641224815448e-05,-0.00019654158489207688,3.141722185369518,,,,
2025-04-30 00:20:36.637333,-0.0003782838623043183,-0.033420660974121,0.06067938931297706,0.0,0.0,-2.5589139673894404e-05,-5.777963145659451e-05,3.141720816018017,-6.877477565903055e-06,7.29650021813908e-05,-5.097504738362304e-05,-0.00019536475288578492,3.141727254934603,,,,
2025-04-30 00:20:36.649914,0.023563732739257937,0.026434380529785306,-0.38206870229007633,0.0,0.0,-2.5589139673894404e-05,-5.777963145659451e-05,3.141636922277154,-5.501982052722444e-06,5.837200174511264e-05,-5.1061572045687964e-05,-0.00019444678956335822,3.1417405787712123,,,,
2025-04-30 00:20:36.662550,0.04032314436035156,-0.011872846032714768,0.0225114503816794,0.0,0.0,-2.5589139673894404e-05,-5.777963145659451e-05,3.1416418870205804,-4.401585642177955e-06,4.669760139609012e-05,-5.113109610708034e-05,-0.0001937091901684429,3.141656316182792,,,,
2025-04-30 00:20:36.675769,0.04271734602050792,-0.00947864437255852,0.1522824427480916,0.0,0.0,-2.5589139673894404e-05,-5.777963145659451e-05,3.1416770218232153,-3.5212685137423643e-06,3.7358081116872094e-05,-5.118928223701184e-05,-0.00019309187792617156,3.1416615100538117,,,,
2025-04-30 00:20:36.688734,-0.03629130876464837,0.02404017886962906,-0.3744351145038168,0.0,0.0,-2.5589139673894404e-05,-5.777963145659451e-05,3.141592295713958,-2.8170148109938915e-06,2.9886464893497676e-05,-5.123493451668453e-05,-0.00019260754065949436,3.141695968090418,,,,
2025-04-30 00:20:36.701682,-0.0075608888427733945,9.816226806647066e-05,0.10648091603053433,0.0,0.0,-2.5589139673894404e-05,-5.777963145659451e-05,3.1416163580095122,-2.2536118487951133e-06,2.3909171914798143e-05,-5.1271407983158546e-05,-0.00019222058388132418,3.1416113541640263,,,,
2025-04-30 00:20:36.714109,0.037928942700195645,-0.00947864437255852,-0.12252671755725192,0.0,0.0,-2.5589139673894404e-05,-5.777963145659451e-05,3.1415897812111298,-1.8028894790360908e-06,1.9127337531838517e-05,-5.129941543593982e-05,-0.00019192344531072207,3.1416344505294016,,,,
2025-04-30 00:20:36.727690,0.037928942700195645,-0.004690241052246025,-0.06909160305343515,0.0,0.0,-2.5589139673894404e-05,-5.777963145659451e-05,3.141573404739494,-1.4423115832288727e-06,1.5301870025470814e-05,-5.132389968591678e-05,-0.00019166368534264368,3.141605408573129,,,,
2025-04-30 00:20:36.742037,-0.002772485522460677,0.019251775549316452,-0.0003893129770992654,0.0,0.0,-2.5589139673894404e-05,-5.777963145659451e-05,3.1415733072540757,-1.1538492665830982e-06,1.2241496020376652e-05,-5.134459264041707e-05,-0.00019144414824408032,3.1415881077786003,,,,
2025-04-30 00:20:36.756811,-0.009955090502929753,-0.18186116390380846,-0.45840458015267177,0.0,0.0,-2.3471157970785385e-05,-1.8703627617742588e-05,3.141455108509104,0.00014336252931940568,0.002644987318733349,-5.1361639156311914e-05,-0.00019126329718967353,3.141588007394993,,,,
2025-04-30 00:20:36.771257,-0.0003782838623043183,0.0024923639282227184,-0.06145801526717559,0.0,0.0,-2.3471157970785385e-05,-1.8703627617742588e-05,3.1414396122947017,0.00011469002345552455,0.002115989854986679,-4.9290518631528766e-05,-0.00015305186530697535,3.1414724238437493,,,,
2025-04-30 00:20:36.788517,-0.0075608888427733945,-0.01905545101318351,0.1370152671755725,0.0,0.0,-2.3471157970785385e-05,-1.8703627617742588e-05,3.1414808857663963,9.175201876441965e-05,0.0016927918839893434,-4.731104230173272e-05,-0.00011653123599819356,3.141453910683093,,,,
2025-04-30 00:20:36.805994,0.016381127758789304,0.014463372229003957,-0.3515343511450382,0.0,0.0,-2.3471157970785385e-05,-1.8703627617742588e-05,3.141373653680208,7.340161501153573e-05,0.0013542335071914748,-4.570744525975757e-05,-8.694544492350684e-05,3.14149570583879,,,,
2025-04-30 00:20:36.818944,0.009198522778320672,0.004886565588378966,-0.06909160305343515,0.0,0.0,-2.3471157970785385e-05,-1.8703627617742588e-05,3.141358037654623,5.872129200922859e-05,0.0010833868057531799,-4.4756898489431296e-05,-6.940819746204193e-05,3.141416252342577,,,,
2025-04-30 00:20:36.835382,0.011592724438476587,0.016857573889160204,0.03777862595419845,0.0,0.0,-2.3471157970785385e-05,-1.8703627617742588e-05,3.141368875927918,4.6977033607382876e-05,0.0008667094446025439,-4.3791665459997987e-05,-5.1599993780132545e-05,3.1413964307197046,,,,
2025-04-30 00:20:36.849472,0.006804321118164314,-0.002296039392089777,0.1370152671755725,0.0,0.0,-2.3471157970785385e-05,-1.8703627617742588e-05,3.1414025698727004,3.75816268859063e-05,0.0006933675556820352,-4.312976738224885e-05,-3.9388211313321235e-05,3.141405721005109,,,,
2025-04-30 00:20:36.862756,0.07863037092285152,-0.00947864437255852,0.030145038167938898,0.0,0.0,-3.6581432638922755e-05,-8.034610347879384e-06,3.1414095594707736,-0.0009868537442197238,0.0008030922239560725,-4.263049841373594e-05,-3.0176877664124927e-05,3.1414374901354747,,,,
2025-04-30 00:20:36.876052,0.023563732739257937,-0.0286322576538085,0.17518320610687022,0.0,0.0,-3.6581432638922755e-05,-8.034610347879384e-06,3.1414502105088014,-0.0007894829953757791,0.000642473779164858,-5.575112558964233e-05,-1.9499435621557108e-05,3.141444485252873,,,,
2025-04-30 00:20:36.890167,0.07144776594238289,-0.014267047692871015,-0.06145801526717559,0.0,0.0,-6.145135432354494e-05,3.640208675839677e-06,3.1414350702822933,-0.001761967703819087,0.000827129828898702,-6.689456495222475e-05,-1.0431010282307038e-05,3.141487641762392,,,,
2025-04-30 00:20:36.903092,-0.05544492204589835,-0.0286322576538085,0.09884732824427478,0.0,0.0,-7.469159345912929e-05,1.8803564021971525e-05,3.1414573688941427,-0.001024378144457647,0.001173166863087549,-8.966825831337366e-05,2.5976517990467315e-07,3.1414737776706474,,,,
2025-04-30 00:20:36.915330,0.0020159177978515963,-0.004690241052246025,-0.04619083969465648,0.0,0.0,-7.469159345912929e-05,1.8803564021971525e-05,3.1414475024308186,-0.0008195025155661177,0.0009385334904700392,-0.00010220511279776485,1.4617570769582975e-05,3.141494891673884,,,,
2025-04-30 00:20:36.930220,0.011592724438476587,-0.014267047692871015,0.014877862595419844,0.0,0.0,-7.469159345912929e-05,1.8803564021971525e-05,3.141451368809233,-0.0006556020124528942,0.0007508267923760314,-0.00011440727341896331,2.8592068933482132e-05,3.141482887848443,,,,
2025-04-30 00:20:36.944324,0.006804321118164314,0.04319379215087904,0.14464885496183205,0.0,0.0,-7.469159345912929e-05,1.8803564021971525e-05,3.141486975471347,-0.0005244816099623154,0.0006006614339008252,-0.00012365381173584815,3.918164702076348e-05,3.1414865501728118,,,,
2025-04-30 00:20:36.958443,-0.014743493823242027,-0.011872846032714768,-0.0003893129770992654,0.0,0.0,-7.469159345912929e-05,1.8803564021971525e-05,3.141486879536273,-0.0004195852879698523,0.00048052914712066016,-0.0001310589202974494,4.766233164786084e-05,3.1415221947553347,,,,
2025-04-30 00:20:36.972065,-0.029108703784179735,0.014463372229003957,-0.38206870229007633,0.0,0.0,-7.469159345912929e-05,1.8803564021971525e-05,3.1413960428760963,-0.0003356682303758819,0.00038442331769652816,-0.00013677453018842475,5.4208121562168175e-05,3.1415221021963515,,,,
2025-04-30 00:20:36.984773,0.0020159177978515963,-0.002296039392089777,-0.10725954198473281,0.0,0.0,-7.469159345912929e-05,1.8803564021971525e-05,3.1413722522947936,-0.00026853458430070554,0.0003075386541572225,-0.00014104034489420805,5.909353666397721e-05,3.1414373578803034,,,,
2025-04-30 00:20:36.997270,-0.04107971208496064,9.816226806647066e-05,0.25151908396946565,0.0,0.0,-7.469159345912929e-05,1.8803564021971525e-05,3.1414271108032943,-0.00021482766744056444,0.00024603092332577803,-0.00014439614367181726,6.293675798452308e-05,3.141413963637597,,,,
2025-04-30 00:20:37.010362,0.016381127758789304,-0.01905545101318351,-0.10725954198473281,0.0,0.0,-7.469159345912929e-05,1.8803564021971525e-05,3.1414026020814494,-0.00017186213395245156,0.00019682473866062243,-0.00014720867630524018,6.615780492381626e-05,3.1414714355524835,,,,
2025-04-30 00:20:37.022911,0.03314053937988293,-0.007084442712402272,0.1370152671755725,0.0,0.0,-7.469159345912929e-05,1.8803564021971525e-05,3.1414326111697224,-0.00013748970716196126,0.00015745979092849795,-0.00014936536107545552,6.862774351068627e-05,3.1414479435641094,,,,
2025-04-30 00:20:37.035924,0.047505749340820635,-0.00947864437255852,0.17518320610687022,0.0,0.0,-7.469159345912929e-05,1.8803564021971525e-05,3.1414723991067186,-0.00010999176572956901,0.00012596783274279835,-0.0001511545317475401,7.067678736842007e-05,3.1414790627275213,,,,
2025-04-30 00:20:37.048383,0.006804321118164314,0.0024923639282227184,-0.22176335877862602,0.0,0.0,-7.469159345912929e-05,1.8803564021971525e-05,3.141424175461201,-8.799341258365521e-05,0.00010077426619423868,-0.00015252494974621062,7.224625562905953e-05,3.1415171572661253,,,,
2025-04-30 00:20:37.061701,0.018775329418945663,0.009674968908691461,-0.05382442748091604,0.0,0.0,-7.469159345912929e-05,1.8803564021971525e-05,3.1414116649663453,-7.039473006692417e-05,8.061941295539095e-05,-0.00015369678851771723,7.358830145759547e-05,3.141465612465948,,,,
2025-04-30 00:20:37.074468,0.009198522778320672,0.02164597720947281,-0.14542748091603058,0.0,0.0,-7.469159345912929e-05,1.8803564021971525e-05,3.1413792591161878,-5.6315784053539336e-05,6.449553036431275e-05,-0.00015459554020454865,7.461759489072793e-05,3.1414536186782485,,,,
2025-04-30 00:20:37.087442,0.0020159177978515963,-0.035814862634277245,-0.22176335877862602,0.0,0.0,-7.469159345912929e-05,1.8803564021971525e-05,3.141329044069793,-4.5052627242831475e-05,5.1596424291450205e-05,-0.000155326169101514,7.54543460609589e-05,3.141420688767097,,,,
2025-04-30 00:20:37.099636,0.03314053937988293,-0.16510175228271473,0.25151908396946565,0.0,0.0,-8.00544850632458e-05,4.348132871226669e-05,3.14138257546604,-0.0004397833246663993,0.002023697326364474,-0.00015587555863684312,7.608353324272608e-05,3.141373490351595,,,,
2025-04-30 00:20:37.112987,-0.024320300463867017,0.02404017886962906,0.19045038167938927,0.0,0.0,-8.00544850632458e-05,4.348132871226669e-05,3.1414269523000713,-0.00035182665973311944,0.0016189578610915794,-0.00016174688008803494,0.00010310087759523488,3.141432096800932,,,,
2025-04-30 00:20:37.125599,-0.0003782838623043183,-0.007084442712402272,0.09884732824427478,0.0,0.0,-8.00544850632458e-05,4.348132871226669e-05,3.1414487108455633,-0.0002814613277864956,0.0012951662888732636,-0.00016618415465688408,0.00012351934318425358,3.141474019262241,,,,
2025-04-30 00:20:37.138537,0.013986926098632946,0.028828582189941554,-0.03855725190839693,0.0,0.0,-8.00544850632458e-05,4.348132871226669e-05,3.1414400040299113,-0.00022516906222919649,0.001036133031098611,-0.0001698257747862285,0.00014027654270967792,3.141496340496824,,,,
2025-04-30 00:20:37.150775,0.006804321118164314,0.007280767248535214,-0.06909160305343515,0.0,0.0,-8.00544850632458e-05,4.348132871226669e-05,3.141425246776482,-0.0001801352497833572,0.0008289064248788888,-0.00017258134586432928,0.00015295651830354536,3.1414881050657035,,,,
2025-04-30 00:20:37.163844,0.03074633771972657,0.014463372229003957,-0.1912290076335878,0.0,0.0,-8.00544850632458e-05,4.348132871226669e-05,3.1413816282838916,-0.00014410819982668577,0.0006631251399031111,-0.0001749355180265938,0.00016378942542704818,3.1414723455760054,,,,
2025-04-30 00:20:37.177124,0.013986926098632946,0.02164597720947281,0.2591526717557252,0.0,0.0,-8.00544850632458e-05,4.348132871226669e-05,3.141441694233685,-0.00011528655986134861,0.0005305001119224889,-0.00017684926265033743,0.0001725956708238061,3.141428022853443,,,,
2025-04-30 00:20:37.189940,0.004410119458007955,0.012069170568847709,0.12938167938931294,0.0,0.0,-8.00544850632458e-05,4.348132871226669e-05,3.141470634400758,-9.22292478890789e-05,0.00042440008953799113,-0.00017832676970246978,0.00017939453495389334,3.1414859902693353,,,,
2025-04-30 00:20:37.202500,-0.014743493823242027,0.02404017886962906,-0.030923664122137373,0.0,0.0,-8.00544850632458e-05,4.348132871226669e-05,3.1414638551935545,-7.378339831126312e-05,0.0003395200716303929,-0.00017948522494713978,0.00018472525726613632,3.1415143538296637,,,,
2025-04-30 00:20:37.214643,-0.002772485522460677,0.012069170568847709,-0.23703053435114502,0.0,0.0,-8.00544850632458e-05,4.348132871226669e-05,3.141413620476329,-5.90267186490105e-05,0.00027161605730431437,-0.00018038116912748314,0.0001888480144072991,3.141507800068449,,,,
2025-04-30 00:20:37.227799,-0.03629130876464837,0.014463372229003957,0.14464885496183205,0.0,0.0,-8.00544850632458e-05,4.348132871226669e-05,3.1414468327354763,-4.7221374919208405e-05,0.0002172928458434515,-0.00018115769278471332,0.00019242124868167155,3.1414533764123838,,,,
2025-04-30 00:20:37.241413,-0.03389710710449201,0.0360111871704103,-0.05382442748091604,0.0,0.0,-8.00544850632458e-05,4.348132871226669e-05,3.141434043617429,-3.7777099935366725e-05,0.00017383427667476122,-0.00018180056171583078,0.00019537946029210963,3.1414877461468715,,,,
2025-04-30 00:20:37.254385,-0.038685510424804725,-0.014267047692871015,-0.2064961832061069,0.0,0.0,-8.00544850632458e-05,4.348132871226669e-05,3.141387290753701,-3.0221679948293383e-05,0.00013906742133980898,-0.0001822906196628664,0.00019763450022099264,3.1414755597418536,,,,
2025-04-30 00:20:37.267428,0.004410119458007955,-0.014267047692871015,0.1370152671755725,0.0,0.0,-8.00544850632458e-05,4.348132871226669e-05,3.141418480615273,-2.417734395863471e-05,0.00011125393707184719,-0.00018268479161644233,0.00019944831325991263,3.1414285533935677,,,,
2025-04-30 00:20:37.281425,0.018775329418945663,-0.01905545101318351,0.07594656488549617,0.0,0.0,-8.00544850632458e-05,4.348132871226669e-05,3.1414370349366973,-1.9341875166907768e-05,8.900314965747775e-05,-0.0001830232210772433,0.0002010056228634667,3.14146202726182,,,,
2025-04-30 00:20:37.297416,0.011592724438476587,0.02404017886962906,-0.06145801526717559,0.0,0.0,-8.00544850632458e-05,4.348132871226669e-05,3.141419882815964,-1.5473500133526216e-05,7.120251972598221e-05,-0.00018333250724857694,0.00020242882734372786,3.1414832229454843,,,,
2025-04-30 00:20:37.312897,0.025957934399414295,-0.002296039392089777,-0.16832824427480914,0.0,0.0,-8.00544850632458e-05,4.348132871226669e-05,3.1413744007771,-1.2378800106820974e-05,5.696201578078577e-05,-0.0001835720561187042,0.00020353113018428668,3.141466617082036,,,,
2025-04-30 00:20:37.328236,0.021169531079101578,0.0024923639282227184,0.1522824427480916,0.0,0.0,-8.00544850632458e-05,4.348132871226669e-05,3.1414151676925255,-9.90304008545678e-06,4.556961262462862e-05,-0.00018376192736458248,0.00020440483755581747,3.14142155461013,,,,
2025-04-30 00:20:37.341709,0.028352136059570654,0.007280767248535214,0.18281679389312977,0.0,0.0,-8.00544850632458e-05,4.348132871226669e-05,3.1414581576033074,-7.922432068365425e-06,3.6455690099702896e-05,-0.00018389535372048547,0.00020501880935639043,3.1414573642777652,,,,
2025-04-30 00:20:37.356057,-0.005166687182617036,-0.004690241052246025,0.030145038167938898,0.0,0.0,-8.00544850632458e-05,4.348132871226669e-05,3.1414657067856844,-6.33794565469234e-06,2.916455207976232e-05,-0.00018400902879190097,0.00020554189407833245,3.1415031468477195,,,,
2025-04-30 00:20:37.369807,-0.026714502124023376,-0.023843854333496006,-0.32863358778625956,0.0,0.0,-8.00544850632458e-05,4.348132871226669e-05,3.1413868413161707,-5.070356523753873e-06,2.3331641663809855e-05,-0.00018409617451711587,0.00020594290194113685,3.141510381052247,,,,
2025-04-30 00:20:37.383070,0.004410119458007955,0.04079959049072279,0.16754961832061066,0.0,0.0,-8.00544850632458e-05,4.348132871226669e-05,3.1414256240783676,-4.056285219003098e-06,1.8665313331047887e-05,-0.000184163418963868,0.00020625233251631478,3.141434312133602,,,,
2025-04-30 00:20:37.397027,0.004410119458007955,-0.023843854333496006,-0.04619083969465648,0.0,0.0,-8.00544850632458e-05,4.348132871226669e-05,3.1414143715972176,-3.2450281752024787e-06,1.4932250664838311e-05,-0.00018422003553376283,0.00020651285808583468,3.141475128644717,,,,
2025-04-30 00:20:37.411072,-0.012349292163085668,0.016857573889160204,0.23625190839694654,0.0,0.0,-8.00544850632458e-05,4.348132871226669e-05,3.1414722824144885,-2.596022540161983e-06,1.194580053187065e-05,-0.0001842656104073811,0.0002067225744273096,3.1414638061995555,,,,
2025-04-30 00:20:37.424875,0.023563732739257937,0.009674968908691461,0.12938167938931294,0.0,0.0,-8.00544850632458e-05,4.348132871226669e-05,3.1415034509432,-2.0768180321295867e-06,9.55664042549652e-06,-0.0001843014427011103,0.00020688745952628944,3.1415207201646913,,,,
2025-04-30 00:20:37.438373,-0.009955090502929753,0.019251775549316452,0.1522824427480916,0.0,0.0,-8.00544850632458e-05,4.348132871226669e-05,3.141539326513145,-1.6614544257036695e-06,7.645312340397216e-06,-0.0001843294757318322,0.00020701645570722662,3.1415512006416573,,,,
2025-04-30 00:20:37.450767,-0.029108703784179735,9.816226806647066e-05,0.09121374045801522,0.0,0.0,-8.00544850632458e-05,4.348132871226669e-05,3.141559058196201,-1.3291635405629358e-06,6.116249872317773e-06,-0.0001843500685095075,0.00020711121498250278,3.141584142925136,,,,
2025-04-30 00:20:37.463670,0.013986926098632946,-0.011872846032714768,0.4423587786259542,0.0,0.0,-8.00544850632458e-05,4.348132871226669e-05,3.141658680808542,-1.0633308324503487e-06,4.892999897854219e-06,-0.0001843672193073464,0.0002071901357186582,3.1416046849637365,,,,
2025-04-30 00:20:37.477057,0.011592724438476587,0.009674968908691461,0.2209847328244275,0.0,0.0,-8.00544850632458e-05,4.348132871226669e-05,3.1417103122232377,-8.506646659602789e-07,3.914399918283375e-06,-0.0001843814538262512,0.00020725563696946518,3.141708038753166,,,,
2025-04-30 00:20:37.489758,0.03074633771972657,-0.004690241052246025,0.11411450381679389,0.0,0.0,-8.00544850632458e-05,4.348132871226669e-05,3.1417356080663255,-6.805317327682232e-07,3.1315199346267003e-06,-0.00018439225794474626,0.0002073053529647881,3.1417570245958006,,,,
2025-04-30 00:20:37.502597,0.023563732739257937,-0.026238055993652254,-0.0767251908396947,0.0,0.0,-8.00544850632458e-05,4.348132871226669e-05,3.141718415801869,-5.444253862145785e-07,2.5052159477013603e-06,-0.00018440099502085657,0.00020734555730309064,3.141782594903368,,,,
2025-04-30 00:20:37.669866,0.006804321118164314,-0.014267047692871015,0.36602290076335875,0.0,0.0,-8.00544850632458e-05,4.348132871226669e-05,3.142357246277471,-4.3554030897166283e-07,2.004172758161088e-06,-0.00018449206063594065,0.00020776460284536807,3.14155860347339,,,,
2025-04-30 00:20:37.681547,0.004410119458007955,-0.002296039392089777,0.12174809160305344,0.0,0.0,-8.00544850632458e-05,4.348132871226669e-05,3.1423820669565234,-3.4843224717733027e-07,1.6033382065288707e-06,-0.00018449714811323307,0.0002077880132695864,3.1416332242483533,,,,
2025-04-30 00:20:37.693012,0.021169531079101578,0.009674968908691461,0.27441984732824426,0.0,0.0,-8.00544850632458e-05,4.348132871226669e-05,3.1424369792643403,-2.787457977418642e-07,1.2826705652230967e-06,-0.00018450114291425424,0.00020780639565857765,3.1416575864391616,,,,
2025-04-30 00:20:37.704441,0.037928942700195645,0.0024923639282227184,-0.01565648854961832,0.0,0.0,-8.00544850632458e-05,4.348132871226669e-05,3.1424338561874325,-2.2299663819349137e-07,1.0261364521784774e-06,-0.00018450432871988643,0.0002078210553920841,3.14171232631813,,,,
2025-04-30 00:20:37.716172,0.0020159177978515963,-0.0286322576538085,-0.023290076335877874,0.0,0.0,-8.00544850632458e-05,4.348132871226669e-05,3.1424290876105965,-1.783973105547931e-07,8.20909161742782e-07,-0.00018450694472640043,0.0002078330931504328,3.1417091206966647,,,,
2025-04-30 00:20:37.727923,0.0020159177978515963,0.012069170568847709,0.08358015267175573,0.0,0.0,-8.00544850632458e-05,4.348132871226669e-05,3.1424462296235474,-1.427178484438345e-07,6.567273293942256e-07,-0.00018450904110440324,0.00020784273979759143,3.141704343979018,,,,
2025-04-30 00:20:37.740237,0.035534741040039286,0.004886565588378966,0.07594656488549617,0.0,0.0,-8.00544850632458e-05,4.348132871226669e-05,3.142462551206969,-1.1417427875506759e-07,5.253818635153805e-07,-0.00018451079844149676,0.0002078508263215186,3.1417223060874595,,,,
2025-04-30 00:20:37.754934,-0.024320300463867017,0.004886565588378966,0.08358015267175573,0.0,0.0,-8.00544850632458e-05,4.348132871226669e-05,3.1424839915914924,-9.133942300405408e-08,4.203054908123044e-07,-0.00018451247655108596,0.000207858548273895,3.1417417882671677,,,,
2025-04-30 00:20:37.771040,-0.005166687182617036,-0.007084442712402272,-0.06909160305343515,0.0,0.0,-8.00544850632458e-05,4.348132871226669e-05,3.142464569598113,-7.307153840324327e-08,3.3624439264984357e-07,-0.00018451394767558758,0.00020786531776822024,3.1417652830639313,,,,
2025-04-30 00:20:37.783686,-0.014743493823242027,0.019251775549316452,0.014877862595419844,0.0,0.0,-8.00544850632458e-05,4.348132871226669e-05,3.1424678532833608,-5.8457230722594615e-08,2.689955141198749e-07,-0.0001845148717179071,0.00020786956982114395,3.141750033892471,,,,
2025-04-30 00:20:37.796199,0.035534741040039286,-0.016661249353027263,-0.00802290076335882,0.0,0.0,-8.00544850632458e-05,4.348132871226669e-05,3.1424661011818653,-4.6765784578075695e-08,2.1519641129589992e-07,-0.00018451560317475497,0.00020787293567697414,3.1417532830321613,,,,
2025-04-30 00:20:37.810472,0.016381127758789304,0.007280767248535214,0.030145038167938898,0.0,0.0,-8.00544850632458e-05,4.348132871226669e-05,3.142473610850892,-3.741262766246056e-08,1.7215712903671995e-07,-0.0001845162706817419,0.00020787600726252328,3.1417512843838584,,,,
2025-04-30 00:20:37.827540,-0.019531897143554744,9.816226806647066e-05,0.0225114503816794,0.0,0.0,-8.00544850632458e-05,4.348132871226669e-05,3.1424803168141455,-2.993010212996845e-08,1.3772570322937597e-07,-0.0001845169092370753,0.00020787894562477682,3.1417602643258347,,,,
2025-04-30 00:20:37.840342,-0.012349292163085668,-0.004690241052246025,0.10648091603053433,0.0,0.0,-8.00544850632458e-05,4.348132871226669e-05,3.1425041088264845,-2.394408170397476e-08,1.1018056258350079e-07,-0.0001845172924059548,0.0002078807088063108,3.141765294266647,,,,
2025-04-30 00:20:37.859236,-0.014743493823242027,0.009674968908691461,0.16754961832061066,0.0,0.0,-8.00544850632458e-05,4.348132871226669e-05,3.14255935888923,-1.915526536317981e-08,8.814445006680063e-08,-0.0001845177447929908,0.0002078827905005995,3.1418004067148333,,,,
2025-04-30 00:20:37.871858,-0.04107971208496064,-0.002296039392089777,0.03777862595419845,0.0,0.0,-8.00544850632458e-05,4.348132871226669e-05,3.1425676817411548,-1.532421229054385e-08,7.051556005344051e-08,-0.0001845179865821444,0.0002078839031122795,3.141837318874237,,,,
2025-04-30 00:20:37.884612,-0.03389710710449201,0.028828582189941554,0.2209847328244275,0.0,0.0,-8.00544850632458e-05,4.348132871226669e-05,3.1426168708063913,-1.225936983243508e-08,5.641244804275241e-08,-0.00018451818201928102,0.00020788480243153209,3.1418457280311634,,,,
2025-04-30 00:20:37.896937,-0.04107971208496064,0.02404017886962906,0.08358015267175573,0.0,0.0,-8.00544850632458e-05,4.348132871226669e-05,3.1426348496088887,-9.807495865948065e-09,4.5129958434201934e-08,-0.00018451833311368526,0.00020788549770423743,3.1418932637288064,,,,
2025-04-30 00:20:37.909669,-0.0075608888427733945,-0.02144965267333976,0.12938167938931294,0.0,0.0,-8.00544850632458e-05,4.348132871226669e-05,3.142663600804003,-7.845996692758452e-09,3.610396674736155e-08,-0.00018451845798534496,0.00020788607231093505,3.1419118369092485,,,,
2025-04-30 00:20:37.922326,0.016381127758789304,0.007280767248535214,-0.11489312977099236,0.0,0.0,-8.00544850632458e-05,4.348132871226669e-05,3.142638220331285,-6.276797354206762e-09,2.888317339788924e-08,-0.0001845185572915532,0.00020788652927621051,3.1419404179757624,,,,
2025-04-30 00:20:37.945863,-0.03150290544433565,-0.02144965267333976,-0.023290076335877874,0.0,0.0,-8.00544850632458e-05,4.348132871226669e-05,3.1426286528434018,-5.02143788336541e-09,2.3106538718311393e-08,-0.00018451870502803384,0.00020788720909716794,3.141893220250383,,,,
2025-04-30 00:20:37.959656,-0.024320300463867017,0.0024923639282227184,0.2591526717557252,0.0,0.0,-8.00544850632458e-05,4.348132871226669e-05,3.142691038395673,-4.017150306692328e-09,1.8485230974649115e-08,-0.00018451877428748737,0.00020788752779995424,3.1418876136546077,,,,
2025-04-30 00:20:37.971919,0.021169531079101578,-0.03102645931396475,-0.09199236641221381,0.0,0.0,-8.00544850632458e-05,4.348132871226669e-05,3.142671349198962,-3.213720245353863e-09,1.4788184779719292e-08,-0.00018451882355004107,0.0002078877544854437,3.1419430802996278,,,,
2025-04-30 00:20:37.984531,-0.002772485522460677,-0.002296039392089777,-0.1759618320610687,0.0,0.0,-8.00544850632458e-05,4.348132871226669e-05,3.1426326138003735,-2.5709761962830906e-09,1.1830547823775434e-08,-0.000184518864084115,0.0002078879410061516,3.141922829538776,,,,
2025-04-30 00:20:37.997115,0.009198522778320672,0.007280767248535214,0.14464885496183205,0.0,0.0,-8.00544850632458e-05,4.348132871226669e-05,3.142664383278246,-2.0567809570264724e-09,9.464438259020348e-09,-0.00018451889643720495,0.0002078880898814226,3.141884182737655,,,,
2025-04-30 00:20:38.012776,0.0020159177978515963,-0.07651629085693346,0.2209847328244275,0.0,0.0,-8.055988729224774e-05,6.187249320469802e-05,3.1427247863689547,-3.227138689104015e-05,0.0011743287834010188,-0.000184518928648454,0.0002078882381040016,3.1419237204821653,,,,
2025-04-30 00:20:38.032603,0.021169531079101578,-0.004690241052246025,-0.29809923664122134,0.0,0.0,-8.055988729224774e-05,6.187249320469802e-05,3.142621634490749,-2.5817109512832122e-05,0.0009394630267208151,-0.00018515874677315318,0.00023117068464132424,3.142000188273571,,,,
2025-04-30 00:20:38.045702,0.016381127758789304,-0.00947864437255852,0.11411450381679389,0.0,0.0,-8.055988729224774e-05,6.187249320469802e-05,3.1426477242864497,-2.06536876102657e-05,0.0007515704213766521,-0.00018549693624343562,0.00024347711666845476,3.1419320343761927,,,,
2025-04-30 00:20:38.058447,-0.012349292163085668,0.004886565588378966,0.07594656488549617,0.0,0.0,-8.055988729224774e-05,6.187249320469802e-05,3.1426646185126543,-1.652295008821256e-05,0.0006012563371013218,-0.0001857601753487245,0.0002530561675874995,3.141957419016612,,,,
2025-04-30 00:20:38.071325,-0.009955090502929753,0.014463372229003957,0.19808396946564882,0.0,0.0,-8.055988729224774e-05,6.187249320469802e-05,3.142709138707087,-1.3218360070570048e-05,0.0004810050696810574,-0.00018597294904852416,0.0002607988246003237,3.1419744883223433,,,,
2025-04-30 00:20:38.083744,0.013986926098632946,-0.00947864437255852,0.05304580152671756,0.0,0.0,-8.055988729224774e-05,6.187249320469802e-05,3.142720636279708,-1.057468805645604e-05,0.00038480405574484595,-0.00018613710451731132,0.00026677230484151436,3.1420174226311564,,,,
2025-04-30 00:20:38.095922,0.011592724438476587,-0.004690241052246025,-0.2904656488549619,0.0,0.0,-8.055988729224774e-05,6.187249320469802e-05,3.1426588979851706,-8.459750445164831e-06,0.0003078432445958768,-0.0001862658849994213,0.00027145851889833785,3.1420286974835583,,,,
2025-04-30 00:20:38.113805,-0.0003782838623043183,-0.011872846032714768,-0.11489312977099236,0.0,0.0,-8.055988729224774e-05,6.187249320469802e-05,3.1426230377346913,-6.767800356131865e-06,0.0002462745956767014,-0.0001864171712442048,0.00027696369883937284,3.141938037833636,,,,
2025-04-30 00:20:38.126732,-0.019531897143554744,-0.004690241052246025,0.2438854961832061,0.0,0.0,-8.055988729224774e-05,6.187249320469802e-05,3.142678065131663,-5.414240284905492e-06,0.00019701967654136115,-0.0001865046622012051,0.0002801474216040513,3.1419121147264395,,,,
2025-04-30 00:20:38.138793,0.0020159177978515963,-0.00947864437255852,0.16754961832061066,0.0,0.0,-8.055988729224774e-05,6.187249320469802e-05,3.142713335371731,-4.331392227924394e-06,0.00015761574123308893,-0.00018656996399800686,0.00028252369938383895,3.1419634541450887,,,,
2025-04-30 00:20:38.151136,0.04032314436035156,-0.01905545101318351,0.19045038167938927,0.0,0.0,-8.055988729224774e-05,6.187249320469802e-05,3.142754361515458,-3.4651137823395153e-06,0.00012609259298647116,-0.00018662342400301729,0.0002844690642625303,3.141999547087839,,,,
2025-04-30 00:20:38.163672,0.013986926098632946,0.028828582189941554,0.14464885496183205,0.0,0.0,-8.055988729224774e-05,6.187249320469802e-05,3.1427860100091687,-2.772091025871612e-06,0.00010087407438917693,-0.0001866668628387992,0.00028604976717276967,3.1420412167416245,,,,
2025-04-30 00:20:38.175648,0.025957934399414295,-0.026238055993652254,0.1599160305343511,0.0,0.0,-8.055988729224774e-05,6.187249320469802e-05,3.1428194357689914,-2.21767282069729e-06,8.069925951134156e-05,-0.00018670006141103445,0.00028725783545552715,3.1420714513458003,,,,
2025-04-30 00:20:38.187141,-0.014743493823242027,-0.007084442712402272,0.23625190839694654,0.0,0.0,-8.055988729224774e-05,6.187249320469802e-05,3.1428668275351344,-1.774138256557832e-06,6.455940760907325e-05,-0.00018672555011039132,0.00028818534791129173,3.142103530253323,,,,
2025-04-30 00:20:38.198786,-0.005166687182617036,9.816226806647066e-05,0.1370152671755725,0.0,0.0,-8.055988729224774e-05,6.187249320469802e-05,3.1428946746280673,-1.4193106052462657e-06,5.16475260872586e-05,-0.00018674620966695345,0.0002889371318989193,3.1421515462809113,,,,
2025-04-30 00:20:38.210393,0.025957934399414295,-0.014267047692871015,-0.00802290076335882,0.0,0.0,-8.055988729224774e-05,6.187249320469802e-05,3.142893049422227,-1.1354484841970125e-06,4.131802086980688e-05,-0.0001867626828314103,0.0002895365765785262,3.1421793015802657,,,,
2025-04-30 00:20:38.221936,-0.009955090502929753,0.016857573889160204,-0.22939694656488546,0.0,0.0,-8.055988729224774e-05,6.187249320469802e-05,3.142846831337764,-9.083587873576101e-07,3.3054416695845505e-05,-0.00018677579016571603,0.0002900135415134652,3.14217768515463,,,,
2025-04-30 00:20:38.234786,-0.012349292163085668,-0.00947864437255852,0.0225114503816794,0.0,0.0,-8.055988729224774e-05,6.187249320469802e-05,3.142851879732434,-7.266870298860881e-07,2.6443533356676405e-05,-0.00018678746175178302,0.0002904382607705789,3.1421262408317343,,,,
2025-04-30 00:20:38.247481,0.03074633771972657,-0.01905545101318351,-0.06145801526717559,0.0,0.0,-8.055988729224774e-05,6.187249320469802e-05,3.1428382621725355,-5.813496239088705e-07,2.1154826685341124e-05,-0.00018679668727071712,0.0002907739696901461,3.1421312288064134,,,,
2025-04-30 00:20:38.261666,-0.002772485522460677,0.0360111871704103,-0.00802290076335882,0.0,0.0,-8.055988729224774e-05,6.187249320469802e-05,3.1428362759099966,-4.6507969912709645e-07,1.69238613482729e-05,-0.00018680493368710088,0.000291074049886639,3.142116013392807,,,,
2025-04-30 00:20:38.274626,-0.005166687182617036,0.02404017886962906,-0.05382442748091604,0.0,0.0,-8.055988729224774e-05,6.187249320469802e-05,3.1428241009276334,-3.720637593016772e-07,1.353908907861832e-05,-0.0001868109612109439,0.00029129338643902784,3.142114198628027,,,,
2025-04-30 00:20:38.287289,0.006804321118164314,9.816226806647066e-05,0.29732061068702287,0.0,0.0,-8.055988729224774e-05,6.187249320469802e-05,3.1428898114825525,-2.976510074413418e-07,1.0831271262894657e-05,-0.000186815672612498,0.0002914648304018745,3.1421023029407764,,,,
2025-04-30 00:20:38.300874,0.006804321118164314,-0.0286322576538085,0.19808396946564882,0.0,0.0,-8.055988729224774e-05,6.187249320469802e-05,3.1429367764466045,-2.3812080595307342e-07,8.665017010315727e-06,-0.0001868197160864813,0.0002916119690389445,3.142172796539176,,,,
2025-04-30 00:20:38.314111,-0.019531897143554744,0.019251775549316452,0.27441984732824426,0.0,0.0,-8.055988729224774e-05,6.187249320469802e-05,3.1430001788768767,-1.9049664476245874e-07,6.932013608252582e-06,-0.0001868228682617907,0.00029172667406258225,3.1422185621978347,,,,
2025-04-30 00:20:38.327819,-0.024320300463867017,0.012069170568847709,0.0225114503816794,0.0,0.0,-8.055988729224774e-05,6.187249320469802e-05,3.143005564780425,-1.52397315809967e-07,5.545610886602066e-06,-0.0001868254796116326,0.00029182169889969945,3.14228421762227,,,,
2025-04-30 00:20:38.342237,-0.04586811540527336,0.004886565588378966,-0.04619083969465648,0.0,0.0,-8.055988729224774e-05,6.187249320469802e-05,3.142993941144037,-1.2191785264797363e-07,4.436488709281653e-06,-0.00018682767689520488,0.00029190165621151005,3.1422898824881944,,,,
2025-04-30 00:20:38.355713,0.006804321118164314,-0.023843854333496006,0.1370152671755725,0.0,0.0,-8.055988729224774e-05,6.187249320469802e-05,3.143026166391563,-9.753428211837891e-08,3.5491909674253226e-06,-0.0001868293198183095,0.00029196144080946416,3.1422790186532854,,,,
2025-04-30 00:20:38.369340,-0.002772485522460677,-0.0286322576538085,-0.21412977099236646,0.0,0.0,-8.055988729224774e-05,6.187249320469802e-05,3.142975238424187,-7.802742569470313e-08,2.8393527739402582e-06,-0.00018683064892307367,0.00029200980582042523,3.1423116059438074,,,,
2025-04-30 00:20:38.383515,0.013986926098632946,-0.03102645931396475,0.04541221374045801,0.0,0.0,-8.055988729224774e-05,6.187249320469802e-05,3.142986472998088,-6.24219405557625e-08,2.2714822191522065e-06,-0.00018683175491980458,0.00029205005211662034,3.14225863216124,,,,
2025-04-30 00:20:38.397682,0.009198522778320672,0.028828582189941554,0.3354885496183206,0.0,0.0,-8.055988729224774e-05,6.187249320469802e-05,3.143069427971808,-4.9937552444610006e-08,1.8171857753217653e-06,-0.00018683263927071278,0.0002920822329066695,3.1422698610660764,,,,
2025-04-30 00:20:38.411169,0.009198522778320672,0.0024923639282227184,-0.01565648854961832,0.0,0.0,-8.055988729224774e-05,6.187249320469802e-05,3.143065742653756,-3.9950041955688005e-08,1.4537486202574124e-06,-0.0001868333127596943,0.00029210674060753064,3.142348830370348,,,,
2025-04-30 00:20:38.424880,0.006804321118164314,-0.004690241052246025,-0.12252671755725192,0.0,0.0,-8.055988729224774e-05,6.187249320469802e-05,3.1430364202762133,-3.196003356455041e-08,1.16299889620593e-06,-0.00018683386054232115,0.00029212667395926185,3.1423450835510636,,,,
2025-04-30 00:20:38.438553,0.006804321118164314,9.816226806647066e-05,0.09121374045801522,0.0,0.0,-8.055988729224774e-05,6.187249320469802e-05,3.143058186388177,-2.5568026851640326e-08,9.30399116964744e-07,-0.00018683429751114477,0.000292142574889357,3.142315845299902,,,,
2025-04-30 00:20:38.452659,-0.0003782838623043183,0.009674968908691461,0.10648091603053433,0.0,0.0,-8.055988729224774e-05,6.187249320469802e-05,3.143084402530796,-2.0454421481312262e-08,7.443192935717953e-07,-0.00018683465818682414,0.0002921556995757301,3.1423383025863134,,,,
2025-04-30 00:20:38.466730,0.018775329418945663,0.0024923639282227184,-0.16832824427480914,0.0,0.0,-8.055988729224774e-05,6.187249320469802e-05,3.1430430643285314,-1.636353718504981e-08,5.954554348574363e-07,-0.00018683494599586054,0.0002921661727058963,3.1423644522658467,,,,
2025-04-30 00:20:38.480346,-0.005166687182617036,-0.026238055993652254,0.34312213740458014,0.0,0.0,-8.055988729224774e-05,6.187249320469802e-05,3.1431246071935153,-1.3090829748039849e-08,4.7636434788594903e-07,-0.00018683516880707598,0.00029217428061970995,3.142324449113034,,,,
2025-04-30 00:20:38.493377,0.013986926098632946,-0.004690241052246025,-0.16069465648854958,0.0,0.0,-8.055988729224774e-05,6.187249320469802e-05,3.143088061109268,-1.047266379843188e-08,3.8109147830875923e-07,-0.00018683533938751293,0.00029218048789917024,3.142402483882918,,,,
2025-04-30 00:20:38.506979,-0.009955090502929753,-0.0286322576538085,0.12174809160305344,0.0,0.0,-8.055988729224774e-05,6.187249320469802e-05,3.143116963600235,-8.378131038745505e-09,3.048731826470074e-07,-0.00018683548183438128,0.00029218567142159436,3.142364335639307,,,,
2025-04-30 00:20:38.519538,-0.005166687182617036,-0.00947864437255852,-0.0003893129770992654,0.0,0.0,-8.055988729224774e-05,6.187249320469802e-05,3.143116878258374,-6.7025048309964046e-09,2.4389854611760595e-07,-0.0001868355870627918,0.0002921895005954601,3.1423910242146644,,,,
2025-04-30 00:20:38.533465,0.023563732739257937,9.816226806647066e-05,-0.04619083969465648,0.0,0.0,-8.055988729224774e-05,6.187249320469802e-05,3.1431056505721626,-5.362003864797124e-09,1.9511883689408476e-07,-0.00018683568040846183,0.0002921928973663362,3.1423909295836947,,,,
2025-04-30 00:20:38.546665,-0.05305072038574199,-0.011872846032714768,0.014877862595419844,0.0,0.0,-7.15049480230931e-05,6.391596819621835e-05,3.143109078073414,0.0006860027093252244,0.0001548137805182827,-0.00018683575118459534,0.00029219547285065184,3.142380288326603,,,,
2025-04-30 00:20:38.559361,0.03074633771972657,0.03361698551025405,-0.16832824427480914,0.0,0.0,-7.15049480230931e-05,6.391596819621835e-05,3.143071778640898,0.0005488021674601795,0.00012385102441462615,-0.0001781262417464913,0.0002941609929050826,3.1423835850747768,,,,
2025-04-30 00:20:38.573400,0.016381127758789304,0.03361698551025405,0.03777862595419845,0.0,0.0,-7.15049480230931e-05,6.391596819621835e-05,3.1430810351274405,0.0004390417339681437,9.908081953170093e-05,-0.0001704218480677331,0.0002958996832860331,3.1423423414326783,,,,
2025-04-30 00:20:38.585789,0.028352136059570654,-0.014267047692871015,0.06831297709923662,0.0,0.0,-7.15049480230931e-05,6.391596819621835e-05,3.1430958065815475,0.00035123338717451495,7.926465562536076e-05,-0.00016498247966145624,0.0002971272136954038,3.1423505103818767,,,,
2025-04-30 00:20:38.598752,0.03074633771972657,-0.002296039392089777,-0.01565648854961832,0.0,0.0,-7.15049480230931e-05,6.391596819621835e-05,3.143092264332042,0.00028098670973961197,6.341172450028861e-05,-0.0001604294213962314,0.0002981547259098276,3.142365966057561,,,,
2025-04-30 00:20:38.612282,0.04271734602050792,-0.007084442712402272,0.11411450381679389,0.0,0.0,-7.15049480230931e-05,6.391596819621835e-05,3.143119212660233,0.00022478936779168958,5.0729379600230896e-05,-0.0001566275327480951,0.00029901271779051054,3.1423622687519805,,,,
2025-04-30 00:20:38.625504,-0.024320300463867017,-0.014267047692871015,0.2591526717557252,0.0,0.0,-7.15049480230931e-05,6.391596819621835e-05,3.143179013327735,0.00017983149423335168,4.058350368018472e-05,-0.0001536555331978669,0.0002996834243049528,3.1423886011970743,,,,
2025-04-30 00:20:38.640210,-0.04107971208496064,-0.011872846032714768,0.05304580152671756,0.0,0.0,-7.15049480230931e-05,6.391596819621835e-05,3.1431926286186735,0.00014386519538668135,3.246680294414778e-05,-0.0001510109070030795,0.00030028025078057333,3.1424551180357665,,,,
2025-04-30 00:20:38.653015,-0.012349292163085668,-0.035814862634277245,0.1370152671755725,0.0,0.0,-7.15049480230931e-05,6.391596819621835e-05,3.143223251754674,0.0001150921563093451,2.5973442355318225e-05,-0.00014916861242705114,0.0003006960109288442,3.1424669738590474,,,,
2025-04-30 00:20:38.666144,0.0020159177978515963,0.028828582189941554,-0.15306106870229014,0.0,0.0,-7.15049480230931e-05,6.391596819621835e-05,3.143188179971471,9.207372504747608e-05,2.077875388425458e-05,-0.0001476576228594914,0.00030103700376181376,3.1424983689733414,,,,
2025-04-30 00:20:38.679073,-0.014743493823242027,9.816226806647066e-05,-0.22939694656488546,0.0,0.0,-7.15049480230931e-05,6.391596819621835e-05,3.143136414915038,7.365898003798087e-05,1.6623003107403664e-05,-0.00014646718314992348,0.000301305656449933,3.14246382965197,,,,
2025-04-30 00:20:38.692007,0.023563732739257937,0.02404017886962906,-0.10725954198473281,0.0,0.0,-7.15049480230931e-05,6.391596819621835e-05,3.1431122025544855,5.8927184030384695e-05,1.3298402485922932e-05,-0.00014551449771055134,0.00030152065390185123,3.1424120464588197,,,,
2025-04-30 00:20:38.704406,-0.002772485522460677,-0.026238055993652254,-0.030923664122137373,0.0,0.0,-7.15049480230931e-05,6.391596819621835e-05,3.143105510463112,4.714174722430776e-05,1.0638721988738347e-05,-0.00014478384796921543,0.0003016855434090693,3.1423888347639575,,,,
2025-04-30 00:20:38.718347,-0.002772485522460677,9.816226806647066e-05,0.2209847328244275,0.0,0.0,-7.15049480230931e-05,6.391596819621835e-05,3.1431592798531436,3.771339777944621e-05,8.510977590990678e-06,-0.00014412664253407126,0.0003018338583597375,3.142381310504086,,,,
2025-04-30 00:20:38.731162,0.021169531079101578,-0.004690241052246025,0.19808396946564882,0.0,0.0,-7.15049480230931e-05,6.391596819621835e-05,3.143203584090179,3.017071822355697e-05,6.8087820727925434e-06,-0.00014364334539331914,0.000301942926525878,3.1424307368156175,,,,
2025-04-30 00:20:38.744660,0.018775329418945663,-0.016661249353027263,0.12174809160305344,0.0,0.0,-7.15049480230931e-05,6.391596819621835e-05,3.1432322662028187,2.4136574578845576e-05,5.4470256582340354e-06,-0.0001432360989914783,0.00030203483192831217,3.14247740257152,,,,
2025-04-30 00:20:38.758752,-0.0075608888427733945,-0.023843854333496006,-0.13779389312977103,0.0,0.0,-7.15049480230931e-05,6.391596819621835e-05,3.1431983750493058,1.9309259663076462e-05,4.357620526587228e-06,-0.00014289596138732948,0.00030211159254117697,3.142507347173336,,,,
2025-04-30 00:20:38.771338,0.016381127758789304,-0.02144965267333976,0.030145038167938898,0.0,0.0,-7.15049480230931e-05,6.391596819621835e-05,3.143204996483305,1.544740773046117e-05,3.4860964212697825e-06,-0.00014265295120481167,0.00030216643390630366,3.142477080395639,,,,
2025-04-30 00:20:38.784865,-0.029108703784179735,0.038405388830566545,0.12174809160305344,0.0,0.0,-7.15049480230931e-05,6.391596819621835e-05,3.1432337419230505,1.2357926184368935e-05,2.788877137015826e-06,-0.0001424439806784439,0.0003022135933661194,3.1424841978162643,,,,
2025-04-30 00:20:38.797764,-0.0003782838623043183,-0.004690241052246025,0.19808396946564882,0.0,0.0,-7.15049480230931e-05,6.391596819621835e-05,3.1432783354770573,9.88634094749515e-06,2.231101709612661e-06,-0.0001422845796992825,0.00030224956620976396,3.1425116062941574,,,,
2025-04-30 00:20:38.810542,-0.014743493823242027,0.02404017886962906,0.03777862595419845,0.0,0.0,-7.15049480230931e-05,6.391596819621835e-05,3.1432867608259967,7.90907275799612e-06,1.784881367690129e-06,-0.00014215825160215816,0.00030227807532501327,3.142555782770137,,,,
2025-04-30 00:20:38.823991,0.04271734602050792,0.0024923639282227184,0.1599160305343511,0.0,0.0,-7.15049480230931e-05,6.391596819621835e-05,3.1433242983448917,6.3272582063968965e-06,1.4279050941521032e-06,-0.00014205188096372124,0.00030230208053730865,3.1425646506483655,,,,
2025-04-30 00:20:38.836873,0.04989995100097655,-0.033420660974121,-0.06909160305343515,0.0,0.0,-7.954885961635446e-05,6.935475537825628e-05,3.1433087648327342,-0.0006244537298721515,0.0004222163436815498,-0.0001419703762769762,0.0003023204741216392,3.1426006037525736,,,,
2025-04-30 00:20:38.854174,-0.0075608888427733945,-0.12918872738037102,-0.21412977099236646,0.0,0.0,-8.798117965343647e-05,0.00011441340922392482,3.14324410602385,-0.0004873868431608911,0.0026043834861988117,-0.00015277410184429382,0.0003096252739634235,3.1425797407929923,,,,
2025-04-30 00:20:38.869625,-0.005166687182617036,0.004886565588378966,-0.030923664122137373,0.0,0.0,-8.798117965343647e-05,0.00011441340922392482,3.1432357667098163,-0.0003899094745287129,0.0020835067889590493,-0.00016030480995336932,0.00034986610547923315,3.1425219955207244,,,,
2025-04-30 00:20:38.887201,-0.0075608888427733945,0.03361698551025405,0.16754961832061066,0.0,0.0,-8.798117965343647e-05,0.00011441340922392482,3.143287162619658,-0.0003119275796229703,0.0016668054311672394,-0.0001671576648570275,0.000386484784039894,3.142512509674865,,,,
2025-04-30 00:20:38.899219,0.006804321118164314,-0.01905545101318351,-0.023290076335877874,0.0,0.0,-8.798117965343647e-05,0.00011441340922392482,3.1432822771640385,-0.0002495420636983763,0.0013334443449337916,-0.0001709066227982721,0.0004065175860936175,3.142547655812325,,,,
2025-04-30 00:20:38.911404,0.028352136059570654,-0.011872846032714768,0.0225114503816794,0.0,0.0,-8.798117965343647e-05,0.00011441340922392482,3.1432870644881437,-0.00019963365095870104,0.0010667554759470333,-0.00017394719799438787,0.00042276509859919323,3.142542702904273,,,,
2025-04-30 00:20:38.924993,-0.0075608888427733945,0.004886565588378966,0.16754961832061066,0.0,0.0,-8.798117965343647e-05,0.00011441340922392482,3.1433268024220986,-0.00015970692076696085,0.0008534043807576267,-0.0001766600007788408,0.0004372611377768678,3.1425480419706195,,,,
2025-04-30 00:20:38.937816,-0.026714502124023376,-0.002296039392089777,0.10648091603053433,0.0,0.0,-8.798117965343647e-05,0.00011441340922392482,3.1433506343122892,-0.0001277655366135687,0.0006827235046061014,-0.00017870801552464174,0.00044820483857285916,3.142585541874397,,,,
2025-04-30 00:20:38.951257,-0.0075608888427733945,-0.0286322576538085,-0.01565648854961832,0.0,0.0,-8.798117965343647e-05,0.00011441340922392482,3.1433469615681124,-0.00010221242929085496,0.0005461788036848812,-0.00018042526214316374,0.0004573810582385449,3.1426105204743595,,,,
2025-04-30 00:20:38.964544,-0.009955090502929753,-0.01905545101318351,-0.31336641221374045,0.0,0.0,-8.798117965343647e-05,0.00011441340922392482,3.1432742922377157,-8.176994343268397e-05,0.00043694304294790496,-0.0001817833412122894,0.00046463804260366356,3.142606889751682,,,,
2025-04-30 00:20:38.977587,-0.0075608888427733945,0.019251775549316452,-0.06145801526717559,0.0,0.0,-8.798117965343647e-05,0.00011441340922392482,3.1432603010439717,-6.541595474614718e-05,0.000349554434358324,-0.00018284991908438898,0.0004703373712495216,3.142535550477755,,,,
2025-04-30 00:20:38.990141,0.018775329418945663,-0.004690241052246025,0.007244274809160289,0.0,0.0,-8.798117965343647e-05,0.00011441340922392482,3.143261888227882,-5.233276379691775e-05,0.00027964354748665924,-0.00018367109963050442,0.0004747254032276125,3.1425220853379607,,,,
2025-04-30 00:20:39.003000,-0.005166687182617036,-0.014267047692871015,-0.08435877862595426,0.0,0.0,-8.798117965343647e-05,0.00011441340922392482,3.1432429545696547,-4.1866211037534204e-05,0.00022371483798932742,-0.0001843440771449894,0.00047832150260924717,3.142523711257937,,,,
2025-04-30 00:20:39.016225,0.004410119458007955,0.012069170568847709,-0.26756488549618324,0.0,0.0,-8.798117965343647e-05,0.00011441340922392482,3.1431811949310435,-3.349296883002736e-05,0.00017897187039146194,-0.00018489776107592334,0.00048128014892178625,3.142504239466368,,,,
2025-04-30 00:20:39.029798,0.025957934399414295,0.004886565588378966,-0.06145801526717559,0.0,0.0,-8.798117965343647e-05,0.00011441340922392482,3.1431666362537243,-2.679437506402189e-05,0.00014317749631316955,-0.0001853523508551944,0.00048370927915117475,3.1424408565078883,,,,
2025-04-30 00:20:39.044006,0.028352136059570654,0.009674968908691461,0.20571755725190838,0.0,0.0,-8.798117965343647e-05,0.00011441340922392482,3.143217648774305,-2.1435500051217516e-05,0.00011454199705053564,-0.0001857330410480882,0.0004857435221054991,3.1424256165433926,,,,
2025-04-30 00:20:39.056350,-0.0003782838623043183,-0.01905545101318351,-0.10725954198473281,0.0,0.0,-8.798117965343647e-05,0.00011441340922392482,3.1431945397347096,-1.7148400040974013e-05,9.163359764042851e-05,-0.00018599764858503637,0.0004871574697924785,3.1424699383360086,,,,
2025-04-30 00:20:39.069531,-0.03389710710449201,-0.016661249353027263,0.1599160305343511,0.0,0.0,-8.798117965343647e-05,0.00011441340922392482,3.1432313273017556,-1.371872003277921e-05,7.330687811234281e-05,-0.00018622367297417583,0.0004883652459046429,3.1424452640267546,,,,
2025-04-30 00:20:39.082475,-0.017137695483398385,-0.007084442712402272,0.06067938931297706,0.0,0.0,-8.798117965343647e-05,0.00011441340922392482,3.1432450361984547,-1.097497602622337e-05,5.864550248987425e-05,-0.00018640125439572746,0.0004893141638498738,3.1424813928073494,,,,
2025-04-30 00:20:39.095809,-0.03389710710449201,9.816226806647066e-05,0.09884732824427478,0.0,0.0,-8.798117965343647e-05,0.00011441340922392482,3.143268038994313,-8.779980820978696e-06,4.6916401991899406e-05,-0.0001865475872698564,0.000490096103137356,3.142495513528971,,,,
2025-04-30 00:20:39.108856,-0.0075608888427733945,0.012069170568847709,0.3049541984732824,0.0,0.0,-8.798117965343647e-05,0.00011441340922392482,3.14333748349348,-7.023984656782957e-06,3.753312159351953e-05,-0.00018666214368980786,0.0004907082428628043,3.14251802314923,,,,
2025-04-30 00:20:39.121348,0.021169531079101578,0.009674968908691461,0.06067938931297706,0.0,0.0,-8.798117965343647e-05,0.00011441340922392482,3.14335071289568,-5.619187725426366e-06,3.0026497274815625e-05,-0.0001867498852202519,0.0004911770954716687,3.1425845096743896,,,,
2025-04-30 00:20:39.134602,-0.014743493823242027,-0.014267047692871015,-0.08435877862595426,0.0,0.0,-8.798117965343647e-05,0.00011441340922392482,3.143331197576039,-4.495350180341093e-06,2.4021197819852502e-05,-0.00018682436554461735,0.0004915750859581704,3.1425985470715325,,,,
2025-04-30 00:20:39.147896,0.016381127758789304,-0.02144965267333976,-0.0003893129770992654,0.0,0.0,-8.798117965343647e-05,0.00011441340922392482,3.1433311072478025,-3.5962801442728744e-06,1.9216958255882003e-05,-0.00018688412557521012,0.0004918944175917476,3.1425789741825056,,,,
2025-04-30 00:20:39.160714,-0.02192609880371066,0.009674968908691461,0.12174809160305344,0.0,0.0,-8.798117965343647e-05,0.00011441340922392482,3.143358344489202,-2.8770241154182997e-06,1.5373566604705605e-05,-0.00018693022304678027,0.0004921407424472447,3.142578887086179,,,,
2025-04-30 00:20:39.172873,-0.048262317065429716,0.04319379215087904,0.04541221374045801,0.0,0.0,-8.101150367480454e-05,0.00010835056078844035,3.1433679818986913,0.0005731948987427409,-0.0004986162636146333,-0.00018696520578286385,0.0004923276749864312,3.142604724545238,,,,
2025-04-30 00:20:39.186036,-0.019531897143554744,-0.016661249353027263,-0.24466412213740457,0.0,0.0,-8.101150367480454e-05,0.00010835056078844035,3.143311777017698,0.00045855591899419273,-0.00039889301089170664,-0.00017942073652646475,0.0004857648198740909,3.142615156757557,,,,
2025-04-30 00:20:39.198924,0.023563732739257937,0.02404017886962906,0.2591526717557252,0.0,0.0,-8.101150367480454e-05,0.00010835056078844035,3.143370073340497,0.0003668447351953542,-0.00031911440871336535,-0.00017351056062483552,0.0004806236195043049,3.1425601196300414,,,,
2025-04-30 00:20:39.212065,0.03314053937988293,-0.011872846032714768,-0.09962595419847325,0.0,0.0,-8.101150367480454e-05,0.00010835056078844035,3.1433472234876545,0.00029347578815628337,-0.0002552915269706923,-0.00016868979700958552,0.00047643008751915,3.1426195579607543,,,,
2025-04-30 00:20:39.224774,-0.002772485522460677,-0.004690241052246025,-0.06145801526717559,0.0,0.0,-8.101150367480454e-05,0.00010835056078844035,3.1433335918621426,0.0002347806305250267,-0.00020423322157655383,-0.000164960181813335,0.0004731857341622834,3.1425974605387497,,,,
2025-04-30 00:20:39.237408,-0.012349292163085668,-0.002296039392089777,0.20571755725190838,0.0,0.0,-8.101150367480454e-05,0.00010835056078844035,3.1433789537308177,0.00018782450442002136,-0.00016338657726124308,-0.00016199395418840565,0.0004706054436910722,3.1425839087036276,,,,
2025-04-30 00:20:39.250753,-0.0075608888427733945,0.0024923639282227184,-0.1912290076335878,0.0,0.0,-8.101150367480454e-05,0.00010835056078844035,3.1433344137712127,0.0001502596035360171,-0.00013070926180899447,-0.0001594874355893957,0.0004684250493064392,3.142631823252803,,,,
2025-04-30 00:20:39.264550,-0.019531897143554744,9.816226806647066e-05,0.12174809160305344,0.0,0.0,-8.101150367480454e-05,0.00010835056078844035,3.143363732194609,0.00012020768282881367,-0.00010456740944719558,-0.00015741422546532437,0.00046662158544446154,3.1425857729785225,,,,
2025-04-30 00:20:39.277853,0.04032314436035156,0.0312227838500978,-0.11489312977099236,0.0,0.0,-8.64277605197264e-05,0.00010156055048150487,3.143337057048616,-0.00040715884487289356,-0.0005104286654793568,-0.0001558151549965568,0.0004652305707230426,3.1426140396653497,,,,
2025-04-30 00:20:39.290145,0.011592724438476587,-0.002296039392089777,0.030145038167938898,0.0,0.0,-8.64277605197264e-05,0.00010156055048150487,3.143343524066951,-0.00032572707589831486,-0.00040834293238348543,-0.00016081981709244257,0.00045895655008724984,3.1425893916296537,,,,
2025-04-30 00:20:39.303091,0.037928942700195645,0.016857573889160204,0.030145038167938898,0.0,0.0,-8.64277605197264e-05,0.00010156055048150487,3.1433503352904713,-0.0002605816607186519,-0.00032667434590678834,-0.0001650366441260106,0.0004536701872281221,3.142596202853174,,,,
2025-04-30 00:20:39.316180,-0.024320300463867017,0.014463372229003957,0.030145038167938898,0.0,0.0,-8.64277605197264e-05,0.00010156055048150487,3.1433572221538335,-0.00020846532857492152,-0.0002613394767254307,-0.000168447568640966,0.00044939413214509173,3.1426030897165362,,,,
2025-04-30 00:20:39.329369,0.013986926098632946,0.026434380529785306,-0.06145801526717559,0.0,0.0,-8.64277605197264e-05,0.00010156055048150487,3.1433430754711242,-0.00016677226285993722,-0.00020907158138034457,-0.00017119693458601408,0.0004459474301811853,3.1426100286371694,,,,
2025-04-30 00:20:39.343308,-0.009955090502929753,0.009674968908691461,-0.13779389312977103,0.0,0.0,-8.64277605197264e-05,0.00010156055048150487,3.1433095530051056,-0.0001334178102879498,-0.00016725726510427566,-0.00017352155711596027,0.0004430332015192141,3.1425950771456224,,,,
2025-04-30 00:20:39.356856,0.018775329418945663,0.02404017886962906,-0.01565648854961832,0.0,0.0,-8.64277605197264e-05,0.00010156055048150487,3.143305850748155,-0.00010673424823035984,-0.00013380581208342053,-0.00017532918334077214,0.0004407670976306832,3.142562493313239,,,,
2025-04-30 00:20:39.370056,0.013986926098632946,-0.007084442712402272,0.1599160305343511,0.0,0.0,-8.64277605197264e-05,0.00010156055048150487,3.1433426915504694,-8.538739858428788e-05,-0.00010704464966673642,-0.00017673802928631576,0.0004390009187427499,3.142558886435319,,,,
2025-04-30 00:20:39.386191,-0.03629130876464837,0.009674968908691461,0.18281679389312977,0.0,0.0,-8.64277605197264e-05,0.00010156055048150487,3.143394175070529,-6.83099188674303e-05,-8.563571973338914e-05,-0.00017811577338559665,0.00043727373022450083,3.1426039208109393,,,,
2025-04-30 00:20:39.404435,0.018775329418945663,0.026434380529785306,-0.2751984732824428,0.0,0.0,-8.64277605197264e-05,0.00010156055048150487,3.143306545679108,-5.4647935093944246e-05,-6.850857578671132e-05,-0.00017936203775069119,0.0004357113693309084,3.1426621337951874,,,,
2025-04-30 00:20:39.420008,-0.002772485522460677,-0.002296039392089777,-0.09199236641221381,0.0,0.0,-8.64277605197264e-05,0.00010156055048150487,3.1432815432511276,-4.37183480751554e-05,-5.480686062936906e-05,-0.0001802130323091831,0.0004346445325857633,3.142587338132494,,,,
2025-04-30 00:20:39.433678,-0.009955090502929753,-0.035814862634277245,0.14464885496183205,0.0,0.0,-8.64277605197264e-05,0.00010156055048150487,3.143316055036671,-3.497467846012432e-05,-4.384548850349525e-05,-0.00018081067113640814,0.000433895311506913,3.1425653896641004,,,,
2025-04-30 00:20:39.448260,-0.019531897143554744,0.04319379215087904,-0.2064961832061069,0.0,0.0,-8.64277605197264e-05,0.00010156055048150487,3.1432635003840095,-2.7979742768099455e-05,-3.50763908027962e-05,-0.00018132067739346012,0.00043325594970389377,3.142602203760189,,,,
2025-04-30 00:20:39.461764,-0.005166687182617036,-0.004690241052246025,0.3736564885496183,0.0,0.0,-8.64277605197264e-05,0.00010156055048150487,3.1433515689456555,-2.2383794214479565e-05,-2.806111264223696e-05,-0.0001816985233030861,0.00043278226876625523,3.142553533865787,,,,
2025-04-30 00:20:39.474514,-0.0075608888427733945,0.012069170568847709,-0.21412977099236646,0.0,0.0,-8.64277605197264e-05,0.00010156055048150487,3.143303919985207,-1.7907035371583653e-05,-2.244889011378957e-05,-0.00018198390933600445,0.00043242449878590656,3.1426366813102633,,,,
2025-04-30 00:20:39.488814,-0.017137695483398385,0.014463372229003957,0.312587786259542,0.0,0.0,-8.64277605197264e-05,0.00010156055048150487,3.1433819368850067,-1.4325628297266923e-05,-1.7959112091031656e-05,-0.00018223998187498881,0.0004321034772337885,3.1425832379525187,,,,
2025-04-30 00:20:39.502391,0.04032314436035156,-0.033420660974121,0.06067938931297706,0.0,0.0,-9.391379439938789e-05,0.00010734602507720268,3.1433963159125113,-0.0005513670930092845,0.00042611619995142297,-0.000182434484122476,0.00043185964236720564,3.142657311017973,,,,
2025-04-30 00:20:39.515476,0.0020159177978515963,-0.01905545101318351,0.09884732824427478,0.0,0.0,-9.391379439938789e-05,0.00010734602507720268,3.143418888876425,-0.0004410936744074276,0.0003408929599611384,-0.00018964866666557647,0.00043743502053176744,3.142671167878746,,,,
2025-04-30 00:20:39.529277,-0.024320300463867017,0.009674968908691461,0.05304580152671756,0.0,0.0,-9.391379439938789e-05,0.00010734602507720268,3.1434316664832886,-0.0003528749395259421,0.00027271436796891073,-0.0001957363488007824,0.000442139798910557,3.142694978100544,,,,
2025-04-30 00:20:39.541779,0.013986926098632946,-0.004690241052246025,0.21335114503816793,0.0,0.0,-9.391379439938789e-05,0.00010734602507720268,3.14347822153809,-0.0002822999516207537,0.00021817149437512858,-0.00020014814369066184,0.0004455493917159239,3.142706553150665,,,,
2025-04-30 00:20:39.555037,0.047505749340820635,-0.0286322576538085,0.1370152671755725,0.0,0.0,-0.00010577365913449136,0.00011509668551889089,3.143509925101614,-0.0008945775293655983,0.0005846244306947925,-0.00020389073629001174,0.00044844180106827974,3.1427559198505883,,,,
2025-04-30 00:20:39.567992,0.006804321118164314,0.014463372229003957,0.05304580152671756,0.0,0.0,-0.00010577365913449136,0.00011509668551889089,3.1435219191041384,-0.0007156620234924786,0.00046769954455583404,-0.0002154799437516403,0.00045601558153117965,3.1427868998982667,,,,
2025-04-30 00:20:39.582198,-0.005166687182617036,-0.014267047692871015,-0.2599312977099237,0.0,0.0,-0.00010577365913449136,0.00011509668551889089,3.143457471660858,-0.000572529618793983,0.00037415963564466727,-0.0002256465902340545,0.00046265968974622913,3.1428000520900774,,,,
2025-04-30 00:20:39.595240,-0.014743493823242027,0.02404017886962906,-0.28283206106870235,0.0,0.0,-0.00010577365913449136,0.00011509668551889089,3.1433930883770484,-0.0004580236950351864,0.0002993277085157338,-0.00023311391563443675,0.0004675397372744821,3.1427408818869247,,,,
2025-04-30 00:20:39.607635,0.011592724438476587,0.016857573889160204,0.18281679389312977,0.0,0.0,-0.00010577365913449136,0.00011509668551889089,3.143432636721474,-0.00036641895602814914,0.00023946216681258706,-0.0002387909666621625,0.0004712498044471542,3.142679697465475,,,,
2025-04-30 00:20:39.621168,0.009198522778320672,0.0024923639282227184,0.2438854961832061,0.0,0.0,-0.00010577365913449136,0.00011509668551889089,3.1434902408319734,-0.0002931351648225193,0.00019156973345006966,-0.00024374966931297505,0.00047449041648921155,3.142722877560074,,,,
2025-04-30 00:20:39.634033,-0.0003782838623043183,0.04079959049072279,0.06831297709923662,0.0,0.0,-0.00010577365913449136,0.00011509668551889089,3.143505579959736,-0.00023450813185801547,0.00015325578676005574,-0.00024752094259907636,0.0004769550195286429,3.1427776400802316,,,,
2025-04-30 00:20:39.647144,-0.024320300463867017,-0.014267047692871015,-0.16832824427480914,0.0,0.0,-0.00010577365913449136,0.00011509668551889089,3.1434670624521956,-0.00018760650548641238,0.0001226046294080446,-0.00025059549374531476,0.00047896430061888706,3.1427932717148503,,,,
2025-04-30 00:20:39.660393,-0.0003782838623043183,-0.002296039392089777,0.4270916030534351,0.0,0.0,-0.00010577365913449136,0.00011509668551889089,3.1435658272861424,-0.0001500852043891299,9.808370352643568e-05,-0.00025308121159728646,0.00048058876729323714,3.1427543458474827,,,,
2025-04-30 00:20:39.673412,-0.0003782838623043183,0.014463372229003957,-0.10725954198473281,0.0,0.0,-0.00010577365913449136,0.00011509668551889089,3.14354145603309,-0.00012006816351130393,7.846696282114855e-05,-0.0002550351120538256,0.0004818656805897835,3.14285138856594,,,,
2025-04-30 00:20:39.686597,-0.005166687182617036,-0.011872846032714768,0.11411450381679389,0.0,0.0,-0.00010577365913449136,0.00011509668551889089,3.1435677158258213,-9.605453080904315e-05,6.277357025691884e-05,-0.0002566181850762719,0.00048290025069032275,3.1428267062227957,,,,
2025-04-30 00:20:39.700222,0.021169531079101578,-0.002296039392089777,0.11411450381679389,0.0,0.0,-0.00010577365913449136,0.00011509668551889089,3.1435948536199767,-7.684362464723453e-05,5.021885620553507e-05,-0.00025792698778483495,0.00048375557961740647,3.142853844016951,,,,
2025-04-30 00:20:39.714144,-0.019531897143554744,9.816226806647066e-05,0.05304580152671756,0.0,0.0,-0.00010577365913449136,0.00011509668551889089,3.143607742035116,-6.147489971778762e-05,4.017508496442806e-05,-0.00025899672960601135,0.00048445467744030746,3.142881570152786,,,,
2025-04-30 00:20:39.727189,-0.009955090502929753,-0.002296039392089777,-0.030923664122137373,0.0,0.0,-0.00010577365913449136,0.00011509668551889089,3.143600701223064,-4.91799197742301e-05,3.214006797154245e-05,-0.0002597986887899328,0.00048497877391708017,3.1428936478133513,,,,
2025-04-30 00:20:39.739907,-0.019531897143554744,-0.011872846032714768,-0.2751984732824428,0.0,0.0,-0.00010577365913449136,0.00011509668551889089,3.1435396153310777,-3.934393581938408e-05,2.571205437723396e-05,-0.0002604241571538179,0.0004853875300887372,3.1428867836778647,,,,
2025-04-30 00:20:39.753540,-0.012349292163085668,0.009674968908691461,0.1522824427480916,0.0,0.0,-0.00010577365913449136,0.00011509668551889089,3.1435758508290226,-3.147514865550727e-05,2.056964350178717e-05,-0.00026096055229397934,0.00048573807511490924,3.142821300398682,,,,
2025-04-30 00:20:39.767273,-0.017137695483398385,0.014463372229003957,0.03777862595419845,0.0,0.0,-0.00010577365913449136,0.00011509668551889089,3.1435849059372276,-2.5180118924405818e-05,1.6455714801429738e-05,-0.00026139280518688027,0.00048602056108525057,3.1428578007732186,,,,
2025-04-30 00:20:39.782661,-0.04586811540527336,-0.016661249353027263,-0.2064961832061069,0.0,0.0,-0.00010577365913449136,0.00011509668551889089,3.1435294486715595,-2.0144095139524655e-05,1.3164571841143791e-05,-0.00026178026515053123,0.00048627377397427444,3.142867946720052,,,,
2025-04-30 00:20:39.796831,-0.009955090502929753,-0.026238055993652254,-0.10725954198473281,0.0,0.0,-0.00010577365913449136,0.00011509668551889089,3.143502922550553,-1.6115276111619724e-05,1.0531657472915034e-05,-0.00026206570079428335,0.0004864603119156499,3.1428168786039508,,,,
2025-04-30 00:20:39.809275,-0.03629130876464837,-0.05018007259521473,-0.15306106870229014,0.0,0.0,-0.0001004770470888119,0.00012285059915437412,3.143469679353377,0.0004256351513515257,0.0006231036321600534,-0.00026226623960152524,0.0004865913680646895,3.142793582999566,,,,
2025-04-30 00:20:39.822122,0.03074633771972657,0.012069170568847709,0.27441984732824426,0.0,0.0,-0.0001004770470888119,0.00012285059915437412,3.1435312101883963,0.00034050812108122057,0.0004984829057280428,-0.00025679812749152426,0.0004945963472257881,3.142759263414238,,,,
2025-04-30 00:20:39.834973,0.004410119458007955,-0.026238055993652254,-0.06145801526717559,0.0,0.0,-0.0001004770470888119,0.00012285059915437412,3.143517425631303,0.00027240649686497646,0.0003987863245824342,-0.00025242225768466265,0.0005010023509636305,3.1428208136617766,,,,
2025-04-30 00:20:39.848001,0.021169531079101578,-0.004690241052246025,-0.00802290076335882,0.0,0.0,-0.0001004770470888119,0.00012285059915437412,3.143515601385238,0.00021792519749198118,0.0003190290596659474,-0.0002488733713358923,0.0005061977018810075,3.1428068393467687,,,,
2025-04-30 00:20:39.861144,-0.024320300463867017,0.019251775549316452,-0.34390076335877867,0.0,0.0,-0.0001004770470888119,0.00012285059915437412,3.1434367112247203,0.00017434015799358495,0.0002552232477327579,-0.0002460090629101468,0.0005103908729056315,3.1428049989090714,,,,
2025-04-30 00:20:39.874319,-0.012349292163085668,-0.002296039392089777,-0.28283206106870235,0.0,0.0,-0.0001004770470888119,0.00012285059915437412,3.143371675928494,0.00013947212639486796,0.00020417859818620636,-0.0002437121710323603,0.0005137533810706249,3.142725921282819,,,,
2025-04-30 00:20:39.886489,0.0020159177978515963,-0.002296039392089777,-0.2751984732824428,0.0,0.0,-0.0001004770470888119,0.00012285059915437412,3.1433132193076028,0.00011157770111589436,0.0001633428785489651,-0.0002420147180971227,0.0005162383475636619,3.142665843164025,,,,
2025-04-30 00:20:39.901256,-0.038685510424804725,0.009674968908691461,0.12938167938931294,0.0,0.0,-0.0001004770470888119,0.00012285059915437412,3.1433465634365514,8.926216089271549e-05,0.0001306743028391721,-0.00024036713763063487,0.0005186503038357995,3.1425949192633396,,,,
2025-04-30 00:20:39.918193,-0.012349292163085668,0.0024923639282227184,0.12938167938931294,0.0,0.0,-0.0001004770470888119,0.00012285059915437412,3.1433848111455442,7.14097287141724e-05,0.00010453944227133767,-0.00023885523900951913,0.0005208636302475952,3.1426331669723324,,,,
2025-04-30 00:20:39.934591,-0.014743493823242027,-0.002296039392089777,0.21335114503816793,0.0,0.0,-0.0001004770470888119,0.00012285059915437412,3.1434458700987857,5.712778297133792e-05,8.363155381707014e-05,-0.00023768429968274503,0.0005225778132638128,3.1426701947085123,,,,
2025-04-30 00:20:39.950099,-0.029108703784179735,9.816226806647066e-05,0.014877862595419844,0.0,0.0,-0.0001004770470888119,0.00012285059915437412,3.143449897132615,4.570222637707034e-05,6.690524305365611e-05,-0.00023679833841266622,0.0005238748059665685,3.142727943076133,,,,
2025-04-30 00:20:39.962381,-0.009955090502929753,0.04558799381103529,0.38129007633587786,0.0,0.0,-0.0001004770470888119,0.00012285059915437412,3.1435316271097276,3.6561781101656274e-05,5.3524194442924894e-05,-0.0002362370502740059,0.0005246964972126441,3.14273113216351,,,,
2025-04-30 00:20:39.975116,-0.03150290544433565,-0.011872846032714768,0.04541221374045801,0.0,0.0,-0.0001004770470888119,0.00012285059915437412,3.14354172106787,2.924942488132502e-05,4.2819355554339915e-05,-0.00023577142258003663,0.0005253781474626887,3.1428158830653863,,,,
2025-04-30 00:20:39.989053,0.004410119458007955,-0.02144965267333976,0.06067938931297706,0.0,0.0,-0.0001004770470888119,0.00012285059915437412,3.1435564811154904,2.3399539905060015e-05,3.425548444347193e-05,-0.00023536377344900972,0.0005259749206694673,3.142826929426349,,,,
2025-04-30 00:20:40.002164,0.021169531079101578,0.026434380529785306,-0.2599312977099237,0.0,0.0,-0.0001004770470888119,0.00012285059915437412,3.143497001568071,1.8719631924048013e-05,2.7404387554777547e-05,-0.0002350569849809065,0.0005264240400811816,3.142840814566945,,,,
2025-04-30 00:20:40.015509,0.004410119458007955,0.0024923639282227184,0.23625190839694654,0.0,0.0,-0.0001004770470888119,0.00012285059915437412,3.1435520299687147,1.4975705539238411e-05,2.1923510043822037e-05,-0.000234807162508108,0.0005267897647862527,3.1427802707021892,,,,
2025-04-30 00:20:40.028843,0.03314053937988293,-0.016661249353027263,0.07594656488549617,0.0,0.0,-0.0001004770470888119,0.00012285059915437412,3.143569703520031,1.1980564431390729e-05,1.753880803505763e-05,-0.00023460748662467744,0.0005270820779747318,3.1428352489652998,,,,
2025-04-30 00:20:40.040257,0.023563732739257937,9.816226806647066e-05,-0.0003893129770992654,0.0,0.0,-0.0001004770470888119,0.00012285059915437412,3.1435696259655335,9.584451545112584e-06,1.4031046428046105e-05,-0.0002344707427069681,0.0005272822626435261,3.14285037817498,,,,
2025-04-30 00:20:40.052094,-0.009955090502929753,0.004886565588378966,-0.10725954198473281,0.0,0.0,-0.0001004770470888119,0.00012285059915437412,3.1435474653713404,7.667561236090067e-06,1.1224837142436885e-05,-0.0002343572846448757,0.0005274483582546689,3.1428502977401136,,,,
2025-04-30 00:20:40.064487,-0.019531897143554744,-0.011872846032714768,0.19808396946564882,0.0,0.0,-0.0001004770470888119,0.00012285059915437412,3.1435903114838117,6.134048988872054e-06,8.979869713949508e-06,-0.00023426225874770344,0.0005275874703122358,3.1428270972034325,,,,
2025-04-30 00:20:40.077797,-0.014743493823242027,-0.002296039392089777,-0.1759618320610687,0.0,0.0,-0.0001004770470888119,0.00012285059915437412,3.1435494372984234,4.907239191097643e-06,7.183895771159606e-06,-0.00023418061921544594,0.0005277069855564913,3.142873110141554,,,,
2025-04-30 00:20:40.090679,-0.017137695483398385,-0.014267047692871015,0.11411450381679389,0.0,0.0,-0.0001004770470888119,0.00012285059915437412,3.1435750940290625,3.9257913528781145e-06,5.7471166169276854e-06,-0.00023411740418841543,0.0005277995284604896,3.142833548077338,,,,
2025-04-30 00:20:40.105185,0.009198522778320672,0.012069170568847709,0.2667862595419847,0.0,0.0,-0.0001004770470888119,0.00012285059915437412,3.143642639880228,3.140633082302492e-06,4.597693293542149e-06,-0.0002340604553241761,0.0005278828980883087,3.142862439974934,,,,
2025-04-30 00:20:40.119136,0.006804321118164314,0.014463372229003957,0.20571755725190838,0.0,0.0,-0.0001004770470888119,0.00012285059915437412,3.143692729600816,2.5125064658419937e-06,3.678154634833719e-06,-0.00023401664090247994,0.000527947039701644,3.14292739918102,,,,
2025-04-30 00:20:40.132988,0.037928942700195645,0.012069170568847709,0.06831297709923662,0.0,0.0,-0.0001004770470888119,0.00012285059915437412,3.143709245009794,2.010005172673595e-06,2.9425237078669754e-06,-0.00023398183796183498,0.0005279979890620454,3.1429771336492913,,,,
2025-04-30 00:20:40.145782,-0.029108703784179735,-0.002296039392089777,0.21335114503816793,0.0,0.0,-0.0001004770470888119,0.00012285059915437412,3.143756887612835,1.608004138138876e-06,2.3540189662935806e-06,-0.00023395612096144914,0.0005280356371658211,3.142992388350877,,,,
2025-04-30 00:20:40.158310,-0.014743493823242027,0.02404017886962906,0.007244274809160289,0.0,0.0,-0.0001004770470888119,0.00012285059915437412,3.143758471601397,1.286403310511101e-06,1.8832151730348646e-06,-0.00023393597597781357,0.0005280651281804454,3.143039038399688,,,,
2025-04-30 00:20:40.171854,-0.038685510424804725,0.007280767248535214,-0.13779389312977103,0.0,0.0,-0.0001004770470888119,0.00012285059915437412,3.1437258980899703,1.0291226484088808e-06,1.5065721384278919e-06,-0.00023391855251836313,0.0005280906350513744,3.143040750895524,,,,
2025-04-30 00:20:40.184742,-0.017137695483398385,0.004886565588378966,0.06831297709923662,0.0,0.0,-0.0001004770470888119,0.00012285059915437412,3.143741264222739,8.232981187271047e-07,1.2052577107423137e-06,-0.00023390528923227741,0.0005281100516848647,3.1430097559170225,,,,
2025-04-30 00:20:40.197558,-0.026714502124023376,0.009674968908691461,0.21335114503816793,0.0,0.0,-0.0001004770470888119,0.00012285059915437412,3.1437889840639,6.586384949816838e-07,9.64206168593851e-07,-0.000233894738471727,0.0005281254973481284,3.1430250353495084,,,,
2025-04-30 00:20:40.209996,-0.009955090502929753,-0.002296039392089777,0.09884732824427478,0.0,0.0,-0.0001004770470888119,0.00012285059915437412,3.143810441932692,5.26910795985347e-07,7.713649348750807e-07,-0.00023388654644439512,0.0005281374899713153,3.1430713498120055,,,,
2025-04-30 00:20:40.223290,0.006804321118164314,-0.004690241052246025,-0.22939694656488546,0.0,0.0,-0.0001004770470888119,0.00012285059915437412,3.1437572144840624,4.215286367882777e-07,6.170919479000646e-07,-0.00023387954145074303,0.0005281477448503449,3.1430942855623067,,,,
2025-04-30 00:20:40.236327,0.028352136059570654,-0.011872846032714768,-0.31336641221374045,0.0,0.0,-0.0001004770470888119,0.00012285059915437412,3.1436859117214895,3.3722290943062214e-07,4.936735583200518e-07,-0.0002338740459961007,0.0005281557898572884,3.1430420890429023,,,,
2025-04-30 00:20:40.249586,-0.0075608888427733945,9.816226806647066e-05,0.2209847328244275,0.0,0.0,-0.0001004770470888119,0.00012285059915437412,3.1437370520915273,2.697783275444977e-07,3.9493884665604143e-07,-0.00023386957461899376,0.000528162335677828,3.1429695696698525,,,,
2025-04-30 00:20:40.262655,0.009198522778320672,9.816226806647066e-05,0.07594656488549617,0.0,0.0,-0.0001004770470888119,0.00012285059915437412,3.143754375167763,2.1582266203559818e-07,3.159510773248332e-07,-0.0002338660489091205,0.0005281674970998134,3.143019975312022,,,,
2025-04-30 00:20:40.276579,0.021169531079101578,0.012069170568847709,0.09884732824427478,0.0,0.0,-0.0001004770470888119,0.00012285059915437412,3.1437783963979706,1.7265812962847854e-07,2.5276086185986655e-07,-0.00023386304387098715,0.0005281718962904577,3.1430384313487303,,,,
2025-04-30 00:20:40.290615,-0.0075608888427733945,0.009674968908691461,-0.38206870229007633,0.0,0.0,-0.0001004770470888119,0.00012285059915437412,3.143684798150698,1.3812650370278284e-07,2.0220868948789325e-07,-0.00023386062041064486,0.000528175444087055,3.143062646723127,,,,
2025-04-30 00:20:40.304670,0.028352136059570654,-0.01905545101318351,-0.06145801526717559,0.0,0.0,-0.0001004770470888119,0.00012285059915437412,3.1436697226260124,1.1050120296222627e-07,1.617669515903146e-07,-0.00023385867910661283,0.0005281782860365266,3.142968926056622,,,,
2025-04-30 00:20:40.318155,0.037928942700195645,0.0024923639282227184,-0.321,0.0,0.0,-0.0001004770470888119,0.00012285059915437412,3.143594171737782,8.840096236978103e-08,1.2941356127225168e-07,-0.00023385718897653624,0.0005281804674951307,3.142954461235306,,,,
2025-04-30 00:20:40.331114,-0.005166687182617036,0.04319379215087904,-0.023290076335877874,0.0,0.0,-0.0001004770470888119,0.00012285059915437412,3.143588904051713,7.072076989582482e-08,1.0353084901780135e-07,-0.00023385604338816004,0.0005281821445659175,3.142881858329083,,,,
2025-04-30 00:20:40.343506,0.006804321118164314,0.0024923639282227184,-0.29809923664122134,0.0,0.0,-0.0001004770470888119,0.00012285059915437412,3.143524429321101,5.657661591665986e-08,8.282467921424108e-08,-0.00023385516699640186,0.0005281834275494445,3.1428768210085765,,,,
2025-04-30 00:20:40.356392,0.0020159177978515963,0.007280767248535214,-0.1759618320610687,0.0,0.0,-0.0001004770470888119,0.00012285059915437412,3.1434848562737283,4.526129273332789e-08,6.625974337139287e-08,-0.00023385443797442734,0.0005281844947926898,3.142809779792449,,,,
2025-04-30 00:20:40.369167,-0.019531897143554744,0.04079959049072279,-0.11489312977099236,0.0,0.0,-0.0001004770470888119,0.00012285059915437412,3.1434592381892603,3.620903418666231e-08,5.30077946971143e-08,-0.00023385385974235122,0.0005281853412888161,3.142770545026316,,,,
2025-04-30 00:20:40.381896,-0.005166687182617036,-0.016661249353027263,-0.04619083969465648,0.0,0.0,-0.0001004770470888119,0.00012285059915437412,3.1434489761601774,2.896722734932985e-08,4.240623575769144e-08,-0.00023385339883147418,0.0005281860160339369,3.142745019691706,,,,
2025-04-30 00:20:40.395074,-0.014743493823242027,-0.023843854333496006,-0.0003893129770992654,0.0,0.0,-0.0001004770470888119,0.00012285059915437412,3.1434488866192636,2.3173781879463883e-08,3.392498860615315e-08,-0.00023385301710506854,0.0005281865748578712,3.1427343959256175,,,,
2025-04-30 00:20:40.407105,0.009198522778320672,0.009674968908691461,-0.00802290076335882,0.0,0.0,-0.0001004770470888119,0.00012285059915437412,3.14344720202185,1.853902550357111e-08,2.7139990884922525e-08,-0.00023385273831053347,0.00052818698299589,3.1427343141801676,,,,
2025-04-30 00:20:40.422667,0.023563732739257937,-0.002296039392089777,0.36602290076335875,0.0,0.0,-0.0001004770470888119,0.00012285059915437412,3.1435466171877597,1.4831220402856888e-08,2.171199270793802e-08,-0.00023385244980515268,0.0005281874053499885,3.1427321350869777,,,,
2025-04-30 00:20:40.439746,0.035534741040039286,-0.00947864437255852,0.05304580152671756,0.0,0.0,-0.0001004770470888119,0.00012285059915437412,3.1435624294403843,1.1864976322285511e-08,1.7369594166350417e-08,-0.0002338521965010351,0.000528187776171607,3.142841241678011,,,,
2025-04-30 00:20:40.454195,0.006804321118164314,-0.026238055993652254,0.2209847328244275,0.0,0.0,-0.0001004770470888119,0.00012285059915437412,3.1436181602503694,9.491981057828409e-09,1.3895675333080334e-08,-0.0002338520250569159,0.0005281880271552323,3.142854619459578,,,,
2025-04-30 00:20:40.467316,0.04032314436035156,-0.00947864437255852,0.09121374045801522,0.0,0.0,-0.0001004770470888119,0.00012285059915437412,3.1436390473068574,7.593584846262728e-09,1.1116540266464268e-08,-0.00023385190052046894,0.0005281882094689162,3.1429052228069936,,,,
2025-04-30 00:20:40.481028,0.018775329418945663,-0.016661249353027263,-0.21412977099236646,0.0,0.0,-0.0001004770470888119,0.00012285059915437412,3.1435878003491333,6.074867877010182e-09,8.893232213171415e-09,-0.00023385179639414934,0.0005281883619034314,3.1429270526846396,,,,
2025-04-30 00:20:40.494564,0.004410119458007955,-0.02144965267333976,-0.16832824427480914,0.0,0.0,-0.0001004770470888119,0.00012285059915437412,3.143548033946958,4.859894301608146e-09,7.1145857705371325e-09,-0.00023385171416632943,0.0005281884822798926,3.142876465983474,,,,
2025-04-30 00:20:40.508299,0.0020159177978515963,0.02164597720947281,-0.21412977099236646,0.0,0.0,-0.0001004770470888119,0.00012285059915437412,3.143496703231992,3.887915441286517e-09,5.691668616429706e-09,-0.00023385164741656812,0.0005281885799974298,3.142836114709162,,,,
2025-04-30 00:20:40.522193,-0.002772485522460677,-0.035814862634277245,0.1599160305343511,0.0,0.0,-0.0001004770470888119,0.00012285059915437412,3.1435354824635313,3.1103323530292134e-09,4.553334893143765e-09,-0.0002338515933975556,0.0005281886590779353,3.142784188783156,,,,
2025-04-30 00:20:40.536279,0.0020159177978515963,-0.00947864437255852,-0.10725954198473281,0.0,0.0,-0.0001004770470888119,0.00012285059915437412,3.143509112557062,2.4882658824233708e-09,3.642667914515012e-09,-0.0002338515495846474,0.000528188723217333,3.142823504360028,,,,
2025-04-30 00:20:40.551728,-0.03150290544433565,0.0024923639282227184,0.18281679389312977,0.0,0.0,-0.0001004770470888119,0.00012285059915437412,3.143558408202488,1.9906127059386965e-09,2.9141343316120098e-09,-0.00023385151114212413,0.000528188779494818,3.142794582354354,,,,
2025-04-30 00:20:40.564089,-0.002772485522460677,-0.002296039392089777,-0.00802290076335882,0.0,0.0,-0.0001004770470888119,0.00012285059915437412,3.143556677367115,1.5924901647509574e-09,2.331307465289608e-09,-0.00023385148653653625,0.0005281888155158824,3.142834022674371,,,,
2025-04-30 00:20:40.577018,-0.06023332536621062,0.091077825354004,0.05304580152671756,0.0,0.0,-9.058081246742735e-05,0.0001079507984740201,3.143568647088942,0.0007654455613884541,-0.001152457144832124,-0.00023385146594766997,0.0005281888456567139,3.1428322123163857,,,,
2025-04-30 00:20:40.590050,-0.07459853532714833,0.02404017886962906,-0.16832824427480914,0.0,0.0,-6.838213386167829e-05,8.92557445366802e-05,3.1435303614289194,0.001703434136570514,-0.0014345805724510236,-0.00022387639286285506,0.000513170345548143,3.142844277395135,,,,
2025-04-30 00:20:40.601665,-0.026714502124023376,-0.007084442712402272,0.03777862595419845,0.0,0.0,-6.838213386167829e-05,8.92557445366802e-05,3.143538020408308,0.0013627473092564114,-0.0011476644579608189,-0.00020408972238457893,0.0004965066117105829,3.142810151681962,,,,
2025-04-30 00:20:40.613328,0.04511154768066428,-0.011872846032714768,0.030145038167938898,0.0,0.0,-6.838213386167829e-05,8.92557445366802e-05,3.143544156518014,0.0010901978474051291,-0.0009181315663686551,-0.00018819637985936,0.0004831217206082523,3.1428178416305403,,,,
2025-04-30 00:20:40.624933,0.021169531079101578,0.0360111871704103,0.1370152671755725,0.0,0.0,-6.838213386167829e-05,8.92557445366802e-05,3.1435719089666363,0.0008721582779241034,-0.0007345052530949241,-0.00017554434738381887,0.000472466562535647,3.1428239475093975,,,,
2025-04-30 00:20:40.636471,-0.048262317065429716,-0.023843854333496006,0.14464885496183205,0.0,0.0,-5.223111921535692e-05,8.407397592080338e-05,3.143601036656017,0.0013998649639428893,-0.00044912202084325154,-0.00016548177600480028,0.00046399217007201787,3.1428515380364277,,,,
2025-04-30 00:20:40.647950,-0.03629130876464837,0.05037639713134778,-0.1912290076335878,0.0,0.0,-3.1783965830473545e-05,7.252543020565876e-05,3.1435627241582935,0.0017812444644698504,-0.0010060463058386591,-0.00014941253104331005,0.00045883663581948393,3.1428805182575514,,,,
2025-04-30 00:20:40.659617,0.047505749340820635,-0.05257427425537098,-0.21412977099236646,0.0,0.0,-1.776825716578933e-05,6.802369624008944e-05,3.143519120494435,0.0012012862292610687,-0.00038584356667327365,-0.00012863030373854229,0.0004470988404611788,3.142841577920903,,,,
2025-04-30 00:20:40.671159,0.11454339582519557,0.009674968908691461,-0.3362671755725191,0.0,0.0,-1.9131415252797206e-05,6.23687021679903e-05,3.1434513831681175,-0.00011810819097625403,-0.0004899660033585011,-0.00011476553259360404,0.0004426455864244932,3.1427984438322207,,,,
2025-04-30 00:20:40.683605,0.04271734602050792,0.02164597720947281,-0.16069465648854958,0.0,0.0,-1.9131415252797206e-05,6.23687021679903e-05,3.1434164766893624,-9.448655278100323e-05,-0.0003919728026868009,-0.0001162354984771791,0.0004365475054777329,3.1427253990697093,,,,
2025-04-30 00:20:40.695187,-0.12008836687011692,0.026434380529785306,0.05304580152671756,0.0,0.0,-4.410363300592384e-06,5.4473443653977486e-05,3.1434271997077228,0.0012710135467453117,-0.0006816755051845043,-0.00011732985459622731,0.00043200762310828083,3.142692915221745,,,,
2025-04-30 00:20:40.706558,-0.09135794694824195,0.009674968908691461,0.11411450381679389,0.0,0.0,2.133306139462027e-05,4.567235986416334e-05,3.1434498477758286,0.002263879844277791,-0.0007739683602883452,-0.00010287668403157161,0.0004242560359034013,3.1427034431115883,,,,
2025-04-30 00:20:40.717997,0.047505749340820635,0.02404017886962906,-0.0767251908396947,0.0,0.0,4.062505020258e-05,3.390253700665305e-05,3.143434530253278,0.001686567851786913,-0.001028955855733932,-7.698104954992327e-05,0.0004154029150944294,3.1427262250879697,,,,
2025-04-30 00:20:40.729586,0.013986926098632946,-0.02144965267333976,0.09884732824427478,0.0,0.0,4.062505020258e-05,3.390253700665305e-05,3.1434545242255236,0.0013492542814295305,-0.0008231646845871457,-5.743492778394969e-05,0.0004034780486108911,3.1427107057880206,,,,
2025-04-30 00:20:40.868350,-0.07220433366699197,0.009674968908691461,0.0225114503816794,0.0,0.0,0.0008806334187840358,-0.00014023686096307643,3.1434938141183797,0.008400083685814557,-0.0017413939796972948,0.0001297928645670703,0.0002892525028721842,3.142950102849029,,,,
2025-04-30 00:20:40.879815,0.004410119458007955,-0.0286322576538085,0.20571755725190838,0.0,0.0,0.0008806334187840358,-0.00014023686096307643,3.143534978017513,0.006720066948651646,-0.0013931151837578359,0.00022609843140241763,0.00026928770959499116,3.1429546073701076,,,,
2025-04-30 00:20:40.891330,0.0618709593017579,-0.004690241052246025,0.07594656488549617,0.0,0.0,0.0009484259547751885,-0.00015536389844713401,3.1435502412230765,0.005887374057971219,-0.001313692234042127,0.0003034793445215021,0.0002532461246192831,3.1429959510354735,,,,
2025-04-30 00:20:40.903167,-0.05065651872558563,0.012069170568847709,-0.00802290076335882,0.0,0.0,0.0010236833655267682,-0.00017224746217993063,3.1435485836673576,0.006357552043202296,-0.0014262799375372357,0.00037317103162340766,0.00023769531585096502,3.1430116418269556,,,,
2025-04-30 00:20:40.914919,-0.20388542497558593,-0.00947864437255852,0.03777862595419845,0.0,0.0,0.001124492005412215,-0.00018733636872489442,3.143556332253032,0.008578252820168183,-0.0012839817625718765,0.0004478827693060938,0.00022093417070716753,3.1430099962897677,,,,
2025-04-30 00:20:40.927197,0.04989995100097655,-0.026238055993652254,-0.22939694656488546,0.0,0.0,0.0012203305521371153,-0.00019892371259372632,3.143507174111149,0.007805662353536755,-0.0009437423344288528,0.0005532072435771579,0.00020516933992501,3.1430180919818973,,,,
2025-04-30 00:20:40.939965,0.006804321118164314,9.816226806647066e-05,0.06067938931297706,0.0,0.0,0.0012203305521371153,-0.00019892371259372632,3.1435206956540207,0.006244529882829405,-0.0007549938675430823,0.0006528664539477574,0.0001931200593409132,3.1429669741199224,,,,
2025-04-30 00:20:40.955753,0.03074633771972657,-0.016661249353027263,-0.29809923664122134,0.0,0.0,0.0012203305521371153,-0.00019892371259372632,3.143438550751264,0.004995623906263524,-0.0006039950940344659,0.0007514585583590564,0.00018119979702887335,3.14298369507027,,,,
2025-04-30 00:20:40.970449,0.04989995100097655,-0.014267047692871015,-0.16832824427480914,0.0,0.0,0.0012817097984975843,-0.00020462181430207124,3.1433953766808913,0.0041766964944790624,-0.00038774085446831427,0.000824872470735048,0.00017232369992048626,3.142907236378051,,,,
2025-04-30 00:20:40.983827,-0.038685510424804725,0.004886565588378966,0.04541221374045801,0.0,0.0,0.0012817097984975843,-0.00020462181430207124,3.1434059799099865,0.00334135719558325,-0.00031019268357465146,0.0008807479192008041,0.00016713653964667882,3.1428679336709116,,,,
2025-04-30 00:20:40.996816,-0.0793869386474606,0.05516480045166028,0.19045038167938927,0.0,0.0,0.0013373881639095135,-0.00021766776875609063,3.143449156898909,0.004286406350000303,-0.001004344534897974,0.0009241505487502518,0.0001631072852610849,3.1428782290698094,,,,
2025-04-30 00:20:41.008301,0.037928942700195645,0.038405388830566545,-0.030923664122137373,0.0,0.0,0.0013807379198898734,-0.00023394488763752686,3.143442958421013,0.0037745911336401847,-0.0014172967580004874,0.0009733783095133044,0.00015157276696054316,3.1429164037982775,,,,
2025-04-30 00:20:41.019656,0.16961003400878916,0.21318211002197274,-1.0156564885496182,0.0,0.0,0.001401354147436569,-0.0002766913015839044,3.1432416663559626,0.0018155439166880046,-0.003764412845404955,0.001016240301994778,0.00013547879523363753,3.1429102750645175,,,,
2025-04-30 00:20:41.031085,0.5885953245361328,0.35444000797119146,-2.3820687022900766,0.0,0.0,0.0013464010822136095,-0.00036430972445153977,3.142766523200332,-0.004808383462541363,-0.007666596464116291,0.001036989417377554,9.245684695700176e-05,3.142707685513451,,,,
2025-04-30 00:20:41.042519,0.49761566145019565,0.5579471490844727,-3.5805419847328244,0.0,0.0,0.0012287978792011036,-0.0005217323318837115,3.142051981964328,-0.010285324342302952,-0.013767844197906243,0.0009820099847716774,4.7963833315494586e-06,3.1422323143763333,,,,
2025-04-30 00:20:41.054232,0.5047982664306643,0.48372689761962895,-2.0461908396946566,0.0,0.0,0.0010428670076366383,-0.0007448106220092395,3.141633677322896,-0.015873851944437446,-0.019045313560223556,0.0008615376932332817,-0.00015646676062624137,3.1415003409445306,,,,
2025-04-30 00:20:41.066457,3.4903677366455077,0.6178021905883789,-9.840083969465649,0.0,0.0,0.00034130892571512426,-0.0010624118885267108,3.1395341480390107,-0.05738757424155503,-0.025979839347816596,0.0006674812398977509,-0.000389294055166757,3.1410637554843164,,,,
2025-04-30 00:20:41.079565,2.937307153149414,-0.19143797054443346,-3.9851221374045807,0.0,0.0,-0.0008903173209895647,-0.0013624315266830389,3.138622472847848,-0.09396320084869061,-0.022889091227197542,-8.472858301398155e-05,-0.0007298257924525887,3.138812642438189,,,,
2025-04-30 00:20:41.092760,3.1527853025634767,0.26585454654541024,-3.4202366412213743,0.0,0.0,-0.002643484820096901,-0.0017017535746534811,3.1378348031051138,-0.13286566663370733,-0.025715882897705586,-0.0013245765739488145,-0.001031848217359801,3.1378948813420995,,,,
2025-04-30 00:20:41.106074,3.1599679075439453,-0.07172788753662096,-7.862984732824427,0.0,0.0,-0.004926095873410374,-0.0020217777133783067,3.136007557325829,-0.17143510137443885,-0.02403535660835318,-0.003093646250068147,-0.0013742480997491716,3.1371000670089697,,,,
2025-04-30 00:20:41.119918,3.2820721922119143,0.2682487482055665,3.526328244274809,0.0,0.0,-0.007868476870826435,-0.002395312003890508,3.136859557473124,-0.21254913433660286,-0.026983042020434476,-0.00546687343891856,-0.0017069767028143788,3.1352002823926566,,,,
2025-04-30 00:20:41.134242,3.7130284910400393,-0.16510175228271473,2.0225114503816792,0.0,0.0,-0.011598791831653358,-0.0027377477635966707,3.137365210758101,-0.26041201959748683,-0.02390532400184078,-0.00851156859911958,-0.002093499742315508,3.1360819087786473,,,,
2025-04-30 00:20:41.147217,3.34192723371582,-0.7014029241577147,-7.412603053435115,0.0,0.0,-0.015460642298757097,-0.0029227402583361186,3.135686612590836,-0.2976437865045035,-0.014257897108703512,-0.011890346605314465,-0.0024036650837357234,3.1365399103726097,,,,
2025-04-30 00:20:41.160089,3.4137532835205078,0.44302546939697274,-5.076725190839695,0.0,0.0,-0.019770170511284813,-0.0031706310967984665,3.1345460622841697,-0.3347929509153149,-0.019257816916576766,-0.015721682634695776,-0.0025871958590202287,3.134874575660176,,,,
2025-04-30 00:20:41.173710,0.48325045148925794,0.799761516760254,-3.0003893129770995,0.0,0.0,-0.024328121810624572,-0.0035724169778761604,3.1338327835157416,-0.3346303757504979,-0.02949784925866788,-0.0202818483465259,-0.00284950376050854,3.133667692181386,,,,
2025-04-30 00:20:41.187158,3.425724291821289,-0.9958897283569335,-7.366801526717557,0.0,0.0,-0.029343574154409538,-0.0037789134896141887,3.132103738356506,-0.3729581559348034,-0.015355456087668591,-0.024781877842201722,-0.0032461838031534944,3.132963477659166,,,,
2025-04-30 00:20:41.200094,2.355516149731445,0.8596165582641602,-19.45077099236641,0.0,0.0,-0.034459926498948155,-0.004109179130189744,3.1277121859998296,-0.39550918028876275,-0.025530511580386533,-0.02960650753635612,-0.003444823753048572,3.131300217389508,,,,
2025-04-30 00:20:41.212843,-0.4624592042724607,2.4421838556274413,48.58739694656489,0.0,0.0,-0.03932903032630265,-0.004817405223996189,3.138523631594647,-0.3819146063411802,-0.05555065149711539,-0.03464893123925446,-0.0037703172261610574,3.1269721206900187,,,,
2025-04-30 00:20:41.229137,11.659383801098633,5.279312822912598,-17.45077099236641,0.0,0.0,-0.04847183795262729,-0.0070535795595228126,3.1335609842830983,-0.5611231120165631,-0.13724111382913126,-0.0408717577468139,-0.00467544643805518,3.140789396438895,,,,
2025-04-30 00:20:41.243601,4.584517895336914,-0.3326958684936522,-8.000389312977099,0.0,0.0,-0.057364733236298655,-0.008921267432231348,3.1315413443702433,-0.6148337826770174,-0.1291275296748244,-0.04898778717949136,-0.0066604883929440185,3.136384076619132,,,,
2025-04-30 00:20:41.258010,4.220599242993164,1.6592799127563476,-10.366801526717557,0.0,0.0,-0.06690952220996271,-0.011071335642192969,3.128934285888307,-0.6624265172730217,-0.14921882507346518,-0.05784682068209049,-0.008521064606756373,3.1343721269581457,,,,
2025-04-30 00:20:41.271580,3.8183733640869137,0.26585454654541024,0.3583893129770992,0.0,0.0,-0.07640854030165693,-0.013095056843187958,3.1290191676754344,-0.699997708559225,-0.14913122491027433,-0.06683599506802641,-0.010545974548121237,3.1319168287432637,,,,
2025-04-30 00:20:41.284791,0.856745910473633,-0.0789104925170897,-9.695045801526717,0.0,0.0,-0.08561775569728217,-0.015010196634305301,3.1267836857971423,-0.6970737199655758,-0.14496279662243988,-0.07608384000885182,-0.012516184488728337,3.131999466085153,,,,
2025-04-30 00:20:41.298357,1.412200695629883,2.1453028497680666,-9.504206106870228,0.0,0.0,-0.09514640162041597,-0.017319950413397116,3.1245333590863966,-0.7023908209135995,-0.1702602726653764,-0.08554035404933179,-0.014482752273947727,3.1297039539420286,,,,
2025-04-30 00:20:41.311352,1.1272906980712891,0.11262564029541022,-10.534740458015266,0.0,0.0,-0.10427796584665466,-0.019503159264264637,3.1221441084454677,-0.7027238199799976,-0.1680098639713237,-0.0946675911099392,-0.016695204123189224,3.127548425704493,,,,
2025-04-30 00:20:41.324555,0.2965027219970704,-0.12200612239990227,-9.015656488549618,0.0,0.0,-0.11342109154765503,-0.02165520089401333,3.120066480537321,-0.6924710852330925,-0.1629887471257037,-0.1039460900338351,-0.018913542676315537,3.125120729972246,,,,
2025-04-30 00:20:41.337985,-0.8958097047607421,1.834056633947754,-6.81718320610687,0.0,0.0,-0.12238378587700822,-0.024127994500060344,3.1184686193430537,-0.6673933402521601,-0.18413279800126772,-0.11324556351451853,-0.021102384295652026,3.1230075745518384,,,,
2025-04-30 00:20:41.351229,-1.412957263354492,0.3999298395141602,-5.252297709923664,0.0,0.0,-0.13080492202129704,-0.026592541785346653,3.117254529401813,-0.635838074069039,-0.18608569823340246,-0.12208462240271727,-0.023541067073288176,3.1214317549743438,,,,
2025-04-30 00:20:41.363942,-0.9221459230224607,-1.412480817224121,-6.2293969465648855,0.0,0.0,-0.1385753031638641,-0.028691144494815003,3.115872254785745,-0.6111831356360725,-0.1650666242613023,-0.13016845831440405,-0.025906899368299742,3.1202662941981663,,,,
2025-04-30 00:20:41.377059,1.6013426267822266,2.2626187311157224,-5.168328244274809,0.0,0.0,-0.1467114654603401,-0.03118693665911508,3.1146891236597622,-0.6203177079010138,-0.19028431566888693,-0.1381848104531015,-0.028071933233390835,3.1188402637536514,,,,
2025-04-30 00:20:41.390208,2.630849340649414,0.1341734552368165,-1.9545877862595418,0.0,0.0,-0.1551511290222492,-0.033649482978539653,3.1142405579872996,-0.6418471947266506,-0.18727979325393476,-0.14634138229635577,-0.030573986087321973,3.1176541647456157,,,,
2025-04-30 00:20:41.402969,4.689862768383789,-1.1371476263061522,-10.084358778625953,0.0,0.0,-0.16392093239908936,-0.035788073822166755,3.111994492433563,-0.6872157194338007,-0.1675833746807761,-0.15453222184869722,-0.03296392990968603,3.1172188239971512,,,,
2025-04-30 00:20:41.416947,2.283690099926758,0.9098947931274415,-6.038557251908397,0.0,0.0,-0.173777018407784,-0.03824421598930987,3.110521337845469,-0.705125982407627,-0.17571779071446633,-0.1641379623918828,-0.0353063711126627,3.114758663600721,,,,
2025-04-30 00:20:41.430076,-3.3522606080810546,-1.2089736761108396,-2.7179465648854966,0.0,0.0,-0.18227728899109177,-0.04031896629784936,3.1098985135185213,-0.6474190362754009,-0.15802236318270585,-0.173395894750912,-0.03761345305447115,3.1133749129395625,,,,
2025-04-30 00:20:41.443753,-3.2828287599365233,5.178756353186035,-35.527106870229005,0.0,0.0,-0.19039195293760144,-0.043409889314597015,3.1014176622972847,-0.5932917435023847,-0.22598829942016735,-0.1822508770922041,-0.039774781586857516,3.1127260984856227,,,,
2025-04-30 00:20:41.462679,6.6938095579345696,16.017307268713378,61.343122137404585,0.0,0.0,-0.20385695000422685,-0.05317578148760292,3.1216802278905544,-0.7114675114201967,-0.5160131091560515,-0.1934793189503096,-0.04405176084443467,3.1009909551115267,,,,
2025-04-30 00:20:41.482973,1.9556844724853515,2.705546038244629,9.991977099236642,0.0,0.0,-0.21881339853918827,-0.06451690457987126,3.125219265689978,-0.7370077882912087,-0.5588556686724565,-0.20791746653559498,-0.0545234595606068,3.122717949261216,,,,
2025-04-30 00:20:41.495884,-1.5398499513427732,-1.0509563665405273,-37.26756488549618,0.0,0.0,-0.2278832517285474,-0.07142287284827815,3.1168210497085633,-0.7024600039062273,-0.5348671467464146,-0.21743338545203747,-0.061739157024824194,3.124969633319956,,,,
2025-04-30 00:20:41.513945,3.4209358885009764,-2.1882021551147455,-9.382068702290075,0.0,0.0,-0.2413899672506273,-0.08016009150401894,3.113863688021651,-0.7478616908175713,-0.4837764670650975,-0.2301201262690838,-0.07139909613109491,3.113222366053625,,,,
2025-04-30 00:20:41.526710,-3.7113908571044916,2.554711333654785,-25.885885496183207,0.0,0.0,-0.250166937672175,-0.08663965319593146,3.10809646206538,-0.6875718075302898,-0.507597010190984,-0.2396667072484462,-0.07757458456091125,3.111132095270679,,,,
2025-04-30 00:20:41.539317,-1.049038611010742,-1.2377040960327146,2.4194580152671756,0.0,0.0,-0.25849203923615904,-0.09272358528100927,3.1086288183194584,-0.660362857012019,-0.48258904022864707,-0.24833482822078848,-0.08397378860236096,3.1054363927830573,,,,
2025-04-30 00:20:41.552267,3.080959252758789,-0.17707276058349597,-9.840083969465649,0.0,0.0,-0.26737819559548215,-0.09880153216943885,3.106404648038203,-0.6861547738826975,-0.46931565282732957,-0.25688696226496743,-0.09022363460212156,3.105983266837283,,,,
2025-04-30 00:20:41.567604,0.6987286009033205,-0.05018007259521473,-17.946954198473282,0.0,0.0,-0.27785142195951273,-0.1058372478402318,3.1016007391284366,-0.6828948672629872,-0.4587558744655279,-0.2674101842309428,-0.09742130045652095,3.1033493454191414,,,,
2025-04-30 00:20:41.581979,-0.7593402101318358,-4.151447516442871,-3.0843587786259543,0.0,0.0,-0.28728393145020725,-0.11146630602628142,3.100826889728991,-0.6561649962991016,-0.3915809411546865,-0.27722694122489333,-0.1040160124027758,3.098846548979048,,,,
2025-04-30 00:20:41.597295,4.2158108396728515,1.8220856256469726,-13.427870229007633,0.0,0.0,-0.29811955088474323,-0.11771930541893,3.0972374213592695,-0.7074701422283929,-0.40826557230049004,-0.28727677055587514,-0.1100134698259328,3.0980220542462322,,,,
2025-04-30 00:20:41.610688,2.9827969846923827,-0.9887071233764646,-3.0996259541984736,0.0,0.0,-0.307921471392132,-0.12288074520471177,3.0965128560053157,-0.73184695228964,-0.3853718231854106,-0.2967522026442078,-0.1154815347991804,3.094883169203619,,,,
2025-04-30 00:20:41.628643,-7.870119140795897,0.22275891666259773,1.5644961832061068,0.0,0.0,-0.31831775248092,-0.12984249543715218,3.0970031039524826,-0.5790473853771688,-0.38775243140463045,-0.30989186413325853,-0.12240054332716915,3.093911875519848,,,,
2025-04-30 00:20:41.642555,-0.6108997072021483,-2.3198832464233394,-1.0309236641221373,0.0,0.0,-0.3260771079028125,-0.1346947758140324,3.09675277726054,-0.5577278885998241,-0.3487727964949571,-0.3179478257609598,-0.12779512551047165,3.094291763156274,,,,
2025-04-30 00:20:41.660214,3.1240548826416017,0.5196399225219728,-2.0156564885496184,0.0,0.0,-0.3366902779256293,-0.14084597802133755,3.0961315214478033,-0.6009917979097927,-0.34832402250480954,-0.3277969799902909,-0.1339542528087278,3.0939740168922345,,,,
2025-04-30 00:20:41.672081,2.829568078442383,0.876375969885254,8.373656488549619,0.0,0.0,-0.3440745897353878,-0.14500039006777954,3.0978657605359023,-0.6222910642928099,-0.35010080295834434,-0.33492854765295155,-0.1380875809900153,3.09355656123527,,,,
2025-04-30 00:20:41.684666,-4.381767321948242,1.4078887384399414,-0.5958091603053435,0.0,0.0,-0.35107981500565383,-0.1495665753553043,3.0977348870652137,-0.5566151585045159,-0.3628160194026214,-0.34276033056874033,-0.14249374017298394,3.0953958909401877,,,,
2025-04-30 00:20:41.701736,3.722605297680664,-2.7316859319702145,57.610297709923664,0.0,0.0,-0.36143274315015383,-0.1548277213792297,3.114898166604446,-0.6065134147383049,-0.30821769415091066,-0.35226151652787224,-0.1486868565777869,3.0952183872719745,,,,
2025-04-30 00:20:41.714318,22.30340583173828,-12.622132990075682,-73.08435877862595,0.0,0.0,-0.3722844026395513,-0.15652389146526546,3.0988492597052053,-0.862486902202261,-0.134811130458201,-0.3598925623277403,-0.15256479774650808,3.107869278924246,,,,
2025-04-30 00:20:41.726765,-9.998564416674803,20.18501380863037,29.99197709923664,0.0,0.0,-0.38139936152048065,-0.16128635162149274,3.1053650625311353,-0.7322666301617996,-0.38260080988152756,-0.3706284504934712,-0.1542428721803336,3.0919915903715576,,,,
2025-04-30 00:20:41.738739,3.5933184080322267,9.49789614810791,63.908007633587786,0.0,0.0,-0.3905275191512315,-0.16709869131973498,3.1187210312278713,-0.7623253900262592,-0.4854094666924752,-0.37939668163900003,-0.15882417112163114,3.0982595358469864,,,,
2025-04-30 00:20:41.751158,-16.331227807788085,-6.46903472347412,0.28205343511450376,0.0,0.0,-0.39731524732787077,-0.1720850450997533,3.118782164578697,-0.546581593145905,-0.40152597778612786,-0.38886362599741986,-0.16485223272413085,3.1121112042361085,,,,
2025-04-30 00:20:41.763286,4.965195959301758,12.593598894689942,-1.420236641221374,0.0,0.0,-0.40456916133867515,-0.1786557375223699,3.1184815352298565,-0.5981073060444048,-0.5417736049647219,-0.3954926302521756,-0.1697219858378781,3.1121709080474846,,,,
2025-04-30 00:20:41.779004,-1.5374557496826173,-0.378185700036621,7.701900763358778,0.0,0.0,-0.41340835806145476,-0.18691753424044197,3.1205944660729474,-0.5623449546648059,-0.5256110760495771,-0.40489395606758993,-0.17823783262154333,3.1117812819154524,,,,
2025-04-30 00:20:41.796909,-2.030661291674804,-1.2975591375366209,17.266786259541984,0.0,0.0,-0.4226314971004013,-0.19574271748983932,3.1259903566008895,-0.5151153672300525,-0.49288940470153086,-0.41496274072181916,-0.18764889729407236,3.1141881347455898,,,,
2025-04-30 00:20:41.809819,1.0841950681884767,-2.9806829046264642,22.885106870229006,0.0,0.0,-0.42932043968285666,-0.20148984112284654,3.131146735321728,-0.5181350514222895,-0.4451804096702807,-0.42161270023581854,-0.19401192739307657,3.1180786164353123,,,,
2025-04-30 00:20:41.824821,7.014632580395508,1.6113958795532226,20.266786259541984,0.0,0.0,-0.43848682407335954,-0.20838220798395093,3.1364531950015877,-0.6110200361498966,-0.45943679309299795,-0.4293856450928421,-0.20069042321437933,3.124070631909348,,,,
2025-04-30 00:20:41.838405,-0.7617344117919922,-2.2959412298217767,24.35075572519084,0.0,0.0,-0.4464837887971339,-0.2140833436652109,3.142226667586781,-0.5886781060898182,-0.4196759484792617,-0.43768611630803034,-0.20693169461408065,3.1288758106964027,,,,
2025-04-30 00:20:41.851950,-5.638723193530273,-1.2161562810913085,17.595030534351142,0.0,0.0,-0.4532851049009159,-0.21943056837565883,3.1463861560274764,-0.5021349270274648,-0.39478069373766805,-0.44565964228160515,-0.21261612051860623,3.1346323614885927,,,,
2025-04-30 00:20:41.864402,3.8901994138916014,-1.692602411462402,8.060679389312977,0.0,0.0,-0.4600050824036447,-0.22399453867357597,3.148137887606561,-0.5396960942001999,-0.36654243899349137,-0.45191193028076054,-0.21753169691231772,3.1384560802017876,,,,
2025-04-30 00:20:41.879848,-2.4951364137451173,0.4861210992797852,27.14464885496183,0.0,0.0,-0.4675897969546693,-0.22964863967290713,3.1554558396835373,-0.4910336731168404,-0.36604594190036105,-0.4602483052442702,-0.22319346701650458,3.14062916653619,,,,
2025-04-30 00:20:41.895864,8.137513159008789,3.900252666662597,-9.389702290076336,0.0,0.0,-0.47733121045495486,-0.2363972480866171,3.152831156064164,-0.6082389223654896,-0.4213727616532547,-0.4681125866582125,-0.22905597391804455,3.148216852812308,,,,
2025-04-30 00:20:41.912315,1.855128002758789,-4.223273566247558,9.54159541984733,0.0,0.0,-0.4876447790051367,-0.24207745730081517,3.15557075854932,-0.6269310409319127,-0.345282959825331,-0.478118653372313,-0.23598792748032202,3.145520862194716,,,,
2025-04-30 00:20:41.930591,-3.6012575807373044,1.3647931085571288,1.6255648854961833,0.0,0.0,-0.497688591261783,-0.24869151260740033,3.156089294959421,-0.5495421472423049,-0.36188471690666746,-0.4895768785595571,-0.2422985575954234,3.14856452085134,,,,
