timestamp,imu_accel_x,imu_accel_y,imu_gyro_z,gps_lat,gps_lng,odom_x,odom_y,odom_heading,odom_vx,odom_vy,ekf_x,ekf_y,ekf_heading,map_matched_lat,map_matched_lng,distance_to_path,progress
2025-04-30 00:17:36.005615,-0.01155202301025371,0.009270348828124941,0.33168702290076335,,,0.0,0.0,3.141592653589793,0.0,0.0,0.0,0.0,3.141592653589793,,,,
2025-04-30 00:17:36.019580,-0.004369418029785077,0.004481945507812446,0.07214503816793894,,,0.0,0.0,3.1416102380407733,0.0,0.0,0.0,0.0,3.141592653589793,,,,
2025-04-30 00:17:36.031906,0.024361001892089895,-0.002700659472656297,-0.04999236641221372,,,0.0,0.0,3.1415994825928677,0.0,0.0,0.0,0.0,3.1416081750034675,,,,
2025-04-30 00:17:36.043647,-0.025917232971191417,0.011664550488281189,0.07977862595419849,,,0.0,0.0,3.141615830318405,0.0,0.0,0.0,0.0,3.141597930887637,,,,
2025-04-30 00:17:36.055139,0.014784195251464904,-0.045796289355468756,0.3240534351145038,,,0.0,0.0,3.141680824146951,0.0,0.0,0.0,0.0,3.1416139317003893,,,,
2025-04-30 00:17:36.066487,-0.0019752163696287184,0.006876147167968694,0.1255801526717557,,,0.0,0.0,3.1417056976124993,0.0,0.0,0.0,0.0,3.141678116460342,,,,
2025-04-30 00:17:36.077981,0.009995791931152187,0.006876147167968694,0.04161068702290077,,,0.0,0.0,3.141714044824883,0.0,0.0,0.0,0.0,3.1417033081666204,,,,
2025-04-30 00:17:36.089398,0.012389993591308546,0.011664550488281189,-0.15686259541984737,,,0.0,0.0,3.141682787306885,0.0,0.0,0.0,0.0,3.1417115997978726,,,,
2025-04-30 00:17:36.100971,-0.009157821350097795,0.014058752148437437,-0.3171679389312977,,,0.0,0.0,3.1416187257383985,0.0,0.0,0.0,0.0,3.141679916696695,,,,
2025-04-30 00:17:36.112360,0.04351461517333988,0.038000768750000025,-0.09579389312977105,,,-5.531348817514013e-06,-4.8305262325753726e-06,3.1415996842261493,-0.00048567394064548755,-0.0004241389918021272,0.0,0.0,3.1416168713709767,,,,
2025-04-30 00:17:36.123813,0.021966800231933536,0.009270348828124941,0.14084732824427482,,,-5.531348817514013e-06,-4.8305262325753726e-06,3.1416278389319765,-0.00038853915251639006,-0.0003393111934417018,-5.562497320348723e-06,-4.857728216216704e-06,3.1415977226308853,,,,
2025-04-30 00:17:36.135226,0.012389993591308546,0.026029760449218675,-0.2866335877862596,,,-5.531348817514013e-06,-4.8305262325753726e-06,3.141570741438639,-0.00031083132201311205,-0.0002714489547533615,-9.997025139532098e-06,-8.730400807723592e-06,3.1416257794592846,,,,
2025-04-30 00:17:36.146976,0.026755203552246254,0.03081816376953128,0.3011526717557252,,,-5.531348817514013e-06,-4.8305262325753726e-06,3.1416324993369202,-0.00024866505761048964,-0.00021715916380268918,-1.3649213729450756e-05,-1.1919856647871363e-05,3.1415669990146173,,,,
2025-04-30 00:17:36.158804,0.009995791931152187,0.10025001191406246,0.011076335877862609,,,-9.783701920859267e-06,-2.109287125119093e-05,3.14163478594409,-0.0003595102221437466,-0.0013748809490024252,-1.6590469817019516e-05,-1.4488455222370305e-05,3.1416291692003164,,,,
2025-04-30 00:17:36.170562,-0.04028244293212868,-0.0074890627929687925,-0.14922900763358782,,,-9.783701920859267e-06,-2.109287125119093e-05,3.141604160938954,-0.0002876081777149973,-0.0010999047592019403,-2.081770874287832e-05,-3.0654755672433436e-05,3.1416314423029026,,,,
2025-04-30 00:17:36.183795,0.1751957064819334,0.028423962109375034,-0.12632824427480915,,,-4.3577522250724525e-05,-4.023358625246517e-05,3.1415749848848016,-0.002553809876848315,-0.0014464699919409132,-2.4623543770462822e-05,-4.52094741537896e-05,3.141596977218449,,,,
2025-04-30 00:17:36.195902,0.02914940521240217,0.026029760449218675,0.15611450381679387,,,-4.3577522250724525e-05,-4.023358625246517e-05,3.1416079733389615,-0.0020430479014786522,-0.0011571759935527306,-5.554286181613483e-05,-6.272207997843929e-05,3.1415702828794,,,,
2025-04-30 00:17:36.207641,0.017178396911621263,0.02124135712890618,-0.279,,,-4.3577522250724525e-05,-4.023358625246517e-05,3.141550811732022,-0.0016344383211829218,-0.0009257407948421846,-7.952574586011517e-05,-7.630591110240223e-05,3.141602267667589,,,,
2025-04-30 00:17:36.219137,0.012389993591308546,-0.02903687773437502,-0.03472519083969461,,,-4.3577522250724525e-05,-4.023358625246517e-05,3.141543844323157,-0.0013075506569463376,-0.0007405926358737477,-9.831535838481489e-05,-8.694828934816135e-05,3.1415462879299296,,,,
2025-04-30 00:17:36.230871,0.002813186950683555,0.011664550488281189,0.056877862595419826,,,-4.3577522250724525e-05,-4.023358625246517e-05,3.1415554932171377,-0.0010460405255570701,-0.0005924741086989982,-0.00011365879277430713,-9.563876298870674e-05,3.141539176022975,,,,
2025-04-30 00:17:36.243102,0.02914940521240217,0.016452953808593684,0.07214503816793894,,,-4.3577522250724525e-05,-4.023358625246517e-05,3.141570893046105,-0.0008368324204456562,-0.0004739792869591986,-0.00012645203352163993,-0.0001028848148614209,3.1415513169737355,,,,
2025-04-30 00:17:36.255970,0.005207388610839914,-0.1535353640625,-0.02709160305343511,,,-5.497477426980371e-05,-2.129623779216435e-05,3.141564808605186,-0.0008857099928227952,0.0014716704290453119,-0.00013722033248048817,-0.00010898394598681427,3.1415675198621895,,,,
2025-04-30 00:17:36.269783,-0.013946224670410068,-0.00030645781250004944,0.17901526717557253,,,-5.497477426980371e-05,-2.129623779216435e-05,3.141607967571395,-0.0007085679942582362,0.0011773363432362495,-0.00014945508360109534,-8.865503293758672e-05,3.141560988321058,,,,
2025-04-30 00:17:36.283247,-0.006763619689941436,-0.017065869433593783,0.33168702290076335,,,-5.497477426980371e-05,-2.129623779216435e-05,3.141685909549142,-0.000566854395406589,0.0009418690745889996,-0.00015899505571655403,-7.280368772300661e-05,3.1416030544949125,,,,
2025-04-30 00:17:36.297007,0.009995791931152187,-0.02185427275390628,-0.14159541984732826,,,-5.497477426980371e-05,-2.129623779216435e-05,3.1416519041525937,-0.0004534835163252712,0.0007534952596711998,-0.0001667950231429723,-5.984348460686874e-05,3.1416827120767454,,,,
2025-04-30 00:17:36.309577,-0.0019752163696287184,0.11461522187499995,0.056877862595419826,,,-6.0254176376667594e-05,-2.9763072542286522e-05,3.141664383081748,-0.0004199794665609791,-0.0006735415620630899,-0.00017249559191391737,-5.037158233985042e-05,3.1416516462256,,,,
2025-04-30 00:17:36.323032,-0.009157821350097795,0.011664550488281189,0.43855725190839695,,,-6.0254176376667594e-05,-2.9763072542286522e-05,3.1417673706001907,-0.0003359835732487833,-0.0005388332496504719,-0.0001781463795573267,-5.943402619548616e-05,3.141665002999197,,,,
2025-04-30 00:17:36.336290,-0.0019752163696287184,-0.002700659472656297,0.04924427480916033,,,-6.0254176376667594e-05,-2.9763072542286522e-05,3.1417787652943967,-0.00026878685859902665,-0.00043106659972037755,-0.00018260076306354014,-6.657773836163191e-05,3.1417664813090465,,,,
2025-04-30 00:17:36.349297,0.007601590270996272,0.0020877438476561982,0.06451145038167938,,,-6.0254176376667594e-05,-2.9763072542286522e-05,3.1417934097390665,-0.00021502948687922134,-0.00034485327977630206,-0.0001860967255634335,-7.218438399689004e-05,3.141777660023112,,,,
2025-04-30 00:17:36.362174,-0.0450708462524414,-0.01946007109375003,0.17138167938931298,,,-6.0254176376667594e-05,-2.9763072542286522e-05,3.1418319277698052,-0.0001720235895033771,-0.00027588262382104167,-0.00018886570883594632,-7.662513757459873e-05,3.1417921589709437,,,,
2025-04-30 00:17:36.375254,0.005207388610839914,-0.014671667773437536,0.17138167938931298,,,-6.0254176376667594e-05,-2.9763072542286522e-05,3.1418710519793986,-0.00013761887160270168,-0.00022070609905683336,-0.00019111575703077073,-8.023364964846037e-05,3.141831283180537,,,,
2025-04-30 00:17:36.388327,-0.009157821350097795,0.004481945507812446,0.08741221374045799,,,-6.0254176376667594e-05,-2.9763072542286522e-05,3.141890997594306,-0.00011009509728216135,-0.0001765648792454667,-0.0001929149425033388,-8.311909117625174e-05,3.141870388848189,,,,
2025-04-30 00:17:36.402270,-0.0450708462524414,0.018847155468749932,0.07977862595419849,,,-6.0254176376667594e-05,-2.9763072542286522e-05,3.1419104107673617,-8.807607782572909e-05,-0.00014125190339637337,-0.00019444991495618587,-8.558080139289707e-05,3.141891659563399,,,,
2025-04-30 00:17:36.415449,-0.013946224670410068,0.011664550488281189,-0.32480152671755724,,,-6.0254176376667594e-05,-2.9763072542286522e-05,3.141835700551734,-7.046086226058327e-05,-0.0001130015227170987,-0.00019561067520484042,-8.744236923920515e-05,3.141910010087819,,,,
2025-04-30 00:17:36.428341,0.14167688323974614,-0.00988326445312504,0.1255801526717557,0.0,0.0,-8.422286743476945e-05,-2.9587163652187518e-05,3.1418639581338157,-0.001859121160975698,1.3644297020394005e-05,-0.00019651909079101181,-8.889923963794762e-05,3.14183692444804,,,,
2025-04-30 00:17:36.441869,0.019572598571777178,-0.00988326445312504,0.056877862595419826,0.0,0.0,-8.422286743476945e-05,-2.9587163652187518e-05,3.1418773875680337,-0.0014872969287805585,1.0915437616315204e-05,-0.00022166948375130322,-8.87146581061287e-05,3.141866575182481,,,,
2025-04-30 00:17:36.454540,0.04351461517333988,-0.00988326445312504,0.1255801526717557,0.0,0.0,-8.422286743476945e-05,-2.9587163652187518e-05,3.1419051591667344,-0.0011898375430244468,8.732350093052164e-06,-0.00024051465932275508,-8.857635126615738e-05,3.1418791535170456,,,,
2025-04-30 00:17:36.467233,0.005207388610839914,-0.014671667773437536,0.22481679389312978,0.0,0.0,-8.422286743476945e-05,-2.9587163652187518e-05,3.1419549626578895,-0.0009518700344195575,6.985880074441732e-06,-0.00025561689828254255,-8.84655142543662e-05,3.1419069731915217,,,,
2025-04-30 00:17:36.480538,-0.01155202301025371,-0.0074890627929687925,-0.08052671755725194,0.0,0.0,-8.422286743476945e-05,-2.9587163652187518e-05,3.141936262462833,-0.000761496027535646,5.588704059553386e-06,-0.0002682819342481884,-8.837256414647837e-05,3.1419591809310807,,,,
2025-04-30 00:17:36.492522,0.17758990814208975,0.11461522187499995,-0.03472519083969461,0.0,0.0,-0.00011815593532067201,-4.566162629979326e-05,3.1419289992663795,-0.0028315050704488744,-0.0013413146917478037,-0.00027740778631424735,-8.830558850295004e-05,3.1419423377876665,,,,
2025-04-30 00:17:36.504438,-0.11929109771728497,0.004481945507812446,-0.08052671755725194,0.0,0.0,-0.00013462164696294407,-6.1942984555471e-05,3.141912252292908,-0.0013818520189689111,-0.0013663805285770172,-0.0003111471052598683,-0.00010428827017413357,3.1419351160621645,,,,
2025-04-30 00:17:36.516310,-0.006763619689941436,-0.14874696074218752,-0.07289312977099238,0.0,0.0,-0.0001497709786415408,-5.7294076716327224e-05,3.1418971483687095,-0.0012760498535367999,0.00039158414992172125,-0.0003275525258694753,-0.00012051001242755453,3.141918430409597,,,,
2025-04-30 00:17:36.528492,0.007601590270996272,-0.024248474414062526,-0.18739694656488548,0.0,0.0,-0.0001497709786415408,-5.7294076716327224e-05,3.141857304006782,-0.00102083988282944,0.00031326731993737704,-0.0003430976659728909,-0.00011573964200986419,3.1419029318633407,,,,
2025-04-30 00:17:36.541167,-0.04267664459228504,-0.00988326445312504,-0.07289312977099238,0.0,0.0,-0.0001497709786415408,-5.7294076716327224e-05,3.1418411784937352,-0.000816671906263552,0.0002506138559499016,-0.00035603685938635386,-0.00011176896403091207,3.141861475666903,,,,
2025-04-30 00:17:36.553759,-0.12168529937744132,-0.014671667773437536,-0.22556488549618325,0.0,0.0,-0.00014094182529042856,-5.1918152094691584e-05,3.141791607252526,0.0007011938957677735,0.0004269453002901717,-0.00036632006570270505,-0.00010861333449755393,3.1418454563165934,,,,
2025-04-30 00:17:36.565669,-0.018734627990722785,0.023635558789062427,0.24008396946564886,0.0,0.0,-0.00014094182529042856,-5.1918152094691584e-05,3.141841513038005,0.0005609551166142187,0.00034155624023213737,-0.00035796887325952894,-0.00010352843232291537,3.141798568584721,,,,
2025-04-30 00:17:36.577415,-0.009157821350097795,0.018847155468749932,-0.08816030534351149,0.0,0.0,-0.00014094182529042856,-5.1918152094691584e-05,3.1418234389879194,0.000448764093291375,0.0002732449921857099,-0.0003513796664005723,-9.95163738636914e-05,3.141847789032312,,,,
2025-04-30 00:17:36.588970,0.014784195251464904,-0.02185427275390628,-0.12632824427480915,0.0,0.0,-0.00014094182529042856,-5.1918152094691584e-05,3.141797962113852,0.0003590112746331,0.00021859599374856795,-0.00034619421685247887,-9.63590398825874e-05,3.1418300095641505,,,,
2025-04-30 00:17:36.600690,-0.0211288296508787,0.006876147167968694,0.14084732824427482,0.0,0.0,-0.00014094182529042856,-5.1918152094691584e-05,3.1418267714848693,0.00028720901970648,0.00017487679499885437,-0.0003419867966929983,-9.379721172880769e-05,3.141804169973832,,,,
2025-04-30 00:17:36.612380,-0.016340426330566427,0.009270348828124941,-0.09579389312977105,0.0,0.0,-0.00014094182529042856,-5.1918152094691584e-05,3.1418072257227303,0.000229767215765184,0.0001399014359990835,-0.0003386291461573463,-9.175279416489868e-05,3.1418329084276713,,,,
2025-04-30 00:17:36.623983,0.012389993591308546,-0.017065869433593783,-0.03472519083969461,0.0,0.0,-0.00014094182529042856,-5.1918152094691584e-05,3.141800193723219,0.00018381377261214723,0.0001119211487992668,-0.0003359632398341011,-9.012956814625639e-05,3.1418135097550257,,,,
2025-04-30 00:17:36.635732,0.019572598571777178,-0.03382528105468752,0.07977862595419849,0.0,0.0,-0.00014094182529042856,-5.1918152094691584e-05,3.141816552735871,0.0001470510180897178,8.953691903941345e-05,-0.0003338036502843733,-8.88146299895252e-05,3.141806389178186,,,,
2025-04-30 00:17:36.647393,0.012389993591308546,0.018847155468749932,0.04161068702290077,0.0,0.0,-0.00014094182529042856,-5.1918152094691584e-05,3.1418250218458135,0.00011764081447177425,7.162953523153077e-05,-0.00033208881049288366,-8.777049256313555e-05,3.1418226266883695,,,,
2025-04-30 00:17:36.658758,0.002813186950683555,0.014058752148437437,0.31641984732824424,0.0,0.0,-0.00014094182529042856,-5.1918152094691584e-05,3.1418877854840215,9.41126515774194e-05,5.730362818522462e-05,-0.0003307518300679453,-8.695642742016628e-05,3.1418308803997848,,,,
2025-04-30 00:17:36.670205,0.021966800231933536,-0.04340208769531251,0.17138167938931298,0.0,0.0,-0.00014094182529042856,-5.1918152094691584e-05,3.1419220260314997,7.529012126193553e-05,4.58429025481797e-05,-0.0003296745045473854,-8.630046182967565e-05,3.141894098293577,,,,
2025-04-30 00:17:36.681460,-0.01155202301025371,0.011664550488281189,-0.29426717557251914,0.0,0.0,-0.00014094182529042856,-5.1918152094691584e-05,3.141864222218701,6.023209700954843e-05,3.667432203854376e-05,-0.00032882713023586887,-8.578450970563091e-05,3.141927763327719,,,,
2025-04-30 00:17:36.692902,0.007601590270996272,-0.0074890627929687925,-0.11106106870229004,0.0,0.0,-0.00014094182529042856,-5.1918152094691584e-05,3.141842043826403,4.818567760763874e-05,2.9339457630835013e-05,-0.0003281379721930832,-8.536489283603116e-05,3.1418689995058275,,,,
2025-04-30 00:17:36.704516,0.03154360687255853,-0.012277466113281288,-0.17212977099236637,0.0,0.0,-0.00014094182529042856,-5.1918152094691584e-05,3.1418071524316415,3.8548542086110996e-05,2.347156610466801e-05,-0.0003275783396740047,-8.502414190343999e-05,3.1418464869818847,,,,
2025-04-30 00:17:36.716428,0.045908816833496235,0.014058752148437437,-0.2026641221374046,0.0,0.0,-0.00014094182529042856,-5.1918152094691584e-05,3.141765019133422,3.08388336688888e-05,1.877725288373441e-05,-0.00032711916367933095,-8.474455727768198e-05,3.1418107016889714,,,,
2025-04-30 00:17:36.728859,0.002813186950683555,-0.045796289355468756,0.2477175572519084,0.0,0.0,-0.00014094182529042856,-5.1918152094691584e-05,3.1418187670874524,2.467106693511104e-05,1.5021802306987528e-05,-0.0003267357869700692,-8.451112557605432e-05,3.141766729101638,,,,
2025-04-30 00:17:36.742126,0.026755203552246254,-0.014671667773437536,0.18664885496183203,0.0,0.0,-0.00014094182529042856,-5.1918152094691584e-05,3.141861984736149,1.9736853548088832e-05,1.2017441845590023e-05,-0.00032640848669604586,-8.431183788313316e-05,3.141824086915954,,,,
2025-04-30 00:17:36.755200,-0.0450708462524414,0.1170094235351562,0.056877862595419826,0.0,0.0,-0.00013313308821445938,-7.136358713548998e-05,3.1418749637691876,0.0005972540419542251,-0.0014872910385747265,-0.00032615043921668574,-8.415471706501208e-05,3.1418666785596034,,,,
2025-04-30 00:17:36.768177,0.17758990814208975,-0.005094861132812545,-0.03472519083969461,0.0,0.0,-0.00015484389385312964,-8.944458040525635e-05,3.1418670991716864,-0.0016730982588328807,-0.0013933742884111586,-0.00031840022708579525,-0.00010345441240338209,3.141879560317348,,,,
2025-04-30 00:17:36.780851,-0.03309983795166005,-0.0074890627929687925,-0.06525954198473283,0.0,0.0,-0.00015484389385312964,-8.944458040525635e-05,3.141852663457095,-0.0013384786070663047,-0.001114699430728927,-0.000339605230428733,-0.00012111416806192491,3.141871878943424,,,,
2025-04-30 00:17:36.793334,0.005207388610839914,-0.00988326445312504,0.04924427480916033,0.0,0.0,-0.00015484389385312964,-8.944458040525635e-05,3.141863392383296,-0.001070782885653044,-0.0008917595445831416,-0.00035631361945079185,-0.000135029094780185,3.141857660746231,,,,
2025-04-30 00:17:36.806137,-0.11210849273681633,0.018847155468749932,0.15611450381679387,0.0,0.0,-0.00015026936446403455,-0.00010365529176137356,3.141898276434416,0.0003573058514087625,-0.0011099656135832667,-0.0003700226806386988,-0.00014644614890515307,3.141868664463104,,,,
2025-04-30 00:17:36.819786,-0.0211288296508787,0.1170094235351562,-0.45457251908396945,0.0,0.0,-0.00014162791858280164,-0.00013986573625468637,3.1417899844951167,0.0006330978345054794,-0.002652884055547247,-0.000365145647406689,-0.00016159658420446423,3.141905855321903,,,,
2025-04-30 00:17:36.832925,-0.01155202301025371,-0.03143107939453127,-0.1186946564885496,0.0,0.0,-0.00014162791858280164,-0.00013986573625468637,3.1417627665458796,0.0005064782676043835,-0.0021223072444377976,-0.00035682767084464355,-0.00019645158795456009,3.1418016170005236,,,,
2025-04-30 00:17:36.845807,0.02914940521240217,-0.03861368437500001,0.4309236641221374,0.0,0.0,-0.00014162791858280164,-0.00013986573625468637,3.141859654291359,0.00040518261408350683,-0.0016978457955502382,-0.00035030309996108335,-0.00022379164366617829,3.141774930005529,,,,
2025-04-30 00:17:36.858825,0.017178396911621263,-0.024248474414062526,-0.04999236641221372,0.0,0.0,-0.00014162791858280164,-0.00013986573625468637,3.141848295771165,0.0003241460912668055,-0.0013582766364401908,-0.00034502847611131627,-0.00024589401828729266,3.1418728380561456,,,,
2025-04-30 00:17:36.872521,-0.0019752163696287184,-0.012277466113281288,-0.02709160305343511,0.0,0.0,-0.00014162791858280164,-0.00013986573625468637,3.1418418194693434,0.0002593168730134444,-0.0010866213091521527,-0.0003405887538949258,-0.0002644978858682348,3.1418608872811027,,,,
2025-04-30 00:17:36.885097,0.00041898529052719624,0.011664550488281189,-0.02709160305343511,0.0,0.0,-0.00014162791858280164,-0.00013986573625468637,3.1418358734649,0.00020745349841075553,-0.0008692970473217223,-0.00033732780543953934,-0.0002781623113199715,3.141854941276659,,,,
2025-04-30 00:17:36.897562,-0.11689689605712905,-0.012277466113281288,0.2477175572519084,0.0,0.0,-0.00012129235804763824,-0.0001486104401545783,3.141889768823277,0.0016313191717486461,-0.0007015003642752649,-0.0003347417491678894,-0.00028899872091718153,3.141849047016794,,,,
2025-04-30 00:17:36.910601,-0.025917232971191417,0.04997177705078126,0.03397709923664122,0.0,0.0,-9.61270844219193e-05,-0.00016589839102621796,3.1418975008937315,0.0019300542683851577,-0.0013259018704783816,-0.0003134715735047544,-0.00029814532829744905,3.1419054193866693,,,,
2025-04-30 00:17:36.923236,-0.03070563629150369,0.0020877438476561982,-0.11106106870229004,0.0,0.0,-9.61270844219193e-05,-0.00016589839102621796,3.141873008997957,0.0015440434147081263,-0.0010607214963827053,-0.0002890848919463028,-0.0003148984047382298,3.1419129122334692,,,,
2025-04-30 00:17:36.936502,0.021966800231933536,-0.17987158232421874,-0.1339618320610687,0.0,0.0,-7.98496720541228e-05,-0.00014866720651092948,3.14184199189203,0.0012269942813683597,0.0012988897979442247,-0.00026860147832602407,-0.00032897002794478,3.141887197499061,,,,
2025-04-30 00:17:36.949829,-0.0019752163696287184,0.02124135712890618,0.2095496183206107,0.0,0.0,-7.98496720541228e-05,-0.00014866720651092948,3.1418907318406877,0.0009815954250946878,0.0010391118383553798,-0.00025224976124701265,-0.0003116601848466425,3.14185603880324,,,,
2025-04-30 00:17:36.962274,0.04830301849365215,-0.005094861132812545,-0.08816030534351149,0.0,0.0,-7.98496720541228e-05,-0.00014866720651092948,3.141871582548238,0.0007852763400757502,0.0008312894706843038,-0.0002400335986621076,-0.0002987282183391332,3.14190155505807,,,,
2025-04-30 00:17:36.975333,0.021966800231933536,0.018847155468749932,-0.04999236641221372,0.0,0.0,-7.98496720541228e-05,-0.00014866720651092948,3.1418601880392525,0.0006282210720606002,0.0006650315765474431,-0.000229778565585986,-0.0002878722933829874,3.1418814611224652,,,,
2025-04-30 00:17:36.988621,-0.016340426330566427,-0.00988326445312504,-0.16449618320610682,0.0,0.0,-7.98496720541228e-05,-0.00014866720651092948,3.141822039499657,0.0005025768576484801,0.0005320252612379545,-0.0002214310502918916,-0.00027903565688164127,3.1418698673229475,,,,
2025-04-30 00:17:37.001258,-0.009157821350097795,-0.048190491015625,0.11794656488549621,0.0,0.0,-7.98496720541228e-05,-0.00014866720651092948,3.141848054246182,0.0004020614861187841,0.0004256202089903637,-0.00021507979717822658,-0.00027231225319609113,3.1418335854141475,,,,
2025-04-30 00:17:37.013501,0.009995791931152187,0.014058752148437437,-0.04235877862595416,0.0,0.0,-7.98496720541228e-05,-0.00014866720651092948,3.1418390033229264,0.0003216491888950273,0.00034049616719229096,-0.0002101575370724466,-0.00026710157411526006,3.1418587873992303,,,,
2025-04-30 00:17:37.026802,0.00041898529052719624,-0.002700659472656297,-0.011824427480916055,0.0,0.0,-7.98496720541228e-05,-0.00014866720651092948,3.1418362582988246,0.00025731935111602183,0.00027239693375383277,-0.00020587923807474287,-0.0002625725889316657,3.141848953868733,,,,
2025-04-30 00:17:37.041506,-0.018734627990722785,-0.005094861132812545,-0.09579389312977105,0.0,0.0,-7.98496720541228e-05,-0.00014866720651092948,3.1418116736253343,0.00020585548089281747,0.00021791754700306622,-0.0002020954944595732,-0.00025856713751725514,3.1418459192317707,,,,
2025-04-30 00:17:37.055030,0.057879825134277585,0.006876147167968694,-0.1186946564885496,0.0,0.0,-8.749498014014038e-05,-0.0001470135113180277,3.1417836580099565,-0.0005653317281904002,0.00012228236596679867,-0.00019931159167446217,-0.00025562011243249547,3.1418233089058734,,,,
2025-04-30 00:17:37.068428,-0.12168529937744132,-0.00988326445312504,-0.3019007633587786,0.0,0.0,-7.351240237350407e-05,-0.00014366685069805738,3.1417130633872854,0.0010436555834593328,0.0002497937862580334,-0.00020688573297035568,-0.00025398181075642756,3.1417955540754625,,,,
2025-04-30 00:17:37.084177,0.021966800231933536,-0.024248474414062526,0.3011526717557252,0.0,0.0,-7.351240237350407e-05,-0.00014366685069805738,3.1417958454375787,0.0008349244667674663,0.00019983502900642672,-0.00019044847801989427,-0.00025004763533032127,3.141712566386759,,,,
2025-04-30 00:17:37.099402,-0.009157821350097795,-0.01946007109375003,0.011076335877862609,0.0,0.0,-7.351240237350407e-05,-0.00014366685069805738,3.1417987886532774,0.0006679395734139731,0.0001598680232051414,-0.00017773700749358761,-0.0002470052079222785,3.141792588993604,,,,
2025-04-30 00:17:37.112892,-0.01155202301025371,0.014058752148437437,0.026343511450381663,0.0,0.0,-7.351240237350407e-05,-0.00014366685069805738,3.1418049913007167,0.0005343516587311785,0.00012789441856411312,-0.00016872620978257695,-0.0002448485181932993,3.141795196945338,,,,
2025-04-30 00:17:37.127817,-0.018734627990722785,0.023635558789062427,-0.004190839694656501,0.0,0.0,-7.351240237350407e-05,-0.00014366685069805738,3.1418038996444624,0.0004274813269849428,0.0001023155348512905,-0.00016075113704466548,-0.00024293972409833266,3.141802059068715,,,,
2025-04-30 00:17:37.142618,-0.03070563629150369,-0.00030645781250004944,0.14084732824427482,0.0,0.0,-7.351240237350407e-05,-0.00014366685069805738,3.1418402836734196,0.0003419850615879543,8.18524278810324e-05,-0.00015442407698943385,-0.00024142537366306777,3.1418009764806767,,,,
2025-04-30 00:17:37.156384,0.14885948822021478,0.03081816376953128,-0.09579389312977105,0.0,0.0,-9.654278801587576e-05,-0.00014829217742272046,3.1418172679545275,-0.001672984267502765,-0.0003359951918557858,-0.00014971629341651522,-0.00024029858902050897,3.141834816868698,,,,
2025-04-30 00:17:37.169614,0.02914940521240217,-0.014671667773437536,0.003442748091603054,0.0,0.0,-9.654278801587576e-05,-0.00014829217742272046,3.1418180629001715,-0.001338387414002212,-0.00026879615348462867,-0.00017184961923260496,-0.00024474375398615705,3.1418126976383456,,,,
2025-04-30 00:17:37.183671,0.014784195251464904,0.009270348828124941,0.04161068702290077,0.0,0.0,-9.654278801587576e-05,-0.00014829217742272046,3.1418282714744272,-0.0010707099312017695,-0.00021503692278770296,-0.00019066290628922804,-0.00024852213619620827,3.1418135422663016,,,,
2025-04-30 00:17:37.196388,0.1656188998413084,-0.0074890627929687925,0.04924427480916033,0.0,0.0,-0.00013613556793171824,-0.00014979165731149387,3.1418392014219925,-0.003113372113690503,-0.00011791136870585995,-0.00020427913368246687,-0.0002512567625906168,3.1418227779110355,,,,
2025-04-30 00:17:37.210291,0.04830301849365215,-0.026642676074218774,0.018709923664122163,0.0,0.0,-0.0001877089636433039,-0.00014635325663924084,3.1418437416452165,-0.0037093507772598695,0.000247302587510007,-0.00024756626980373405,-0.0002528961572023214,3.141834727719285,,,,
2025-04-30 00:17:37.231320,-0.03309983795166005,0.014058752148437437,-0.07289312977099238,0.0,0.0,-0.0001877089636433039,-0.00014635325663924084,3.141816988635591,-0.0029674806218078957,0.0001978420700080056,-0.0003255684219019893,-0.0002476957501220567,3.141841594577238,,,,
2025-04-30 00:17:37.245024,0.007601590270996272,0.009270348828124941,0.1026793893129771,0.0,0.0,-0.0001877089636433039,-0.00014635325663924084,3.141841548448549,-0.0023739844974463168,0.00015827365600640448,-0.00036623637387259985,-0.00024498441588731115,3.1418241593193437,,,,
2025-04-30 00:17:37.258698,-0.03788824127197277,0.0020877438476561982,-0.08816030534351149,0.0,0.0,-0.0001877089636433039,-0.00014635325663924084,3.1418205087692344,-0.0018991875979570535,0.0001266189248051236,-0.00039869772118970924,-0.00024282021636355718,3.1418486640146823,,,,
2025-04-30 00:17:37.270946,0.04112041351318352,0.011664550488281189,0.07214503816793894,0.0,0.0,-0.0001877089636433039,-0.00014635325663924084,3.141835930813679,-0.001519350078365643,0.00010129513984409888,-0.00042195859262264584,-0.00024126941299161179,3.141829818475449,,,,
2025-04-30 00:17:37.283715,-0.11689689605712905,-0.0074890627929687925,-0.14922900763358782,0.0,0.0,-0.00018804361482095962,-0.00014388518755853455,3.1418026741371086,-2.6208618512324325e-05,0.0001932898651408374,-0.00044135878698074445,-0.0002399760011384198,3.141845896476895,,,,
2025-04-30 00:17:37.296358,-0.016340426330566427,-0.014671667773437536,-0.05762595419847327,0.0,0.0,-0.00018804361482095962,-0.00014388518755853455,3.1417899574613313,-2.096689480985946e-05,0.00015463189211266994,-0.00044169016388068914,-0.00023753208001869435,3.1418129651886755,,,,
2025-04-30 00:17:37.309457,-0.028311434631347776,-0.014671667773437536,-0.04235877862595416,0.0,0.0,-0.00018804361482095962,-0.00014388518755853455,3.1417802734017664,-1.677351584788757e-05,0.00012370551369013597,-0.0004419648082955309,-0.00023550656379846754,3.141799790749019,,,,
2025-04-30 00:17:37.323050,-0.03070563629150369,0.016452953808593684,-0.27136641221374047,0.0,0.0,-0.00018804361482095962,-0.00014388518755853455,3.141715892794745,-1.3418812678310056e-05,9.896441095210878e-05,-0.0004421928139986348,-0.00023382501039710956,3.1417897412964786,,,,
2025-04-30 00:17:37.335687,-0.05943605621337866,-0.06494990263671874,-0.11106106870229004,0.0,0.0,-0.00017891025352978422,-0.00013249540599942603,3.1416913990503854,0.0007227942225853237,0.000901362384009342,-0.00044236237659399044,-0.00023257447782234583,3.141729893326293,,,,
2025-04-30 00:17:37.348581,-0.04267664459228504,-0.01946007109375003,0.14848091603053437,0.0,0.0,-0.00017891025352978422,-0.00013249540599942603,3.1417248146205043,0.000578235378068259,0.0007210899072074736,-0.0004330423845428463,-0.00022095195789666156,3.141704899077686,,,,
2025-04-30 00:17:37.361618,-0.05464765289306639,0.03081816376953128,0.11031297709923665,0.0,0.0,-0.00016242042586699762,-0.00012841430098534335,3.1417499140951675,0.0012648978607022164,0.00031305245313533505,-0.00042550422511582474,-0.00021155147690238993,3.141738682890687,,,,
2025-04-30 00:17:37.374950,-0.009157821350097795,-0.03861368437500001,0.17901526717557253,0.0,0.0,-0.00016242042586699762,-0.00012841430098534335,3.1417915705650032,0.001011918288561773,0.00025044196250826803,-0.00040863984111592184,-0.00020737767208714976,3.141764352484546,,,,
2025-04-30 00:17:37.388453,0.005207388610839914,-0.00988326445312504,0.3011526717557252,0.0,0.0,-0.00016242042586699762,-0.00012841430098534335,3.1418625403927973,0.0008095346308494185,0.00020035357000661443,-0.0003949765567101852,-0.0002039961147029614,3.1418065393348567,,,,
2025-04-30 00:17:37.401369,-0.02352303131103506,0.0020877438476561982,-0.06525954198473283,0.0,0.0,-0.00016242042586699762,-0.00012841430098534335,3.1418478287759877,0.0006476277046795348,0.00016028285600529156,-0.00038452034308659777,-0.00020140828257274185,3.1418744289119718,,,,
2025-04-30 00:17:37.413936,-0.04028244293212868,0.016452953808593684,-0.04999236641221372,0.0,0.0,-0.00016242042586699762,-0.00012841430098534335,3.1418368634281375,0.0005181021637436278,0.00012822628480423326,-0.00037638142327025566,-0.0001993939627659527,3.1418601148550516,,,,
2025-04-30 00:17:37.427268,0.017178396911621263,0.016452953808593684,-0.07289312977099238,0.0,0.0,-0.00016242042586699762,-0.00012841430098534335,3.1418199019593707,0.00041448173099490227,0.00010258102784338661,-0.00036947401863425886,-0.0001976844334566876,3.1418484821543546,,,,
2025-04-30 00:17:37.440531,0.009995791931152187,-0.03143107939453127,0.2477175572519084,0.0,0.0,-0.00016242042586699762,-0.00012841430098534335,3.1418772443116927,0.0003315853847959218,8.206482227470929e-05,-0.00036397675276761795,-0.00019632390260391683,3.141831608648998,,,,
2025-04-30 00:17:37.453233,-0.0211288296508787,0.10982681855468746,0.09504580152671754,0.0,0.0,-0.00015494680307366203,-0.00014475686440882564,3.141898315159522,0.000588382122842907,-0.001286614594514707,-0.00035976495911594475,-0.00019528151619808946,3.141886525529803,,,,
2025-04-30 00:17:37.465792,0.002813186950683555,0.016452953808593684,-0.05762595419847327,0.0,0.0,-0.00015494680307366203,-0.00014475686440882564,3.1418856836100817,0.0004707056982743256,-0.0010292916756117656,-0.0003523753647791976,-0.0002114403346803099,3.141907359470998,,,,
2025-04-30 00:17:37.478942,-0.016340426330566427,-0.0074890627929687925,-0.24083206106870225,0.0,0.0,-0.00015494680307366203,-0.00014475686440882564,3.1418304101496997,0.0003765645586194605,-0.0008234333404894125,-0.00034618559580004867,-0.00022497549626334417,3.1418941337157467,,,,
2025-04-30 00:17:37.492338,0.03154360687255853,0.006876147167968694,0.17901526717557253,0.0,0.0,-0.00015494680307366203,-0.00014475686440882564,3.141872262532548,0.0003012516468955684,-0.00065874667239153,-0.00034114139701010024,-0.00023600564066919962,3.141837829045307,,,,
2025-04-30 00:17:37.505079,0.13688847991943343,-0.017065869433593783,-0.34006870229007635,0.0,0.0,-0.0001729632498286489,-0.0001502716077228714,3.141796640111601,-0.0014140429395626572,-0.0004328313985979672,-0.0003373031230056172,-0.00024439879056310413,3.141877637377562,,,,
2025-04-30 00:17:37.518033,-0.013946224670410068,0.11461522187499995,-0.10342748091603049,0.0,0.0,-0.00018861730191950104,-0.0001746136196379815,3.1417732566338907,-0.0012084564032406237,-0.001879146689678163,-0.0003556202933853318,-0.0002500055838591134,3.1418007526961453,,,,
2025-04-30 00:17:37.530379,0.16322469818115248,0.03321236542968753,0.026343511450381663,0.0,0.0,-0.00022762191517284583,-0.00020231655180407926,3.1417789333229607,-0.003159162023500186,-0.00224378718153891,-0.00037054050776221426,-0.0002732064799612995,3.1417784653996494,,,,
2025-04-30 00:17:37.543469,-0.006763619689941436,-0.014671667773437536,0.18664885496183203,0.0,0.0,-0.00022762191517284583,-0.00020231655180407926,3.1418215746742066,-0.0025273296188001487,-0.001795029745231128,-0.00041189285451967563,-0.00030257688416682427,3.141784483775305,,,,
2025-04-30 00:17:37.556060,-0.013946224670410068,0.014058752148437437,0.13321374045801526,0.0,0.0,-0.00022762191517284583,-0.00020231655180407926,3.1418508492679558,-0.0020218636950401193,-0.0014360237961849025,-0.00044371477407973965,-0.0003251783255204794,3.1418255010861618,,,,
2025-04-30 00:17:37.570683,-0.03788824127197277,-0.18705418730468748,-0.4164045801526718,0.0,0.0,-0.0002486625143612418,-0.00018369640107281557,3.141744575233291,-0.0014388774287624276,0.0012733532143013094,-0.0004732803387140379,-0.0003461771962488311,3.141859499659535,,,,
2025-04-30 00:17:37.583021,-0.04985924957275367,-0.002700659472656297,0.04161068702290077,0.0,0.0,-0.0002486625143612418,-0.00018369640107281557,3.1417535355696176,-0.0011511019430099421,0.0010186825714410476,-0.0004910330977083852,-0.0003304666622754047,3.1417698321881917,,,,
2025-04-30 00:17:37.598572,-0.03070563629150369,0.023635558789062427,0.1942824427480916,0.0,0.0,-0.0002486625143612418,-0.00018369640107281557,3.141806268077065,-0.0009208815544079537,0.0008149460571528381,-0.0005089342623442126,-0.000314624794807671,3.1417811262394313,,,,
2025-04-30 00:17:37.612468,-0.11689689605712905,-0.16550637236328125,-0.12632824427480915,0.0,0.0,-0.0002390882550607263,-0.00014127577697582442,3.141775630118718,0.0006890062982548817,0.00305277685315626,-0.0005217306022460316,-0.0003033005080966842,3.1418282448978325,,,,
2025-04-30 00:17:37.627873,-0.0019752163696287184,0.04039497041015627,0.14848091603053437,0.0,0.0,-0.0002390882550607263,-0.00014127577697582442,3.141815552960706,0.0005512050386039054,0.0024422214825250083,-0.0005111161732581138,-0.0002562712092269094,3.1417942783607877,,,,
2025-04-30 00:17:37.643579,-0.004369418029785077,-0.02903687773437502,0.11031297709923665,0.0,0.0,-0.0002390882550607263,-0.00014127577697582442,3.1418457913116993,0.0004409640308831243,0.0019537771860200065,-0.0005024591754074589,-0.00021791469097266452,3.141834979084971,,,,
2025-04-30 00:17:37.657577,-0.013946224670410068,0.011664550488281189,-0.011824427480916055,0.0,0.0,-0.0002390882550607263,-0.00014127577697582442,3.1418429025144445,0.0003527712247064995,0.0015630217488160052,-0.0004962866520955627,-0.0001905661219685054,3.1418619293813728,,,,
2025-04-30 00:17:37.670898,0.00041898529052719624,0.02124135712890618,-0.17212977099236637,0.0,0.0,-0.0002390882550607263,-0.00014127577697582442,3.14180288051675,0.0002822169797651996,0.0012504173990528042,-0.0004915870773981397,-0.00016974373922351525,3.1418591800765507,,,,
2025-04-30 00:17:37.684018,0.009995791931152187,0.004481945507812446,-0.362969465648855,0.0,0.0,-0.0002390882550607263,-0.00014127577697582442,3.1417197700925636,0.0002257735838121597,0.0010003339192422435,-0.0004878846105458181,-0.00015333923735615427,3.141819766903719,,,,
2025-04-30 00:17:37.696258,-0.0211288296508787,0.006876147167968694,0.22481679389312978,0.0,0.0,-0.0002390882550607263,-0.00014127577697582442,3.1417677970593147,0.00018061886704972776,0.0008002671353937948,-0.0004851211570036455,-0.00014109521719308114,3.141742226778017,,,,
2025-04-30 00:17:37.709367,0.007601590270996272,-0.04340208769531251,-0.279,0.0,0.0,-0.0002390882550607263,-0.00014127577697582442,3.141703959864596,0.00014449509363978223,0.0006402137083150359,-0.0004827533007339053,-0.000130603967940103,3.141793666467794,,,,
2025-04-30 00:17:37.722487,-0.0019752163696287184,-0.13438175078125003,0.11031297709923665,0.0,0.0,-0.00023690030043813066,-0.00011037529366535188,3.1417292200008684,0.00016676564766525634,0.0023552312553571427,-0.00048085753435457194,-0.00012220440506748622,3.1417297793512886,,,,
2025-04-30 00:17:37.735737,-0.0211288296508787,-0.002700659472656297,-0.04235877862595416,0.0,0.0,-0.00023690030043813066,-0.00011037529366535188,3.141719424366893,0.00013341251813220507,0.0018841850042857142,-0.00047864791051630245,-9.099788742231366e-05,3.1417552896606384,,,,
2025-04-30 00:17:37.748005,0.007601590270996272,-0.002700659472656297,-0.16449618320610682,0.0,0.0,-0.00023690030043813066,-0.00011037529366535188,3.141684202063693,0.00010673001450576407,0.0015073480034285714,-0.0004770111650764085,-6.788213144336459e-05,3.14174621970099,,,,
2025-04-30 00:17:37.761669,0.005207388610839914,-0.02185427275390628,-0.2484656488549618,0.0,0.0,-0.00023690030043813066,-0.00011037529366535188,3.1416249506018223,8.538401160461125e-05,0.0012058784027428571,-0.00047555288173040014,-4.728679563068039e-05,3.1417069923898024,,,,
2025-04-30 00:17:37.775018,0.012389993591308546,-0.012277466113281288,0.11794656488549621,0.0,0.0,-0.00023690030043813066,-0.00011037529366535188,3.1416524313618908,6.8307209283689e-05,0.0009647027221942857,-0.0004744130450428912,-3.118888200153523e-05,3.141649101556881,,,,
2025-04-30 00:17:37.788099,-0.03070563629150369,0.004481945507812446,0.07214503816793894,0.0,0.0,-0.00023690030043813066,-0.00011037529366535188,3.141668902337119,5.464576742695121e-05,0.0007717621777554286,-0.0004735195296855519,-1.8569764538139758e-05,3.1416760291876344,,,,
2025-04-30 00:17:37.800740,-0.03549403961181641,-0.0074890627929687925,0.24008396946564886,0.0,0.0,-0.00023690030043813066,-0.00011037529366535188,3.1417218691652913,4.371661394156097e-05,0.0006174097422043429,-0.00047282878116149596,-8.814323077473742e-06,3.1416919456765555,,,,
2025-04-30 00:17:37.813775,-0.004369418029785077,-0.00030645781250004944,0.04924427480916033,0.0,0.0,-0.00023690030043813066,-0.00011037529366535188,3.141733072674041,3.497329115324877e-05,0.0004939277937634743,-0.0004722589220977178,-7.662034740114647e-07,3.1417465669063924,,,,
2025-04-30 00:17:37.828072,0.014784195251464904,-0.036219482714843765,-0.27136641221374047,0.0,0.0,-0.00023690030043813066,-0.00011037529366535188,3.1416653597772077,2.797863292259902e-05,0.0003951422350107795,-0.0004717589169946055,6.2953686373630895e-06,3.141758854619056,,,,
2025-04-30 00:17:37.846643,0.009995791931152187,0.011664550488281189,-0.29426717557251914,0.0,0.0,-0.00023690030043813066,-0.00011037529366535188,3.1415699760166316,2.2382906338079217e-05,0.00031611378800862366,-0.00047123930191898415,1.3633892392055091e-05,3.141670893911781,,,,
2025-04-30 00:17:37.860796,-0.013946224670410068,0.006876147167968694,-0.07289312977099238,0.0,0.0,-0.00023690030043813066,-0.00011037529366535188,3.1415519711198248,1.7906325070463373e-05,0.00025289103040689894,-0.00047092253257243177,1.810762589883092e-05,3.1415982087335426,,,,
2025-04-30 00:17:37.873918,-0.004369418029785077,0.10503841523437496,0.1942824427480916,0.0,0.0,-0.000235932676421161,-0.00012484735175372205,3.1415964655625,7.374147000875643e-05,-0.0011028982525988584,-0.0004706875685800976,2.1426022381418853e-05,3.141581514794872,,,,
2025-04-30 00:17:37.887109,-0.02352303131103506,0.018847155468749932,0.011076335877862609,0.0,0.0,-0.000235932676421161,-0.00012484735175372205,3.141599015624278,5.899317600700514e-05,-0.0008823186020790868,-0.00046971484597554286,6.877708377107996e-06,3.141626243686888,,,,
2025-04-30 00:17:37.899553,0.007601590270996272,0.03321236542968753,0.06451145038167938,0.0,0.0,-0.000235932676421161,-0.00012484735175372205,3.1416130273456133,4.719454080560412e-05,-0.0007058548816632694,-0.00046898070562356514,-4.1023020737606134e-06,3.141628649438593,,,,
2025-04-30 00:17:37.913308,0.021966800231933536,-0.0074890627929687925,-0.2866335877862596,0.0,0.0,-0.000235932676421161,-0.00012484735175372205,3.1415442147934813,3.7755632644483296e-05,-0.0005646839053306156,-0.0004683315407936678,-1.3811394616361007e-05,3.1416441367985244,,,,
2025-04-30 00:17:37.926579,0.017178396911621263,0.006876147167968694,-0.04235877862595416,0.0,0.0,-0.000235932676421161,-0.00012484735175372205,3.1415344038246342,3.020450611558664e-05,-0.0004517471242644925,-0.0004678305002709435,-2.1305098185441216e-05,3.141577747887145,,,,
2025-04-30 00:17:37.939675,-0.006763619689941436,-0.03382528105468752,-0.279,0.0,0.0,-0.000235932676421161,-0.00012484735175372205,3.1414706316443355,2.4163604892469314e-05,-0.000361397699411594,-0.0004674349320143438,-2.7221328753337242e-05,3.1415680657664717,,,,
2025-04-30 00:17:37.952772,0.014784195251464904,0.014058752148437437,-0.08816030534351149,0.0,0.0,-0.000235932676421161,-0.00012484735175372205,3.1414504797461604,1.9330883913975454e-05,-0.00028911815952927525,-0.00046711846588695936,-3.195448553550603e-05,3.1415042912642295,,,,
2025-04-30 00:17:37.965000,-0.09295487945556635,0.011664550488281189,0.11031297709923665,0.0,0.0,-0.00022207966174364819,-0.00013002298626014583,3.1414740230983798,0.0011328697161954945,-0.00042325224732069695,-0.00046688208299600444,-3.548989481535246e-05,3.141485475806837,,,,
2025-04-30 00:17:37.978070,-0.004369418029785077,-0.002700659472656297,0.3622213740458015,0.0,0.0,-0.00022207966174364819,-0.00013002298626014583,3.141556653238648,0.0009062957729563956,-0.0003386017978565576,-0.0004520750850503254,-4.1021947678084375e-05,3.1415106404642104,,,,
2025-04-30 00:17:37.991159,0.00041898529052719624,-0.017065869433593783,0.003442748091603054,0.0,0.0,-0.00022207966174364819,-0.00013002298626014583,3.141557439674692,0.0007250366183651166,-0.0002708814382852461,-0.00044021328086249966,-4.5453644640234375e-05,3.141593383649854,,,,
2025-04-30 00:17:38.004240,-0.006763619689941436,-0.002700659472656297,-0.03472519083969461,0.0,0.0,-0.00022207966174364819,-0.00013002298626014583,3.1415495114980314,0.0005800292946920932,-0.00021670515062819688,-0.00043072885051604915,-4.899712929809337e-05,3.141594169670446,,,,
2025-04-30 00:17:38.016591,0.033937808532714886,0.004481945507812446,0.1255801526717557,0.0,0.0,-0.00022207966174364819,-0.00013002298626014583,3.14157658234005,0.0004640234357536746,-0.00017336412050255752,-0.0004235648877746195,-5.167366243044217e-05,3.141586684091433,,,,
2025-04-30 00:17:38.029862,-0.0019752163696287184,-0.02185427275390628,0.07977862595419849,0.0,0.0,-0.00022207966174364819,-0.00013002298626014583,3.141595060674443,0.0003712187486029397,-0.00013869129640204603,-0.00041740690006535454,-5.3974352527157465e-05,3.1416157709806396,,,,
2025-04-30 00:17:38.042697,-0.11929109771728497,0.04997177705078126,-0.21029770992366414,0.0,0.0,-0.00019815118192628928,-0.00013983628364071197,3.141547950281815,0.0018642763743265118,-0.0007645574896721113,-0.00041264220934884014,-5.575449195954104e-05,3.141633642798613,,,,
2025-04-30 00:17:38.056010,-0.006763619689941436,-0.02903687773437502,0.18664885496183203,0.0,0.0,-0.00019815118192628928,-0.00013983628364071197,3.141591317053302,0.0014914210994612096,-0.000611645991737689,-0.0003878243288049179,-6.593254104547568e-05,3.1415847813537767,,,,
2025-04-30 00:17:38.068949,-0.018734627990722785,-0.017065869433593783,0.17138167938931298,0.0,0.0,-0.00019815118192628928,-0.00013983628364071197,3.141630020503455,0.0011931368795689678,-0.0004893167933901513,-0.000368526510981303,-7.384675985689138e-05,3.1416269326191855,,,,
2025-04-30 00:17:38.081840,-0.006763619689941436,-0.012277466113281288,-0.1186946564885496,0.0,0.0,-0.00019815118192628928,-0.00013983628364071197,3.141603314739845,0.0009545095036551743,-0.00039145343471212106,-0.00035314543438831066,-8.015468580088721e-05,3.1416654927258683,,,,
2025-04-30 00:17:38.093922,0.021966800231933536,0.004481945507812446,-0.5996106870229008,0.0,0.0,-0.00019815118192628928,-0.00013983628364071197,3.1414768733807783,0.0007636076029241395,-0.0003131627477696969,-0.0003416129551957606,-8.488426531097314e-05,3.141640463295931,,,,
2025-04-30 00:17:38.109714,-0.016340426330566427,-0.00030645781250004944,-0.3019007633587786,0.0,0.0,-0.00019815118192628928,-0.00013983628364071197,3.1413936633329578,0.0006108860823393116,-0.0002505301982157575,-0.00032955414563229466,-8.98296979170202e-05,3.1414751982817397,,,,
2025-04-30 00:17:38.126272,0.019572598571777178,0.014058752148437437,-0.08816030534351149,0.0,0.0,-0.00019815118192628928,-0.00013983628364071197,3.141368185848498,0.0004887088658714493,-0.00020042415857260602,-0.00031943913548224763,-9.397795987797634e-05,3.1413879518506285,,,,
2025-04-30 00:17:38.142946,-0.016340426330566427,0.018847155468749932,-0.04999236641221372,0.0,0.0,-0.00019815118192628928,-0.00013983628364071197,3.1413536370155675,0.0003909670926971595,-0.00016033932685808483,-0.00031129026693279307,-9.731988845017624e-05,3.1413622953425335,,,,
2025-04-30 00:17:38.158386,0.005207388610839914,0.03321236542968753,0.11031297709923665,0.0,0.0,-0.00019815118192628928,-0.00013983628364071197,3.141383362626511,0.0003127736741577276,-0.00012827146148646786,-0.00030525401967417996,-9.979541091811109e-05,3.141348824093065,,,,
2025-04-30 00:17:38.172210,-0.013946224670410068,-0.012277466113281288,0.22481679389312978,0.0,0.0,-0.00019815118192628928,-0.00013983628364071197,3.1414376060254185,0.00025021893932618207,-0.00010261716918917429,-0.00030093016619367696,-0.00010156866439505742,3.1413754402133196,,,,
2025-04-30 00:17:38.184917,-0.01155202301025371,0.006876147167968694,0.06451145038167938,0.0,0.0,-0.00019815118192628928,-0.00013983628364071197,3.141451913303984,0.00020017515146094567,-8.209373535133943e-05,-0.0002977506353801576,-0.00010287262025192316,3.141425299834788,,,,
2025-04-30 00:17:38.197720,-0.03788824127197277,0.004481945507812446,-0.10342748091603049,0.0,0.0,-0.00019815118192628928,-0.00013983628364071197,3.1414288013968847,0.00016014012116875656,-6.567498828107154e-05,-0.0002951877296373683,-0.00010392369229679694,3.141439715564871,,,,
2025-04-30 00:17:38.210695,0.002813186950683555,0.006876147167968694,0.03397709923664122,0.0,0.0,-0.00019815118192628928,-0.00013983628364071197,3.141436495717507,0.00012811209693500524,-5.2539990624857236e-05,-0.00029310991516943156,-0.00010477582379161568,3.1414162937832235,,,,
2025-04-30 00:17:38.224110,-0.03549403961181641,0.026029760449218675,0.018709923664122163,0.0,0.0,-0.00019815118192628928,-0.00013983628364071197,3.14144087633689,0.0001024896775480042,-4.203199249988579e-05,-0.0002913913093539864,-0.00010548064039825607,3.1414242489594266,,,,
2025-04-30 00:17:38.237964,-0.01155202301025371,-0.024248474414062526,-0.03472519083969461,0.0,0.0,-0.00019815118192628928,-0.00013983628364071197,3.1414324795529263,8.199174203840336e-05,-3.362559399990863e-05,-0.0002899713657441969,-0.00010606297279098878,3.141428773144411,,,,
2025-04-30 00:17:38.250648,-0.016340426330566427,0.11461522187499995,0.04161068702290077,0.0,0.0,-0.00019455880551535283,-0.00015832315244222755,3.1414416906103684,0.0002832400088331383,-0.001457592491337331,-0.00028893145192268637,-0.00010648945134953226,3.1414210862795597,,,,
2025-04-30 00:17:38.263507,-0.006763619689941436,-0.002700659472656297,0.2095496183206107,0.0,0.0,-0.00019455880551535283,-0.00015832315244222755,3.141488720614856,0.00022659200706651064,-0.001166073993069865,-0.00028528923860757726,-0.00012523278779349984,3.141430425121659,,,,
2025-04-30 00:17:38.276495,0.002813186950683555,0.0020877438476561982,-0.1186946564885496,0.0,0.0,-0.00019455880551535283,-0.00015832315244222755,3.141461814817322,0.00018127360565320852,-0.000932859194455892,-0.0002823462951335353,-0.0001403775843491336,3.1414779259929757,,,,
2025-04-30 00:17:38.290748,0.019572598571777178,-0.026642676074218774,-0.14922900763358782,0.0,0.0,-0.00019455880551535283,-0.00015832315244222755,3.1414246907387486,0.00014501888452256683,-0.0007462873555647136,-0.0002797624907072535,-0.00015367420139962662,3.141448398022351,,,,
2025-04-30 00:17:38.303681,-0.03549403961181641,-0.024248474414062526,0.04161068702290077,0.0,0.0,-0.00019455880551535283,-0.00015832315244222755,3.1414340832573298,0.00011601510761805347,-0.0005970298844517709,-0.0002778869591790365,-0.00016332594757792173,3.141414713497358,,,,
2025-04-30 00:17:38.316270,0.017178396911621263,0.023635558789062427,0.14084732824427482,0.0,0.0,-0.00019455880551535283,-0.00015832315244222755,3.1414650295211706,9.281208609444278e-05,-0.0004776239075614168,-0.00027642647522333353,-0.00017084180120439658,3.1414238559874232,,,,
2025-04-30 00:17:38.329401,-0.03070563629150369,0.023635558789062427,0.07214503816793894,0.0,0.0,-0.00019455880551535283,-0.00015832315244222755,3.1414815635403213,7.424966887555423e-05,-0.0003820991260491335,-0.0002752077687009519,-0.0001771134345216156,3.1414561350253396,,,,
2025-04-30 00:17:38.342423,-0.0019752163696287184,-0.17029477568359375,-0.05762595419847327,0.0,0.0,-0.00019327951263722743,-0.0001348998270568917,3.1414684665536416,9.824129839783308e-05,0.0017987576871547053,-0.00027424089352579885,-0.000182089108689857,3.141472531848907,,,,
2025-04-30 00:17:38.355301,-0.02352303131103506,-0.02185427275390628,-0.08052671755725194,0.0,0.0,-0.00019327951263722743,-0.0001348998270568917,3.1414503668343237,7.859303871826647e-05,0.0014390061497237643,-0.00027297572444578966,-0.00015892438422742856,3.141459579457104,,,,
2025-04-30 00:17:38.367686,0.014784195251464904,0.0020877438476561982,0.14084732824427482,0.0,0.0,-0.00019327951263722743,-0.0001348998270568917,3.141480811989178,6.287443097461317e-05,0.0011512049197790115,-0.00027200235818782193,-0.00014110244918086288,3.141442173032598,,,,
2025-04-30 00:17:38.381089,-0.12168529937744132,-0.17987158232421874,-0.1339618320610687,0.0,0.0,-0.0001710269213856293,-8.811628448837996e-05,3.1414494749123874,0.0016602770118283598,0.0034905436126597246,-0.00027115965603469503,-0.0001256729200455649,3.141475120801922,,,,
2025-04-30 00:17:38.394340,-0.0019752163696287184,-0.026642676074218774,0.18664885496183203,0.0,0.0,-0.0001710269213856293,-8.811628448837996e-05,3.1414926436301682,0.0013282216094626879,0.00279243489012778,-0.0002491584237457546,-7.941783111180134e-05,3.1414441376998674,,,,
2025-04-30 00:17:38.407362,-0.11929109771728497,-0.014671667773437536,0.28588549618320613,0.0,0.0,-0.00013425504557929138,-5.004465229453982e-05,3.141557616114895,0.0028239421741252813,0.0029237585908369803,-0.00023186302707865224,-4.305622643097257e-05,3.1414865569202903,,,,
2025-04-30 00:17:38.420781,-0.0211288296508787,-0.0074890627929687925,0.018709923664122163,0.0,0.0,-0.00013425504557929138,-5.004465229453982e-05,3.1415619982913885,0.002259153739300225,0.0023390068726695844,-0.00019396677320367904,-3.820473361130648e-06,3.1415535160764962,,,,
2025-04-30 00:17:38.436562,-0.0450708462524414,0.02124135712890618,0.22481679389312978,0.0,0.0,-0.00013425504557929138,-5.004465229453982e-05,3.141623916575084,0.00180732299144018,0.0018712054981356676,-0.00015831685165696618,3.308954743883564e-05,3.1415586691006157,,,,
2025-04-30 00:17:38.449243,-0.016340426330566427,0.018847155468749932,-0.04235877862595416,0.0,0.0,-0.00013425504557929138,-5.004465229453982e-05,3.1416145413281065,0.001445858393152144,0.0014969643985085343,-0.00013539774455559447,5.681876431017782e-05,3.1416084276875207,,,,
2025-04-30 00:17:38.462647,0.00041898529052719624,0.011664550488281189,-0.12632824427480915,0.0,0.0,-0.00013425504557929138,-5.004465229453982e-05,3.1415849867874313,0.0011566867145217153,0.0011975715188068275,-0.00011601692461984355,7.688462801794597e-05,3.141598517835191,,,,
2025-04-30 00:17:38.476066,0.012389993591308546,0.016452953808593684,-0.04999236641221372,0.0,0.0,-0.00013425504557929138,-5.004465229453982e-05,3.141573278780709,0.0009253493716173723,0.000958057215045462,-0.00010049599791066924,9.29541648588538e-05,3.141568932279648,,,,
2025-04-30 00:17:38.489361,0.17280150482177747,0.026029760449218675,-0.004190839694656501,0.0,0.0,-0.0001521322945736523,-4.207029886794463e-05,3.141572306319178,-0.001344642008572627,0.0005997931008281673,-8.819331733270657e-05,0.00010569170189474704,3.141557331823244,,,,
2025-04-30 00:17:38.502124,-0.018734627990722785,0.011664550488281189,-0.21029770992366414,0.0,0.0,-0.0001521322945736523,-4.207029886794463e-05,3.141525461078384,-0.0010757136068581016,0.0004798344806625338,-0.00010535501472109565,0.00011334687526165927,3.1415563982852865,,,,
2025-04-30 00:17:38.515646,0.026755203552246254,0.014058752148437437,0.011076335877862609,0.0,0.0,-0.0001521322945736523,-4.207029886794463e-05,3.141528075206276,-0.0008605708854864813,0.00038386758453002706,-0.00011990122993109734,0.00011983538258963,3.1415067658874287,,,,
2025-04-30 00:17:38.529262,-0.004369418029785077,-0.03143107939453127,-0.03472519083969461,0.0,0.0,-0.0001521322945736523,-4.207029886794463e-05,3.1415198229204018,-0.000688456708389185,0.00030709406762402167,-0.0001316188363015781,0.00012506215626948482,3.141509398128977,,,,
2025-04-30 00:17:38.542684,-0.0019752163696287184,0.038000768750000025,-0.1186946564885496,0.0,0.0,-0.0001521322945736523,-4.207029886794463e-05,3.141492018204988,-0.0005507653667113481,0.00024567525409921736,-0.00014085914658876024,0.00012918390341439714,3.141501263609045,,,,
2025-04-30 00:17:38.556214,-0.10971429107665998,0.0020877438476561982,-0.04235877862595416,0.0,0.0,-0.00013975353767429197,-3.918959593508848e-05,3.1414820158146397,0.0009149429851448465,0.0002129195170509503,-0.0001483107481571656,0.00013250777637266825,3.141473235645894,,,,
2025-04-30 00:17:38.568671,-0.009157821350097795,-0.04100788603515626,0.22481679389312978,0.0,0.0,-0.00013975353767429197,-3.918959593508848e-05,3.1415308968976525,0.0007319543881158773,0.00017033561364076025,-0.00013691274602932666,0.00013516024450216702,3.141464025733509,,,,
2025-04-30 00:17:38.581799,0.00041898529052719624,-0.0074890627929687925,0.2782519083969466,0.0,0.0,-0.00013975353767429197,-3.918959593508848e-05,3.141594650920936,0.0005855635104927018,0.00013626849091260822,-0.00012730379242976964,0.0001373963770186197,3.1415155365216827,,,,
2025-04-30 00:17:38.594247,0.009995791931152187,-0.024248474414062526,-0.14922900763358782,0.0,0.0,-0.00013975353767429197,-3.918959593508848e-05,3.141562229449198,0.0004684508083941615,0.00010901479273008658,-0.00012001465543675853,0.0001390926570638997,3.1415759894894215,,,,
2025-04-30 00:17:38.607488,-0.0019752163696287184,0.018847155468749932,-0.04235877862595416,0.0,0.0,-0.00013975353767429197,-3.918959593508848e-05,3.1415524401606865,0.0003747606467153292,8.721183418406928e-05,-0.00011381176194201066,0.0001405361536627737,3.141541502050043,,,,
2025-04-30 00:17:38.622842,-0.01155202301025371,0.0020877438476561982,-0.19503053435114504,0.0,0.0,-0.00013975353767429197,-3.918959593508848e-05,3.1415001773871767,0.0002998085173722634,6.976946734725542e-05,-0.00010805780702429994,0.00014187517622713376,3.1415301510723057,,,,
2025-04-30 00:17:38.635242,0.04112041351318352,-0.017065869433593783,-0.04235877862595416,0.0,0.0,-0.00013975353767429197,-3.918959593508848e-05,3.1414910099541493,0.00023984681389781074,5.581557387780434e-05,-0.00010434013634794186,0.00014274032810852595,3.1414879418911164,,,,
2025-04-30 00:17:38.652415,0.014784195251464904,0.006876147167968694,0.26298473282442747,0.0,0.0,-0.00013975353767429197,-3.918959593508848e-05,3.1415698312056595,0.0001918774511182486,4.465245910224348e-05,-0.00010022134894850261,0.00014369882523694024,3.141475246203774,,,,
2025-04-30 00:17:38.667497,-0.0019752163696287184,-0.01946007109375003,0.2095496183206107,0.0,0.0,-0.00013975353767429197,-3.918959593508848e-05,3.1416249915107284,0.0001535019608945989,3.572196728179478e-05,-9.732743003363872e-05,0.00014437227902339654,3.141544472376588,,,,
2025-04-30 00:17:38.681533,-0.02352303131103506,0.014058752148437437,0.011076335877862609,0.0,0.0,-0.00013975353767429197,-3.918959593508848e-05,3.141627704964142,0.00012280156871567912,2.8577573825435825e-05,-9.517284909678082e-05,0.0001448736789357095,3.141595807324659,,,,
2025-04-30 00:17:38.694694,-0.01155202301025371,0.018847155468749932,-0.08052671755725194,0.0,0.0,-0.00013975353767429197,-3.918959593508848e-05,3.1416092085019254,9.824125497254329e-05,2.2862059060348662e-05,-9.355672308599648e-05,0.00014524977315720375,3.1415983514868238,,,,
2025-04-30 00:17:38.708867,-0.10732008941650406,0.026029760449218675,0.056877862595419826,0.0,0.0,-0.00011726064058499092,-4.399588737941309e-05,3.141623278627679,0.001586967572218473,-0.00033910387952658567,-9.216429990312568e-05,0.00014557380872711465,3.1415784312403363,,,,
2025-04-30 00:17:38.722204,-0.025917232971191417,-0.02185427275390628,-0.3019007633587786,0.0,0.0,-0.00011726064058499092,-4.399588737941309e-05,3.1415530043528883,0.0012695740577747785,-0.00027128310362126856,-7.099907701457751e-05,0.0001410512152487121,3.141591670857557,,,,
2025-04-30 00:17:38.734735,-0.018734627990722785,-0.04100788603515626,0.30878625954198474,0.0,0.0,-0.00011726064058499092,-4.399588737941309e-05,3.1416205383606424,0.0010156592462198229,-0.00021702648289701485,-5.508999104880474e-05,0.00013765175525648688,3.1415256427625122,,,,
2025-04-30 00:17:38.748733,0.014784195251464904,0.011664550488281189,-0.2026641221374046,0.0,0.0,-0.00011726064058499092,-4.399588737941309e-05,3.1415710242929022,0.0008125273969758584,-0.0001736211863176119,-4.087251865688836e-05,0.00013461375994419373,3.141601084155942,,,,
2025-04-30 00:17:38.762075,0.1751957064819334,0.011664550488281189,-0.02709160305343511,0.0,0.0,-0.0001371999876805593,-4.83000924747019e-05,3.1415647156254773,-0.001494463702941886,-0.00032260225242562214,-3.003166266214739e-05,0.00013229728140388768,3.141553890915181,,,,
2025-04-30 00:17:38.774948,0.00041898529052719624,0.009270348828124941,0.04924427480916033,0.0,0.0,-0.0001371999876805593,-4.83000924747019e-05,3.141575779382371,-0.001195570962353509,-0.00025808180194049774,-4.926943947785705e-05,0.00012814452070438565,3.1415478042195963,,,,
2025-04-30 00:17:38.787786,-0.028311434631347776,0.026029760449218675,-0.004190839694656501,0.0,0.0,-0.0001371999876805593,-4.83000924747019e-05,3.141574840351167,-0.0009564567698828072,-0.0002064654415523982,-6.461832921256617e-05,0.00012483123421177806,3.141558838263852,,,,
2025-04-30 00:17:38.800034,0.021966800231933536,0.023635558789062427,0.07977862595419849,0.0,0.0,-0.0001371999876805593,-4.83000924747019e-05,3.1415918945172847,-0.0007651654159062458,-0.00016517235324191857,-7.633304926681582e-05,0.00012230243738078304,3.1415579423938684,,,,
2025-04-30 00:17:38.813481,0.019572598571777178,-0.00988326445312504,0.17901526717557253,0.0,0.0,-0.0001371999876805593,-4.83000924747019e-05,3.1416339070571584,-0.0006121323327249967,-0.00013213788259353485,-8.66218991669891e-05,0.00012008143586289331,3.1415766653930675,,,,
2025-04-30 00:17:38.826514,-0.05225345123291003,0.018847155468749932,-0.011824427480916055,0.0,0.0,-0.0001363197331649972,-5.312503872241538e-05,3.1416312172887895,6.753841575458727e-05,-0.0003701988685210121,-9.460005861865132e-05,0.00011835923129930941,3.141617386992825,,,,
2025-04-30 00:17:38.839669,-0.01155202301025371,0.026029760449218675,0.03397709923664122,0.0,0.0,-0.0001363197331649972,-5.312503872241538e-05,3.141639018072421,5.4030732603669816e-05,-0.00029615909481680967,-9.371162407722476e-05,0.0001134894478091813,3.1416146722289864,,,,
2025-04-30 00:17:38.852515,-0.01155202301025371,-0.00988326445312504,-0.25609923664122136,0.0,0.0,-0.0001363197331649972,-5.312503872241538e-05,3.1415815972439143,4.322458608293586e-05,-0.00023692727585344775,-9.301751989828329e-05,0.00010968484891818071,3.1416222903430193,,,,
2025-04-30 00:17:38.865629,-0.03070563629150369,-0.017065869433593783,-0.29426717557251914,0.0,0.0,-0.0001363197331649972,-5.312503872241538e-05,3.141514247218249,3.457966886634869e-05,-0.0001895418206827582,-9.245069434540642e-05,0.00010657790339718573,3.1415636759558487,,,,
2025-04-30 00:17:38.878550,0.009995791931152187,-0.026642676074218774,-0.15686259541984737,0.0,0.0,-0.0001363197331649972,-5.312503872241538e-05,3.1414788729009944,2.7663735093078953e-05,-0.00015163345654620658,-9.200389540700259e-05,0.0001041288607359763,3.14149731532731,,,,
2025-04-30 00:17:38.891488,-0.009157821350097795,-0.012277466113281288,0.04924427480916033,0.0,0.0,-0.0001363197331649972,-5.312503872241538e-05,3.1414899932143574,2.2130988074463164e-05,-0.00012130676523696527,-9.164596818569693e-05,0.00010216695134174794,3.1414618927076696,,,,
2025-04-30 00:17:38.904294,0.04830301849365215,-0.017065869433593783,0.18664885496183203,0.0,0.0,-0.00014380442779346402,-5.1904323635599226e-05,3.141531709538294,-0.0005844814771454055,9.532591408637606e-05,-9.136256538502548e-05,0.00010061353326150325,3.14147289888352,,,,
2025-04-30 00:17:38.916859,0.00041898529052719624,-0.014671667773437536,-0.32480152671755724,0.0,0.0,-0.00014380442779346402,-5.1904323635599226e-05,3.1414604768881063,-0.00046758518171632446,7.626073126910086e-05,-9.870693331149707e-05,0.00010181136178704846,3.1415138330894883,,,,
2025-04-30 00:17:38.929679,0.002813186950683555,-0.00988326445312504,0.11031297709923665,0.0,0.0,-0.00014380442779346402,-5.1904323635599226e-05,3.141485159101619,-0.0003740681453730596,6.1008585015280694e-05,-0.00010470126639295392,0.00010278900659303762,3.1414411596756944,,,,
2025-04-30 00:17:38.942621,-0.01155202301025371,0.03081816376953128,-0.08816030534351149,0.0,0.0,-0.00014380442779346402,-5.1904323635599226e-05,3.1414652460239076,-0.00029925451629844767,4.880686801222456e-05,-0.00010954230628872567,0.0001035785552292868,3.1414660764551563,,,,
2025-04-30 00:17:38.956269,0.014784195251464904,0.03321236542968753,0.056877862595419826,0.0,0.0,-0.00014380442779346402,-5.1904323635599226e-05,3.141478794744618,-0.00023940361303875814,3.904549440977965e-05,-0.0001136266131929235,0.00010424468461794336,3.1414450760289743,,,,
2025-04-30 00:17:38.968740,0.002813186950683555,0.03321236542968753,0.2935190839694657,0.0,0.0,-0.00014380442779346402,-5.1904323635599226e-05,3.141542681909914,-0.00019152289043100653,3.123639552782372e-05,-0.00011661220622271303,0.00010473161944100157,3.1414574560260777,,,,
2025-04-30 00:17:38.982153,-0.0211288296508787,-0.005094861132812545,0.15611450381679387,0.0,0.0,-0.00014380442779346402,-5.1904323635599226e-05,3.141579228343701,-0.00015321831234480523,2.4989116422258977e-05,-0.00011918109363999789,0.00010515059172808527,3.141526168897113,,,,
2025-04-30 00:17:38.995080,0.04112041351318352,-0.026642676074218774,-0.10342748091603049,0.0,0.0,-0.00014380442779346402,-5.1904323635599226e-05,3.141555892638317,-0.0001225746498758442,1.9991293137807182e-05,-0.00012116179177576671,0.0001054736333773151,3.141561392050911,,,,
2025-04-30 00:17:39.008758,-0.01155202301025371,-0.02185427275390628,-0.15686259541984737,0.0,0.0,-0.00014380442779346402,-5.1904323635599226e-05,3.1415184458876326,-9.805971990067536e-05,1.5993034510245746e-05,-0.00012283834766888444,0.00010574707099557616,3.1415367015051414,,,,
2025-04-30 00:17:39.024035,-0.004369418029785077,0.011664550488281189,0.018709923664122163,0.0,0.0,-0.00014380442779346402,-5.1904323635599226e-05,3.141523434403012,-7.844777592054029e-05,1.2794427608196598e-05,-0.000124336350315549,0.00010599138750034298,3.1414948781666947,,,,
2025-04-30 00:17:39.038160,0.002813186950683555,-0.1583237673828125,0.2553511450381679,0.0,0.0,-0.00014544021319146341,-2.0770431329957644e-05,3.1415863860325355,-0.00011580692443194281,0.0022041524016055652,-0.00012544443367918035,0.0001061721101813045,3.1414994907177083,,,,
2025-04-30 00:17:39.051069,-0.11929109771728497,0.006876147167968694,0.15611450381679387,0.0,0.0,-0.00012742128839952321,5.993293561758559e-06,3.1416215617639285,0.0013957458877619476,0.0020731180905707476,-0.00012693948824464362,0.00013462747351265534,3.141557026456343,,,,
2025-04-30 00:17:39.064907,0.024361001892089895,-0.005094861132812545,0.09504580152671754,0.0,0.0,-0.00012742128839952321,5.993293561758559e-06,3.141644515604222,0.0011165967102095581,0.001658494472456598,-0.00010762641411171474,0.00016331341392671558,3.141594728567646,,,,
2025-04-30 00:17:39.078163,-0.05704185455322275,0.009270348828124941,-0.17212977099236637,0.0,0.0,-0.0001030912660963141,2.5943055764499676e-05,3.1416046898630126,0.001835320849365836,0.0015048985181469348,-9.28241941769957e-05,0.00018529932855224863,3.141616719356763,,,,
2025-04-30 00:17:39.091269,-0.004369418029785077,0.011664550488281189,0.07977862595419849,0.0,0.0,-0.0001030912660963141,2.5943055764499676e-05,3.141622937807479,0.001468256679492669,0.001203918814517548,-6.877159416327679e-05,0.00020502161423909934,3.141577347727275,,,,
2025-04-30 00:17:39.104259,-0.009157821350097795,0.011664550488281189,-0.18739694656488548,0.0,0.0,-0.0001030912660963141,2.5943055764499676e-05,3.141580448383792,0.0011746053435941354,0.0009631350516140385,-4.969754279451655e-05,0.00022066166521428668,3.141595436324242,,,,
2025-04-30 00:17:39.118053,0.00041898529052719624,0.009270348828124941,-0.08052671755725194,0.0,0.0,-0.0001030912660963141,2.5943055764499676e-05,3.141561061930749,0.0009396842748753084,0.0007705080412912309,-3.34953809689458e-05,0.00023394686781551212,3.1415503213336495,,,,
2025-04-30 00:17:39.134085,-0.016340426330566427,0.018847155468749932,-0.09579389312977105,0.0,0.0,-0.0001030912660963141,2.5943055764499676e-05,3.1415342577605094,0.0007517474199002467,0.0006164064330329848,-1.8430380984338016e-05,0.000246299637719779,3.141527789084717,,,,
2025-04-30 00:17:39.151706,0.007601590270996272,-0.002700659472656297,-0.06525954198473283,0.0,0.0,-0.0001030912660963141,2.5943055764499676e-05,3.1415141872319117,0.0006013979359201974,0.0004931251464263879,-5.183630139047036e-06,0.00025716150730744714,3.1414983277367967,,,,
2025-04-30 00:17:39.167866,0.009995791931152187,-0.002700659472656297,0.270618320610687,0.0,0.0,-0.0001030912660963141,2.5943055764499676e-05,3.141590509381155,0.00048111834873615795,0.00039450011714111034,4.53439375834507e-06,0.00026512994496103516,3.141479922669129,,,,
2025-04-30 00:17:39.179771,0.026755203552246254,-0.026642676074218774,0.04161068702290077,0.0,0.0,-0.0001030912660963141,2.5943055764499676e-05,3.1415991556234877,0.0003848946789889264,0.0003156000937128883,1.0262315421662762e-05,0.0002698266391800144,3.1415361541747133,,,,
2025-04-30 00:17:39.192051,0.007601590270996272,-0.014671667773437536,0.1026793893129771,0.0,0.0,-0.0001030912660963141,2.5943055764499676e-05,3.141621162935226,0.00030791574319114114,0.00025248007497031063,1.498890897107707e-05,0.0002737022795787241,3.1415450726087544,,,,
2025-04-30 00:17:39.205574,0.005207388610839914,0.023635558789062427,0.04161068702290077,0.0,0.0,-0.0001030912660963141,2.5943055764499676e-05,3.1416309836536125,0.0002463325945529129,0.00020198405997624852,1.9152738088450332e-05,0.00027711647294481444,3.1415693064159487,,,,
2025-04-30 00:17:39.217908,0.007601590270996272,-0.02185427275390628,0.3240534351145038,0.0,0.0,-0.0001030912660963141,2.5943055764499676e-05,3.1417007442446208,0.00019706607564233034,0.00016158724798099884,2.2191089730725283e-05,0.0002796078143828245,3.1415782641550263,,,,
2025-04-30 00:17:39.231344,0.033937808532714886,0.009270348828124941,-0.19503053435114504,0.0,0.0,-0.0001030912660963141,2.5943055764499676e-05,3.141655009651336,0.00015765286051386428,0.00012926979838479908,2.483883811204144e-05,0.0002817788748907708,3.141654254574203,,,,
2025-04-30 00:17:39.244787,0.012389993591308546,-0.017065869433593783,-0.011824427480916055,0.0,0.0,-0.0001030912660963141,2.5943055764499676e-05,3.1416522353510445,0.00012612228841109142,0.00010341583870783927,2.6958164438224215e-05,0.00028351664790677737,3.1416084956341495,,,,
2025-04-30 00:17:39.257981,-0.006763619689941436,0.014058752148437437,0.04161068702290077,0.0,0.0,-0.0001030912660963141,2.5943055764499676e-05,3.1416618172956614,0.00010089783072887314,8.273267096627143e-05,2.8622202457018606e-05,0.0002848811005306819,3.1416057727517037,,,,
2025-04-30 00:17:39.270327,0.1656188998413084,0.0020877438476561982,-0.011824427480916055,0.0,0.0,-0.00012660995198737052,2.6630540582734403e-05,3.1416592693815018,-0.0019049595100245548,5.568469040150613e-05,2.9867890029648828e-05,0.0002859025205089778,3.1416147389751283,,,,
2025-04-30 00:17:39.284046,0.036332010192871245,-0.002700659472656297,-0.019458015267175555,0.0,0.0,-0.00012660995198737052,2.6630540582734403e-05,3.1416546102930503,-0.001523967608019644,4.4547752321204905e-05,3.7335945360859067e-06,0.00028666646333598404,3.1416119076969755,,,,
2025-04-30 00:17:39.296803,0.033937808532714886,0.006876147167968694,-1.4545725190839696,0.0,0.0,-0.00012660995198737052,2.6630540582734403e-05,3.1413307396678345,-0.0012191740864157152,3.5638201856963924e-05,-1.57081194574432e-05,0.0002872347724359451,3.1416075752353847,,,,
2025-04-30 00:17:39.309744,-0.0019752163696287184,-0.00030645781250004944,-0.12632824427480915,0.0,0.0,-0.00012660995198737052,2.6630540582734403e-05,3.1413022075664467,-0.0009753392691325722,2.8510561485571142e-05,-3.148501876860085e-05,0.0002876959537623798,3.141279050044295,,,,
2025-04-30 00:17:39.322368,-0.018734627990722785,-0.02185427275390628,-0.12632824427480915,0.0,0.0,-0.00012660995198737052,2.6630540582734403e-05,3.1412743730367474,-0.0007802714153060578,2.2808449188456913e-05,-4.379795896095927e-05,0.0002880558786106171,3.1412512155145955,,,,
2025-04-30 00:17:39.335093,0.021966800231933536,-0.0074890627929687925,-0.17976335877862593,0.0,0.0,-0.00012660995198737052,2.6630540582734403e-05,3.141234449962432,-0.0006242171322448463,1.8246759350765533e-05,-5.372663025095151e-05,0.0002883461078695447,3.1412231596754157,,,,
2025-04-30 00:17:39.348792,0.17280150482177747,0.028423962109375034,0.003442748091603054,0.0,0.0,-0.00016677204524435943,2.1659388452555906e-05,3.141235273101499,-0.0029317419401329948,-0.00036288285816102545,-6.227781490149768e-05,0.00028859607122431736,3.141180179405156,,,,
2025-04-30 00:17:39.362468,-0.004369418029785077,0.018847155468749932,0.09504580152671754,0.0,0.0,-0.00016677204524435943,2.1659388452555906e-05,3.1412579599768873,-0.002345393552106396,-0.00029030628652882036,-0.00010237280591071134,0.0002836332248236195,3.141181001168934,,,,
2025-04-30 00:17:39.375348,-0.04267664459228504,-0.026642676074218774,-0.02709160305343511,0.0,0.0,-0.0001894363690232763,2.232398386146937e-05,3.1412518700120375,-0.001759705741900486,5.1600584624264215e-05,-0.00013258056030293936,0.000279894193054684,3.1412023666669175,,,,
2025-04-30 00:17:39.387877,-0.05704185455322275,-0.005094861132812545,0.03397709923664122,0.0,0.0,-0.00020226744880126523,2.3738430572866405e-05,3.141259299942451,-0.0010240994317356092,0.00011289260907308017,-0.00015462815066420369,0.0002805407037326391,3.1411964424199983,,,,
2025-04-30 00:17:39.401035,0.014784195251464904,-0.005094861132812545,0.07977862595419849,0.0,0.0,-0.00020226744880126523,2.3738430572866405e-05,3.1412776209211883,-0.0008192795453884874,9.031408725846414e-05,-0.0001681030917840235,0.00028202612713292794,3.141204245183022,,,,
2025-04-30 00:17:39.413618,0.012389993591308546,-0.04340208769531251,-0.3324351145038168,0.0,0.0,-0.00020226744880126523,2.3738430572866405e-05,3.141204609006088,-0.00065542363631079,7.225126980677132e-05,-0.0001784126865119222,0.00028316261545745133,3.1412217667684708,,,,
2025-04-30 00:17:39.426539,0.021966800231933536,0.0020877438476561982,0.1255801526717557,0.0,0.0,-0.00020226744880126523,2.3738430572866405e-05,3.1412329282505773,-0.000524338909048632,5.780101584541706e-05,-0.0001868811649823885,0.000284096146518776,3.141146800214567,,,,
2025-04-30 00:17:39.439203,0.03154360687255853,0.018847155468749932,-0.09579389312977105,0.0,0.0,-0.00020226744880126523,2.3738430572866405e-05,3.1412117557344454,-0.00041947112723890565,4.624081267633365e-05,-0.00019352118467436078,0.00028482811562655395,3.1411745561363844,,,,
2025-04-30 00:17:39.451837,0.002813186950683555,0.014058752148437437,0.270618320610687,0.0,0.0,-0.00020226744880126523,2.3738430572866405e-05,3.1412714297094912,-0.00033557690179112455,3.699265014106692e-05,-0.00019882089923359256,0.00028541233487850716,3.1411534326500834,,,,
2025-04-30 00:17:39.465354,-0.025917232971191417,-0.012277466113281288,-0.04235877862595416,0.0,0.0,-0.00020226744880126523,2.3738430572866405e-05,3.1412614361322877,-0.00026846152143289963,2.9594120112853537e-05,-0.0002033570996618046,0.00028591238739855533,3.141217278803525,,,,
2025-04-30 00:17:39.478312,0.014784195251464904,0.028423962109375034,-0.16449618320610682,0.0,0.0,-0.00020226744880126523,2.3738430572866405e-05,3.1412242356248345,-0.00021476921714631971,2.3675296090282832e-05,-0.00020683564540033804,0.0002862958483126362,3.1412076994441183,,,,
2025-04-30 00:17:39.491295,0.02914940521240217,0.02124135712890618,-0.04235877862595416,0.0,0.0,-0.00020226744880126523,2.3738430572866405e-05,3.1412146368765095,-0.00017181537371705578,1.8940236872226266e-05,-0.00020962411453803934,0.0002866032379532509,3.1411704236416935,,,,
2025-04-30 00:17:39.503869,-0.009157821350097795,0.009270348828124941,-0.2331984732824427,0.0,0.0,-0.00020226744880126523,2.3738430572866405e-05,3.1411634617898607,-0.00013745229897364463,1.5152189497781013e-05,-0.00021178443180729697,0.00028684138265423835,3.1411611280655434,,,,
2025-04-30 00:17:39.516815,0.012389993591308546,-0.002700659472656297,-0.17212977099236637,0.0,0.0,-0.00020226744880126523,2.3738430572866405e-05,3.1411245693413528,-0.0001099618391789157,1.212175159822481e-05,-0.00021356387420869895,0.00028703754123920024,3.141108437240697,,,,
2025-04-30 00:17:39.529652,-0.11450269439697269,-0.02903687773437502,0.018709923664122163,0.0,0.0,-0.00018515612647087787,2.8571897323484652e-05,3.1411287613946364,0.0013329263742595837,0.00037651416919220554,-0.00021497549941963968,0.0002871931531340593,3.141069870692557,,,,
2025-04-30 00:17:39.543812,-0.018734627990722785,-0.024248474414062526,0.3240534351145038,0.0,0.0,-0.00018515612647087787,2.8571897323484652e-05,3.141208845700895,0.001066341099407667,0.00030121133535376447,-0.0001961016892792024,0.0002925244730642134,3.141074494532623,,,,
2025-04-30 00:17:39.557036,-0.03309983795166005,-0.017065869433593783,0.04161068702290077,0.0,0.0,-0.00018515612647087787,2.8571897323484652e-05,3.1412184494624045,0.0008530728795261336,0.00024096906828301157,-0.0001820005156211542,0.0002965076575723932,3.1411492861818338,,,,
2025-04-30 00:17:39.570762,-0.013946224670410068,-0.005094861132812545,-0.04235877862595416,0.0,0.0,-0.00018515612647087787,2.8571897323484652e-05,3.141208301831433,0.000682458303620907,0.00019277525462640927,-0.00017029124067417873,0.0002998151980439759,3.1411592545971203,,,,
2025-04-30 00:17:39.585370,-0.12647370269775404,-0.03382528105468752,0.1026793893129771,0.0,0.0,-0.00014893307361407408,3.839634495014959e-05,3.141234481418767,0.0024796072511017032,0.0006725212165150683,-0.00016032162827139148,0.00030263133283093207,3.1411484546171846,,,,
2025-04-30 00:17:39.598472,0.024361001892089895,-0.057767297656249994,0.11794656488549621,0.0,0.0,-0.00012118992905649083,5.6751107983318196e-05,3.1412614527305402,0.0021174651925328393,0.0014009072316677803,-0.00012783367869095025,0.00031144274252664536,3.141171934722981,,,,
2025-04-30 00:17:39.613045,0.03154360687255853,0.004481945507812446,0.04161068702290077,0.0,0.0,-0.00012118992905649083,5.6751107983318196e-05,3.1412720363475692,0.0016939721540262715,0.0011207257853342242,-9.697565256113771e-05,0.0003318582998225546,3.141201934258244,,,,
2025-04-30 00:17:39.630046,0.002813186950683555,0.11461522187499995,-0.3019007633587786,0.0,0.0,-9.377661662018622e-05,4.295827156620464e-05,3.141182454517598,0.0016124385202900405,-0.0008112883400971147,-6.8176174421426e-05,0.0003509119292925723,3.141214281234278,,,,
2025-04-30 00:17:39.645159,-0.013946224670410068,-0.00030645781250004944,0.18664885496183203,0.0,0.0,-9.377661662018622e-05,4.295827156620464e-05,3.141231687562189,0.0012899508162320325,-0.0006490306720776918,-4.380720513291821e-05,0.00033865083505848337,3.14113464777632,,,,
2025-04-30 00:17:39.657873,-0.0211288296508787,-0.0074890627929687925,0.1255801526717557,0.0,0.0,-9.377661662018622e-05,4.295827156620464e-05,3.141259553744752,0.001031960652985626,-0.0005192245376621534,-2.7406887648446562e-05,0.0003303991180586629,3.1411760650779943,,,,
2025-04-30 00:17:39.674447,0.024361001892089895,0.009270348828124941,0.30878625954198474,0.0,0.0,-9.377661662018622e-05,4.295827156620464e-05,3.1413488748229503,0.0008255685223885009,-0.0004153796301297227,-1.0303514885695985e-05,0.00032179366319998203,3.141212391029329,,,,
2025-04-30 00:17:39.690203,-0.025917232971191417,0.018847155468749932,-0.15686259541984737,0.0,0.0,-9.377661662018622e-05,4.295827156620464e-05,3.1413057388345424,0.0006604548179108007,-0.0003323037041037782,2.7040534264826456e-06,0.00031524898669176455,3.141297304838618,,,,
2025-04-30 00:17:39.706493,-0.04028244293212868,0.004481945507812446,0.2477175572519084,0.0,0.0,-9.377661662018622e-05,4.295827156620464e-05,3.1413761702804988,0.0005283638543286406,-0.0002658429632830226,1.3463143931937491e-05,0.00030983561770604035,3.1412527054184785,,,,
2025-04-30 00:17:39.718408,0.014784195251464904,-0.012277466113281288,0.09504580152671754,0.0,0.0,-9.377661662018622e-05,4.295827156620464e-05,3.141395934384555,0.0004226910834629125,-0.00021267437062641808,1.9758204692557327e-05,0.00030666829732077993,3.1413042165373235,,,,
2025-04-30 00:17:39.730155,0.014784195251464904,0.004481945507812446,-0.14922900763358782,0.0,0.0,-9.377661662018622e-05,4.295827156620464e-05,3.141365337944045,0.00033815286677033003,-0.00017013949650113448,2.4723709115790508e-05,0.00030416993487745087,3.1413237037888857,,,,
2025-04-30 00:17:39.742811,0.007601590270996272,-0.00030645781250004944,-0.21029770992366414,0.0,0.0,-9.377661662018622e-05,4.295827156620464e-05,3.1413188838678376,0.00027052229341626403,-0.00013611159720090758,2.900352405827035e-05,0.0003020165728007481,3.141290739589249,,,,
2025-04-30 00:17:39.756472,0.026755203552246254,0.03560656708984378,0.14848091603053437,0.0,0.0,-9.377661662018622e-05,4.295827156620464e-05,3.1413542839952338,0.00021641783473301123,-0.00010888927776072608,3.2698910659071065e-05,0.0003001572621829135,3.1412406013902037,,,,
2025-04-30 00:17:39.769438,-0.0450708462524414,-0.06734410429687498,0.4461908396946565,0.0,0.0,-8.359961310903691e-05,5.2668763054557086e-05,3.1414552560686544,0.0007849042262256145,0.0007489243567210823,3.550496646863693e-05,0.00029874541278132946,3.141274202317478,,,,
2025-04-30 00:17:39.783159,-0.02352303131103506,-0.014671667773437536,-0.07289312977099238,0.0,0.0,-8.359961310903691e-05,5.2668763054557086e-05,3.141437799881535,0.0006279233809804917,0.0005991394853768659,4.627462890113684e-05,0.0003090213958119582,3.141381054510725,,,,
2025-04-30 00:17:39.796781,0.04351461517333988,-0.012277466113281288,0.20191603053435114,0.0,0.0,-8.359961310903691e-05,5.2668763054557086e-05,3.141485807846581,0.0005023387047843933,0.00047931158830149276,5.482867890382223e-05,0.0003171833296907289,3.1413637232923124,,,,
2025-04-30 00:17:39.810103,0.00041898529052719624,-0.03143107939453127,0.36985496183206107,0.0,0.0,-8.359961310903691e-05,5.2668763054557086e-05,3.141571799970526,0.0004018709638275147,0.00038344927064119425,6.152053356936941e-05,0.0003235684309339286,3.141410669230899,,,,
2025-04-30 00:17:39.822529,0.02914940521240217,0.0020877438476561982,0.28588549618320613,0.0,0.0,-8.359961310903691e-05,5.2668763054557086e-05,3.1416338007754,0.00032149677106201177,0.0003067594165129554,6.651414178011485e-05,0.00032833313303641754,3.141490880733848,,,,
2025-04-30 00:17:39.834620,0.005207388610839914,-0.04100788603515626,0.11031297709923665,0.0,0.0,-8.359961310903691e-05,5.2668763054557086e-05,3.14165708064258,0.00025719741684960943,0.0002454075332103643,7.040148727162189e-05,0.00033204228330508057,3.141551212496755,,,,
2025-04-30 00:17:39.846001,0.005207388610839914,0.059548583691406254,0.011076335877862609,0.0,0.0,-8.139147695087961e-05,4.784678428781164e-05,3.141659280829632,0.0001940169750440721,-0.00042368118043563553,7.332868947030205e-05,0.00033483530307792725,3.141573124904124,,,,
2025-04-30 00:17:39.857350,-0.2509721890258789,0.07391379365234374,1.4767251908396946,0.0,0.0,-4.755044140403427e-05,3.381587712899189e-05,3.1419517919265036,0.002981798889926381,-0.0012362902823382699,7.55306271567568e-05,0.000330026860115496,3.141575318915019,,,,
2025-04-30 00:17:39.868798,-0.7034763027954103,-0.02903687773437502,3.194282442748092,0.0,0.0,7.625280572485087e-05,2.3765288942067985e-05,3.142590034544154,0.010814262753726211,-0.0008779228655427803,0.00010966669294922083,0.0003158736298091003,3.141870380159052,,,,
2025-04-30 00:17:39.880275,-0.598131429748535,-0.01946007109375003,4.2324503816793895,0.0,0.0,0.00027506898559697925,1.6545771842321937e-05,3.143437771843663,0.01732445877139626,-0.0006290948071951896,0.00023377160365379958,0.00030579855198688326,3.1425101779422953,,,,
2025-04-30 00:17:39.891657,-0.9309254605102537,-0.28761065703125,8.110312977099236,0.0,0.0,0.0005863964911057144,4.645504989260398e-05,3.1450489949647626,0.027351225371063416,0.0026276361393198894,0.00043096863817108786,0.0002986378301400375,3.1433510113272862,,,,
2025-04-30 00:17:39.903120,-1.2302006680297852,-0.35464830351562504,10.850770992366412,0.0,0.0,0.0010518183847017895,0.0001225346175434457,3.147219908466468,0.040601516430898335,0.006636872606410067,0.0007445002552977265,0.00032875885750917913,3.144973641457203,,,,
2025-04-30 00:17:39.914659,-2.209429147033691,-0.3690135134765625,10.675198473282443,0.0,0.0,0.0017988630713709442,0.0002479771638321692,3.1493698212218977,0.06474095040033023,0.010871196612855452,0.0012130004384562714,0.0004053416136482273,3.1471589133302382,,,,
2025-04-30 00:17:39.926525,-3.033034518127441,0.15771085175781246,13.53016030534351,0.0,0.0,0.0029704501375489266,0.0003570624110439841,3.1521719497128333,0.09873402286555309,0.009193021674131087,0.0019812225562198943,0.0005343402402193619,3.1493697724119714,,,,
2025-04-30 00:17:39.938156,-1.4313136074829105,-0.4671757815429688,14.331687022900764,0.0,0.0,0.004284762700876929,0.0005263376602104766,3.155081274354689,0.11300070600231411,0.014553785148409642,0.0031295991573134585,0.0006412643852862933,3.1521163875677236,,,,
2025-04-30 00:17:39.949655,-2.8582577969360345,-0.23972662382812504,16.705732824427482,0.0,0.0,0.005927836534938611,0.0007276255165906316,3.1584338087449537,0.1428981930142918,0.017506012423885164,0.0044289053230977225,0.0008086069041767581,3.1549924944778334,,,,
2025-04-30 00:17:39.961560,-4.76404231842041,-0.22536141386718755,23.774435114503817,0.0,0.0,0.0082559243309463,0.0009775766451109887,3.1633737755056455,0.19555228812324724,0.020995133939949697,0.006130135937277249,0.0010170193665004908,3.1584636921937075,,,,
2025-04-30 00:17:39.974529,-3.04021712310791,0.4258614376953125,28.484358778625953,0.0,0.0,0.011244163818209096,0.001188390997559762,3.1698211499194975,0.23041795816498378,0.016255528665011475,0.008666210268671452,0.0012893006104598137,3.1638449853396167,,,,
2025-04-30 00:17:39.989436,-2.8438925869750973,0.023635558789062427,31.57596183206107,0.0,0.0,0.015229668961095243,0.00144330314287893,3.1780369259050487,0.26734295296231986,0.017099204048758445,0.012101243611066306,0.0015316353807496728,3.1712563545343833,,,,
2025-04-30 00:17:40.004525,-4.663485848693847,-0.5126656130859374,29.491992366412212,0.0,0.0,0.02021740697111518,0.0018564188803530568,3.1858037406656883,0.330553809353727,0.02737853921992605,0.016135190794455804,0.0017896458696979763,3.1795719896190424,,,,
2025-04-30 00:17:40.020554,-3.9859267788696284,-0.20141939726562497,24.820236641221374,0.0,0.0,0.026409222298271043,0.0023884256532354913,3.1927470595609013,0.3863084146838493,0.033191993328988145,0.021433362062304534,0.0022284736361493276,3.187822205393178,,,,
2025-04-30 00:17:40.036683,-2.8821998135375972,-0.2229672122070313,28.270618320610687,0.0,0.0,0.03324564651172684,0.0030132384839883725,3.200705482050482,0.42385244008506157,0.03873785982879976,0.02766422910526973,0.0027638357702958693,3.1948093157295023,,,,
2025-04-30 00:17:40.054253,3.4815881991577147,-1.4559810671875,26.950007633587788,0.0,0.0,0.03946331372352977,0.004048836445830605,3.208969940084475,0.3538745702847397,0.05894039858534127,0.035111425486854995,0.003444469930357562,3.2034787507026685,,,,
2025-04-30 00:17:40.069751,0.4553173007202149,-0.04340208769531251,10.23245038167939,0.0,0.0,0.04473032219803946,0.0049467005418246095,3.2117377133552774,0.3398525408468824,0.057934479474547905,0.04059574629245682,0.004357923683171602,3.2107684523864144,,,,
2025-04-30 00:17:40.083235,-7.4192119595336905,-1.448798462207031,12.39275572519084,0.0,0.0,0.050520966791282276,0.006066251740988307,3.214654278740255,0.4294379790303003,0.08302664697309074,0.04517839937451218,0.005139126084247444,3.213176602054534,,,,
2025-04-30 00:17:40.095969,-2.6355970425415034,-1.8103229128906246,8.461458015267175,0.0,0.0,0.05627614220695147,0.007420591855840192,3.216534830298681,0.45195572489501923,0.10635675268833025,0.05064683524849946,0.00619638211882023,3.215930881051151,,,,
2025-04-30 00:17:40.108463,1.108934353942871,1.5511362179687498,6.514893129770993,0.0,0.0,0.06165883330936592,0.008473286924450738,3.2179554600624707,0.4308272965597644,0.08425706805055991,0.05629350173993014,0.00752518730583733,3.2177759764137464,,,,
2025-04-30 00:17:40.120850,-4.61081341217041,0.9597684079101562,4.423290076335878,0.0,0.0,0.06759117744599133,0.00940577340734493,3.218911751425101,0.47891549882830386,0.0752792182686755,0.061630175522460584,0.00856888274864902,3.2191844610306135,,,,
2025-04-30 00:17:40.133351,-1.3475165493774415,0.2271426999023437,1.835503816793893,0.0,0.0,0.0736665720451772,0.010309325123166905,3.219312213041384,0.48601117409440375,0.07228110422992072,0.06761687045899041,0.009509912462528825,3.2201495137191722,,,,
2025-04-30 00:17:40.146604,-0.3802590786743165,0.5814845456054687,2.301152671755725,0.0,0.0,0.08005226934201538,0.011153479203179197,3.2198445168459595,0.48180528359268904,0.06369200997323035,0.07405831131971674,0.010467903724998425,3.2205741033941577,,,,
2025-04-30 00:17:40.159469,2.2844873690795895,1.2135537838867188,-2.5232748091603057,0.0,0.0,0.08577260757857659,0.011731491848732956,3.219277946348709,0.44464117025503347,0.04492885009815995,0.08025676834683292,0.011287305670626474,3.2210907990821394,,,,
2025-04-30 00:17:40.174393,-1.5055338589477536,-0.7544799807617187,-4.591977099236641,0.0,0.0,0.09259080939114091,0.012577913840085655,3.218081856627067,0.45686004114073975,0.05671530359797102,0.08689261512696236,0.011957826047963076,3.220433552105751,,,,
2025-04-30 00:17:40.186388,2.1504120761108396,-0.08649771757812497,-19.874419847328245,0.0,0.0,0.09765787888328858,0.013234851853666088,3.2139211581839904,0.4224374843806989,0.054768390739663324,0.09237257763559088,0.01263811696727029,3.2194722243228924,,,,
2025-04-30 00:17:40.200327,-9.52610942047119,-3.749626257617187,-4.683580152671755,0.0,0.0,0.10518704936399344,0.014824200436219362,3.212781718413116,0.5401458969281157,0.11402054420931376,0.09826099381246256,0.013401541355343834,3.2146370974201997,,,,
2025-04-30 00:17:40.214269,-7.356962716369628,2.6381037716796873,-4.8820534351145035,0.0,0.0,0.11400013443949643,0.015978784707173527,3.211593769816102,0.6321355425221028,0.08281478599767668,0.10579158088215719,0.014991188968674634,3.2134974432674306,,,,
2025-04-30 00:17:40.226694,0.7426214999389649,-0.42408015166015633,-17.034725190839694,0.0,0.0,0.12158094261747879,0.01704374906485653,3.2078996838023337,0.6101280666259379,0.08571179079109748,0.11364583075603302,0.016020158198726372,3.2124387396422716,,,,
2025-04-30 00:17:40.238666,-3.3610401455688477,-0.9795349368164062,-15.378236641221374,0.0,0.0,0.12920191895401595,0.018216469528634222,3.2046863379617716,0.6365566371053094,0.09795372163904462,0.1209503992531237,0.017046315953284687,3.208879263701423,,,,
2025-04-30 00:17:40.250749,-1.1392210049438476,-0.804758215625,-15.011824427480915,0.0,0.0,0.13689513725654118,0.019501023039764514,3.2015206332210444,0.6367200027458614,0.10631453352436603,0.12864164367775838,0.01822984931310398,3.205636289679557,,,,
2025-04-30 00:17:40.263103,1.2980762850952148,-1.2979637576171874,-9.523274809160306,0.0,0.0,0.14439887947689564,0.020970762499409632,3.199467221459783,0.6073870739294371,0.11896740634439205,0.13650776887571311,0.019543273467297874,3.2023994349783007,,,,
2025-04-30 00:17:40.275032,-2.1639393154907225,0.04039497041015627,-12.93548854961832,0.0,0.0,0.15180082781712145,0.022372508223257714,3.1967741482307224,0.620523295714793,0.11751174641267408,0.1437530210278789,0.02096238311557864,3.200416759461782,,,,
2025-04-30 00:17:40.286837,2.3922264437866207,-0.41450334501953123,-11.279,0.0,0.0,0.1586503885789573,0.02377126590751585,3.1944502555293197,0.580222565367597,0.11848800238547974,0.1510783342297885,0.022349616041918062,3.1977515686266424,,,,
2025-04-30 00:17:40.298742,-1.85269309967041,1.8073157956054686,-9.645412213740459,0.0,0.0,0.16568966207223518,0.02491604711819407,3.1924460852725054,0.59127754575939,0.09615813696224021,0.15798599604425537,0.023760238617467316,3.1954079636229697,,,,
2025-04-30 00:17:40.311014,1.1496357821655272,1.0292002560546873,-15.156862595419847,0.0,0.0,0.17263864120077135,0.025912720982507076,3.189199590598563,0.5662301541503625,0.08121290701681427,0.16524236572809775,0.024940325693176266,3.193341983333002,,,,
2025-04-30 00:17:40.323001,0.00041898529052719624,0.6389453854492186,-13.904954198473282,0.0,0.0,0.17929410673096866,0.026776847349703585,3.186290563658347,0.5552360111219804,0.07209023546896691,0.17202961510965512,0.025913803083746276,3.190171047205498,,,,
2025-04-30 00:17:40.336631,-1.151192013244629,1.2111595822265624,-15.500374045801527,0.0,0.0,0.18692901816627283,0.02752805496992924,3.1826032282800085,0.5601584727949551,0.05511462927412104,0.179597433818986,0.02689638674513322,3.1868632412519964,,,,
2025-04-30 00:17:40.350698,-0.8519168057250974,-1.1734652712890625,-13.660679389312977,0.0,0.0,0.1948075206973896,0.02852144010109076,3.179249392656561,0.5600819437334436,0.07061964795205566,0.18747701286115898,0.027671667489488693,3.1830577418935797,,,,
2025-04-30 00:17:40.362915,-0.7154473110961912,1.3356580685546873,-20.210297709923665,0.0,0.0,0.20162432084411783,0.029175177861962588,3.1749399982255118,0.5579745545182232,0.05351030220084594,0.1943195590764045,0.028534430894420534,3.18014490723228,,,,
2025-04-30 00:17:40.375775,-1.9005771328735346,-1.4511926638671873,-8.675946564885496,0.0,0.0,0.20895703405049249,0.030094336814341708,3.172992642581439,0.5701822086086408,0.07147260049313217,0.20149527821138208,0.02922258933518058,3.1756086140428885,,,,
2025-04-30 00:17:40.387862,2.82078854095459,0.5431773190429687,-28.15686259541985,0.0,0.0,0.21530940850616978,0.030852942823818143,3.1670525590591927,0.5255392636582323,0.06276034991461293,0.20838726734999502,0.03008650332420017,3.173778301910089,,,,
2025-04-30 00:17:40.400846,-15.746245333557127,1.16806395234375,-8.149229007633588,0.0,0.0,0.22460122600174967,0.03151999629042825,3.1652059297554835,0.7156733379054777,0.05137771821684731,0.21521051290915638,0.030901341164983807,3.1673979084372212,,,,
2025-04-30 00:17:40.418427,-5.903682308654785,-0.42168595,-13.187396946564885,0.0,0.0,0.23871790954660788,0.032567947537154765,3.1611592639150263,0.8029190873565347,0.059604655437804195,0.22779326774933098,0.031804648859052945,3.1648972476332067,,,,
2025-04-30 00:17:40.434078,-2.1806987271118166,-1.1878304812499998,-12.408770992366412,0.0,0.0,0.2515514550001926,0.03377569077289214,3.1577697716010755,0.8200080896691531,0.07716957306378795,0.24035936158786653,0.03273749216199517,3.1612950713484724,,,,
2025-04-30 00:17:40.447001,-0.9381080654907228,-1.918061987597656,-19.988923664122137,0.0,0.0,0.2620861459762781,0.035068666066282915,3.1532613742668936,0.8152041714283494,0.10005408370484659,0.25095613246480997,0.03373473632913313,3.1584963378597415,,,,
2025-04-30 00:17:40.461329,0.4840477206420899,-2.001859045703125,-26.668312977099237,0.0,0.0,0.27343376724799384,0.03687589707587921,3.146592185259333,0.7919626824593563,0.12612859417075065,0.26263676894096927,0.03516835924308831,3.153497524845652,,,,
2025-04-30 00:17:40.475008,5.70580154144287,1.208765380566406,-13.401137404580153,0.0,0.0,0.2830043404627509,0.038343146951396276,3.1433927989461505,0.6996652348133877,0.10726460219756201,0.2734698594801244,0.03689364568712252,3.1471307342547705,,,,
2025-04-30 00:17:40.488287,-2.5565883877563476,0.6245801754882812,-11.851519083969466,0.0,0.0,0.29255157623689165,0.0396307374249545,3.1406459240442985,0.7189358731112173,0.09695947635697524,0.28276118741292827,0.0383180848974902,3.144024697996288,,,,
2025-04-30 00:17:40.501299,-0.8375515957641602,1.6445100827148438,-20.43930534351145,0.0,0.0,0.30185666929054933,0.04059349861860393,3.1360041360951336,0.7151199980820963,0.073990639210799,0.29211593237440886,0.039579715046773205,3.1413332054265206,,,,
2025-04-30 00:17:40.514886,1.2094908236694335,-0.9460161135742188,-7.996557251908397,0.0,0.0,0.3111608305038828,0.04175143724870052,3.1341079162488725,0.6848082089237635,0.08522701414327488,0.30183192535219644,0.0405849904312152,3.1364864425990673,,,,
2025-04-30 00:17:40.528228,-14.439011227111816,1.3667826901367186,-35.9965572519084,0.0,0.0,0.32262972415254804,0.042587431139794144,3.1257256028179197,0.8595991227135169,0.06265814623379742,0.310968733790398,0.04172210136510836,3.134624329820199,,,,
2025-04-30 00:17:40.542659,-0.9500790737915037,-3.2827569338867186,-5.6530458015267175,0.0,0.0,0.334991956637123,0.04414008727451651,3.124301778877047,0.8566442168745474,0.10759172344188722,0.3233736085204137,0.042626321058110886,3.1255579323764664,,,,
2025-04-30 00:17:40.555604,2.413774258728027,0.564725133984375,-17.523274809160306,0.0,0.0,0.34546092129033307,0.045420682332298075,3.1203427873395984,0.8087453553029343,0.09892814994720317,0.33446260948719786,0.04401906346127332,3.1242807532685206,,,,
2025-04-30 00:17:40.568785,-1.2421716763305661,0.41389042939453125,-18.13396183206107,0.0,0.0,0.3561177991441614,0.04662278920211678,3.116170894110419,0.8084755079824132,0.09119687544102738,0.34512304431944496,0.04532307972383584,3.1202493544927643,,,,
2025-04-30 00:17:40.583061,-0.8590994107055665,0.41389042939453125,-5.2179312977099235,0.0,0.0,0.36759770936153113,0.04781142202117292,3.1148708185347824,0.8041658317916146,0.0832635344294613,0.3566644775383902,0.046624965355851776,3.11573118061843,,,,
2025-04-30 00:17:40.596612,-0.4257489102172851,-0.38577292509765626,-9.790450381679388,0.0,0.0,0.3783559940410739,0.04898437227569377,3.112555202425205,0.7938830110407441,0.08655518120195337,0.3675621095920524,0.047753308945976895,3.1144970468145083,,,,
2025-04-30 00:17:40.609452,1.568621072692871,-0.910103088671875,-2.0957938931297706,0.0,0.0,0.3880966159388887,0.05022797395055383,3.112085533243771,0.75861348785614,0.09685346725972042,0.37775559331655095,0.04886468029236266,3.1123029986155375,,,,
2025-04-30 00:17:40.622130,-4.93642483795166,2.985263012402344,-11.630145038167939,0.0,0.0,0.39828417843907726,0.050936397978001646,3.109512068282446,0.8035529965546626,0.0558775713107508,0.3873734061480095,0.05009260272597808,3.111839250989654,,,,
2025-04-30 00:17:40.635278,-1.3139977261352538,-0.9891117434570312,-8.378236641221374,0.0,0.0,0.40886602767089714,0.0518162724818095,3.107589489690025,0.8048361179490647,0.06692164709714737,0.39793838511663066,0.05082727158820234,3.109170447417418,,,,
2025-04-30 00:17:40.648963,1.0514735140991212,-0.7377205691406249,-4.859152671755725,0.0,0.0,0.419471815787217,0.05285587510676899,3.10642889031125,0.7749943295080547,0.07596664485928507,0.40895255775031636,0.051743093527129316,3.1071693215220426,,,,
2025-04-30 00:17:40.662070,-4.711369881896973,-1.4200680422851564,-5.042358778625954,0.0,0.0,0.4302277059373419,0.054041758425102,3.1052754143587125,0.8206329006481158,0.09047831967143348,0.4191102712280175,0.052738774892737136,3.1060577552883317,,,,
2025-04-30 00:17:40.674648,-0.7465719326782225,1.0411712643554687,7.6675648854961835,0.0,0.0,0.44045289586535746,0.05499166839802221,3.1069585934118984,0.8129725711004947,0.07552434315993385,0.4294318092092393,0.053876769009507594,3.104950859839571,,,,
2025-04-30 00:17:40.688710,5.054578689880371,-1.7768040896484374,4.820236641221374,0.0,0.0,0.45068926142345284,0.056409417939977086,3.1081416695107595,0.7279119238726696,0.10081671964497366,0.44086435228699916,0.05493884088903812,3.106832782539159,,,,
2025-04-30 00:17:40.705804,0.49123032562255853,-1.8079287112304687,-3.8515190839694657,0.0,0.0,0.46276024858350706,0.058620495104334744,3.106992620941907,0.7061774144551799,0.12935253218179768,0.453306856545644,0.056662143423843986,3.1082708348747112,,,,
2025-04-30 00:17:40.721505,-1.2924499111938474,-0.6587119143554688,1.9958091603053436,0.0,0.0,0.4739438829817653,0.06075929851071345,3.107539551039569,0.7122746976912068,0.13621828964084987,0.46439475570754557,0.05869314555420089,3.1072153673727887,,,,
2025-04-30 00:17:40.736339,7.434415140075683,0.5910613522460937,-2.0194580152671753,0.0,0.0,0.4826918735470717,0.06266760502153741,3.1070167031994487,0.5897190861316765,0.12864265950232232,0.474960756506641,0.06071383021682049,3.1077320924053815,,,,
2025-04-30 00:17:40.751194,3.5677794589233396,-0.14635275908203127,1.2935190839694657,0.0,0.0,0.4905071038457698,0.06459846833732814,3.1073520808474413,0.5260873676373901,0.12997733403213574,0.48372126047075337,0.0626248664288525,3.1072084966673876,,,,
2025-04-30 00:17:40.766286,3.869448868103027,0.9669510128906249,-3.279,0.0,0.0,0.49741722384671827,0.06633545380660656,3.1064883815035826,0.4578695728350445,0.11509391945870967,0.49166091634010545,0.0645864708438482,3.1075492138324052,,,,
2025-04-30 00:17:40.779521,1.367508133239746,0.37558320283203117,5.262984732824428,0.0,0.0,0.5031191688462646,0.06777178354466659,3.107704109583099,0.43082019598244053,0.10852434727021408,0.49772086233525004,0.06610974947529502,3.106791778161374,,,,
2025-04-30 00:17:40.793514,1.855925271911621,1.713941930859375,4.499625954198473,0.0,0.0,0.5086600026288529,0.06894290366033931,3.1088029529367,0.39599811368182686,0.08369883936215038,0.5037489291710401,0.06762822986399528,3.1080770396148,,,,
2025-04-30 00:17:40.807797,0.09858125335693346,-1.0226305666992186,6.644664122137405,0.0,0.0,0.5141898415322868,0.07031950035055794,3.110459446739541,0.38714447391133816,0.09637564687315595,0.5094052304288121,0.06882375538293392,3.109198782169612,,,,
2025-04-30 00:17:40.824028,4.307587771911621,0.2846035397460937,1.9958091603053436,0.0,0.0,0.5192339060717375,0.07181297545825513,3.111024805498019,0.3107798762258735,0.09201746042034147,0.5156887187170989,0.07038796535934243,3.1110810358105465,,,,
2025-04-30 00:17:40.836797,1.0802039340209961,-0.00988326445312504,3.3622213740458013,0.0,0.0,0.5229504047599852,0.07297117000098206,3.1117741128773706,0.2910567304761671,0.09070373626860667,0.5196570619347172,0.07156293482453432,3.1115258234569336,,,,
2025-04-30 00:17:40.850704,2.976411648864746,1.0938437008789061,0.5454274809160305,0.0,0.0,0.5263471716695047,0.07401688309201869,3.1119065024866845,0.24424530756656815,0.07519224084255897,0.5237048443904966,0.07282436929382508,3.112341923103011,,,,
2025-04-30 00:17:40.865614,1.5351022494506836,0.6916178219726562,3.415656488549618,0.0,0.0,0.5295774841909039,0.07497461716003202,3.112795381357593,0.21664741568868362,0.06423236432313564,0.527346654161535,0.07394552015700828,3.1124838633025083,,,,
2025-04-30 00:17:40.879144,-1.4456788174438477,-0.44083956328124996,2.4309236641221377,0.0,0.0,0.532711525913692,0.07589801954317998,3.113369417641589,0.2316402998177345,0.06824963539238439,0.5302778454975711,0.07481456975632424,3.11329043357332,,,,
2025-04-30 00:17:40.893349,0.7186794833374024,1.6038086544921875,0.3927557251908397,0.0,0.0,0.5357851841021889,0.0765350900986614,3.113466791075609,0.21637893310919118,0.044848398441388306,0.5335682910788023,0.07578405438993169,3.113893117047636,,,,
2025-04-30 00:17:40.907332,-0.5454589932250977,-0.18705418730468748,0.47672519083969467,0.0,0.0,0.5388557810124002,0.07718256450237908,3.1135831356608694,0.21959482519543158,0.046304361223732306,0.5365939201338067,0.07641117004969049,3.1139889689196036,,,,
2025-04-30 00:17:40.922700,0.26378116790771466,0.4378324459960937,2.3240534351145037,0.0,0.0,0.5420991624886365,0.07778030222581574,3.114206488096346,0.211051210873978,0.0388956005455,0.5399685977078743,0.07712276372802142,3.114116835088373,,,,
2025-04-30 00:17:40.936609,2.9931710604858397,-0.44562796660156245,3.621763358778626,0.0,0.0,0.5444109962389843,0.07841000922522902,3.1150857361236133,0.16620444535435677,0.045271465803931196,0.5429042310557668,0.07766378513024334,3.114681040751654,,,,
2025-04-30 00:17:40.949495,4.262097940368652,0.8232989132812499,1.2782519083969466,0.0,0.0,0.5458130123340301,0.07886595362795291,3.1153732093939968,0.10880512370045953,0.035384106726167,0.5450458701581355,0.07824713379568086,3.1154955595100176,,,,
2025-04-30 00:17:40.962662,4.338712393493652,-0.09368032255859371,-0.7828167938931299,0.0,0.0,0.5464805148576635,0.07935791303439733,3.1151933102696234,0.05069456072003723,0.037362654250411256,0.5464785227666745,0.07871304138420235,3.1157893145761366,,,,
2025-04-30 00:17:40.975711,1.271740066833496,0.13137463349609374,0.06451145038167938,0.0,0.0,0.546916071051647,0.07981937906023315,3.1152080022289437,0.03337940958614304,0.03536504290201447,0.5471400182873157,0.07920057353903066,3.115611034403812,,,,
2025-04-30 00:17:40.990269,0.6684012484741211,-0.10086292753906256,0.4309236641221374,0.0,0.0,0.547254074202345,0.08034854548036424,3.1153174994396697,0.023216428124343866,0.03634686284261594,0.547625982172377,0.0797154458467529,3.11562742668965,,,,
2025-04-30 00:17:41.002854,1.693119559020996,0.4952932858398437,-3.393503816793893,0.0,0.0,0.547275646745386,0.08072705420490563,3.1145721642136523,0.0017142549271933387,0.030078069367944514,0.5479181425663922,0.08017284238132906,3.1157220729915065,,,,
2025-04-30 00:17:41.014300,0.6396708285522461,-0.0529788943359375,-1.0499923664122137,0.0,0.0,0.5472129545145797,0.08107350006135,3.1143623937411333,-0.005476875600164565,0.03026596491362523,0.5479377651529547,0.08051713745112477,3.1150441091110865,,,,
2025-04-30 00:17:41.154612,0.03872621185302716,0.30375715302734374,-2.6683129770992364,0.0,0.0,0.5462019899574917,0.0810763575490427,3.109705309048726,-0.010109645570880557,2.857487692701138e-05,0.5471692940225052,0.08476381420065997,3.1124727769048697,,,,
2025-04-30 00:17:41.166194,-0.08577227447509772,-0.20381359892578121,-1.8286183206106872,0.0,0.0,0.5460993746451557,0.08110309822572913,3.1093356604193976,-0.00885979157644401,0.0023087862489676618,0.5470522027310328,0.08476414515877513,3.1119333870149797,,,,
2025-04-30 00:17:41.177598,0.285328982849121,-0.4719641848632813,0.4309236641221374,0.0,0.0,0.5459659496916067,0.08119018893414713,3.109421428811351,-0.011700044246830271,0.007636990794264908,0.5469511674482082,0.08479047409322393,3.111569430087307,,,,
2025-04-30 00:17:41.189849,0.35715503265380866,-0.12001654082031255,0.43855725190839695,0.0,0.0,0.5457735421223059,0.08130120582634866,3.1095152004853004,-0.015705586126982453,0.009061937471361617,0.5468078313730026,0.08488403410579634,3.111661569558615,,,,
2025-04-30 00:17:41.203024,0.13688847991943343,0.026029760449218675,-1.3935038167938931,0.0,0.0,0.5455473375536184,0.08141453981629353,3.1091947622250355,-0.01716890261240294,0.008602037736590417,0.5466009063635223,0.08500342738930772,3.111762416446248,,,,
2025-04-30 00:17:41.217063,0.014784195251464904,0.18883547333984374,2.400389312977099,0.0,0.0,0.5453071132968331,0.08149652328651148,3.109782913545039,-0.017111450862412312,0.005839777135489811,0.5463598755530408,0.08512418968694843,3.1114209755371225,,,,
2025-04-30 00:17:41.232713,-0.183934542541504,-0.10565133085937506,0.17901526717557253,0.0,0.0,0.5450896142194962,0.08161002607090033,3.1098318083675047,-0.01389830966925283,0.007252889828655695,0.5460920930051599,0.08521557822044988,3.112076598999623,,,,
2025-04-30 00:17:41.245493,0.16322469818115248,0.10025001191406246,-0.46983969465648856,0.0,0.0,0.5448889146013257,0.08168566051561539,3.1097270056680997,-0.01570366964445195,0.005917990001047787,0.5459144666600452,0.08530827325620911,3.1121165302430835,,,,
2025-04-30 00:17:41.257495,0.05069722015380851,-0.14874696074218752,-0.21029770992366414,0.0,0.0,0.5446977295357491,0.08177648118119417,3.109682954585078,-0.015929761919946595,0.007567283436693437,0.5457259950980812,0.08537929950959054,3.112018112873708,,,,
2025-04-30 00:17:41.269421,0.1560420932006834,0.028423962109375034,0.2782519083969466,0.0,0.0,0.544489686951953,0.08186165600877397,3.109740871841964,-0.017444550116683583,0.007141982767583075,0.5455360177809869,0.08546954644562256,3.111974340068848,,,,
2025-04-30 00:17:41.285178,-0.08816647613525408,-0.048190491015625,-1.4393053435114505,0.0,0.0,0.5442421185426973,0.08198297603663907,3.109345026201862,-0.015710849397280957,0.0076990464671700485,0.5452611300640112,0.08558208837559661,3.1120508664329622,,,,
2025-04-30 00:17:41.304707,-0.09534908111572271,0.014058752148437437,-0.17976335877862593,0.0,0.0,0.5439768964864403,0.08212391479827597,3.1092837573620806,-0.01358152455158919,0.007217209904998342,0.5449543262315797,0.08573243651416418,3.111560307238436,,,,
2025-04-30 00:17:41.317544,0.03872621185302716,-0.02185427275390628,0.08741221374045799,0.0,0.0,0.5439768964864403,0.08212391479827597,3.1093033428756156,-0.010865219641271353,0.005773767923998674,0.5447799713947629,0.08582508851729381,3.1115200295982097,,,,
2025-04-30 00:17:41.331483,-0.12407950103759768,-0.18465998564453123,0.14848091603053437,0.0,0.0,0.5438532267889734,0.0822371605742671,3.109339464042346,-0.008872572042766447,0.008124717102095188,0.5446285273242644,0.08590556575985249,3.1115412944935996,,,,
2025-04-30 00:17:41.343898,0.08900444671630847,0.006876147167968694,0.3622213740458015,0.0,0.0,0.543731804474002,0.08233540729527637,3.1094179522000633,-0.00978015672947011,0.007913441033089653,0.5445183728280755,0.08600643550931686,3.111573468170777,,,,
2025-04-30 00:17:41.357794,-0.013946224670410068,-0.026642676074218774,0.04161068702290077,0.0,0.0,0.543731804474002,0.08233540729527637,3.1094280440712585,-0.007824125383576087,0.006330752826471723,0.5443824678829832,0.08611640059462602,3.111661317992842,,,,
2025-04-30 00:17:41.371358,0.06266822845458986,-0.02185427275390628,0.018709923664122163,0.0,0.0,0.5436166350728253,0.0824238610047292,3.109432473350349,-0.008490894518170353,0.00652127309016981,0.5442763424525907,0.08620227011172607,3.1116711686661684,,,,
2025-04-30 00:17:41.385565,0.024361001892089895,0.018847155468749932,0.026343511450381663,0.0,0.0,0.5436166350728253,0.0824238610047292,3.1094390057357573,-0.0067927156145362825,0.005217018472135848,0.5441557072064969,0.08629492176137195,3.1116758081551965,,,,
2025-04-30 00:17:41.398851,0.014784195251464904,-0.026642676074218774,-0.08052671755725194,0.0,0.0,0.5436166350728253,0.0824238610047292,3.1094203333529142,-0.005434172491629027,0.004173614777708679,0.5440654616532645,0.08636423317450302,3.1116819166387675,,,,
2025-04-30 00:17:41.414484,0.03154360687255853,0.014058752148437437,-0.2331984732824427,0.0,0.0,0.5436166350728253,0.0824238610047292,3.1093567053416216,-0.0043473379933032215,0.003338891822166943,0.5439805086574215,0.08642947973769309,3.1116599449902314,,,,
2025-04-30 00:17:41.427955,-0.018734627990722785,-0.04340208769531251,-0.05762595419847327,0.0,0.0,0.5436166350728253,0.0824238610047292,3.1093431568256675,-0.0034778703946425774,0.0026711134577335548,0.5439219461536164,0.08647445757593378,3.1116051173820867,,,,
2025-04-30 00:17:41.440893,-0.009157821350097795,-0.005094861132812545,-0.5232748091603053,0.0,0.0,0.5436166350728253,0.0824238610047292,3.109224995568913,-0.002782296315714062,0.002136890766186844,0.5438769493878036,0.08650901650225322,3.1115921048023663,,,,
2025-04-30 00:17:41.454360,0.00041898529052719624,0.009270348828124941,0.03397709923664122,0.0,0.0,0.5436166350728253,0.0824238610047292,3.109232981567076,-0.00222583705257125,0.001709512612949475,0.5438394806623377,0.08653779365766144,3.1114691139715234,,,,
2025-04-30 00:17:41.467791,0.014784195251464904,0.04278917207031252,-0.08052671755725194,0.0,0.0,0.5436166350728253,0.0824238610047292,3.1092141041110453,-0.001780669642057,0.00136761009035958,0.5438095842227392,0.08656075506021194,3.111477079044686,,,,
2025-04-30 00:17:41.481352,-0.016340426330566427,-0.00030645781250004944,-0.27136641221374047,0.0,0.0,0.5436166350728253,0.0824238610047292,3.1091498759469665,-0.0014245357136456,0.0010940880722876641,0.5437854365432743,0.08657930123481672,3.1114580196364647,,,,
2025-04-30 00:17:41.493772,-0.009157821350097795,0.006876147167968694,0.2553511450381679,0.0,0.0,0.5436166350728253,0.0824238610047292,3.1092052259905736,-0.00113962857091648,0.0008752704578301314,0.5437677445758204,0.08659288922027832,3.1113991981154285,,,,
2025-04-30 00:17:41.506663,0.007601590270996272,-0.00030645781250004944,-0.22556488549618325,0.0,0.0,0.5436166350728253,0.0824238610047292,3.1091544749063296,-0.0009117028567331841,0.0007002163662641051,0.5437530532904893,0.08660417258782985,3.1114566509740382,,,,
2025-04-30 00:17:41.520650,-0.04267664459228504,0.011664550488281189,0.21718320610687025,0.0,0.0,0.5436166350728253,0.0824238610047292,3.1092074946451027,-0.0007293622853865473,0.0005601730930112841,0.5437403010265867,0.0866139667261564,3.111401585062084,,,,
2025-04-30 00:17:41.537686,0.05069722015380851,-0.014671667773437536,-0.03472519083969461,0.0,0.0,0.5435901822107427,0.08243785072595282,3.109197169823135,-0.0015527877800007202,0.0008211991615056487,0.5437278758129213,0.08662350967965117,3.1114661600257696,,,,
2025-04-30 00:17:41.552393,-0.016340426330566427,-0.024248474414062526,-0.11106106870229004,0.0,0.0,0.5435901822107427,0.08243785072595282,3.1091686618775776,-0.0012422302240005763,0.000656959329204519,0.5437050388256649,0.0866355871283713,3.1114572465166392,,,,
2025-04-30 00:17:41.566894,-0.0211288296508787,0.02124135712890618,0.1255801526717557,0.0,0.0,0.5435901822107427,0.08243785072595282,3.109200443623017,-0.000993784179200461,0.0005255674633636153,0.543687026015913,0.08664511328800181,3.1114291392517677,,,,
2025-04-30 00:17:41.580552,0.014784195251464904,-0.0074890627929687925,0.21718320610687025,0.0,0.0,0.5435901822107427,0.08243785072595282,3.1092522171037613,-0.0007950273433603689,0.00042045397069089224,0.5436734523912883,0.08665229176358231,3.111459075828047,,,,
2025-04-30 00:17:41.593239,0.002813186950683555,-0.04100788603515626,-0.14159541984732826,0.0,0.0,0.5435901822107427,0.08243785072595282,3.109220864309619,-0.0006360218746882952,0.0003363631765527138,0.5436633660944927,0.08665762594934673,3.1115071656628706,,,,
2025-04-30 00:17:41.606535,0.02914940521240217,0.009270348828124941,0.270618320610687,0.0,0.0,0.5435901822107427,0.08243785072595282,3.1092836654477973,-0.0005088174997506361,0.0002690905412421711,0.5436549093150296,0.08666209835716294,3.1114743062706935,,,,
2025-04-30 00:17:41.619496,0.005207388610839914,-0.017065869433593783,0.354587786259542,0.0,0.0,0.5435901822107427,0.08243785072595282,3.1093638784276507,-0.0004070539998005089,0.00021527243299373686,0.5436483144554918,0.08666558607982051,3.1115355241206597,,,,
2025-04-30 00:17:41.635934,-0.02352303131103506,0.009270348828124941,-0.15686259541984737,0.0,0.0,0.5435901822107427,0.08243785072595282,3.109318875617319,-0.00032564319984040716,0.0001722179463949895,0.5436416233958985,0.08666912467833239,3.111637252941659,,,,
2025-04-30 00:17:41.649831,0.005207388610839914,0.028423962109375034,-0.011824427480916055,0.0,0.0,0.5435901822107427,0.08243785072595282,3.1093160076332214,-0.00026051455987232574,0.0001377743571159916,0.5436370979511924,0.08667151798116868,3.1115992063275666,,,,
2025-04-30 00:17:41.662568,-0.05225345123291003,-0.01946007109375003,0.1026793893129771,0.0,0.0,0.5435953329781997,0.08244239458120278,3.1093388327366123,0.0004044080894788776,0.00035675689804256946,0.5436337798921526,0.08667327275238496,3.111596577817779,,,,
2025-04-30 00:17:41.675048,0.00041898529052719624,0.0020877438476561982,0.2553511450381679,0.0,0.0,0.5435953329781997,0.08244239458120278,3.109394455859277,0.0003235264715831021,0.0002854055184340556,0.5436388272026642,0.0866777253409667,3.1116189444622133,,,,
2025-04-30 00:17:41.688340,-0.0019752163696287184,0.0020877438476561982,-0.04999236641221372,0.0,0.0,0.5435953329781997,0.08244239458120278,3.109382858731316,0.00025882117726648167,0.0002283244147472445,0.5436431273091271,0.08668151876815787,3.1116781803039326,,,,
2025-04-30 00:17:41.701399,0.007601590270996272,0.03081816376953128,-0.1339618320610687,0.0,0.0,0.5435953329781997,0.08244239458120278,3.109352324926328,0.00020705694181318533,0.0001826595317977956,0.5436465073526301,0.0866845005429214,3.111666785586919,,,,
2025-04-30 00:17:41.713799,-0.12168529937744132,-0.18226578398437498,-0.05762595419847327,0.0,0.0,0.5436170618785823,0.0824714740484744,3.109339853318484,0.0017523094364534822,0.0023450899037722765,0.543649074889829,0.08668676554856924,3.1116377931049946,,,,
2025-04-30 00:17:41.731891,-0.0019752163696287184,-0.005094861132812545,-0.1339618320610687,0.0,0.0,0.5436170618785823,0.0824714740484744,3.109297553616246,0.001401847549162786,0.0018760719230178212,0.5436807771089951,0.08672919216144186,3.111619597170628,,,,
2025-04-30 00:17:41.745741,-0.006763619689941436,0.02124135712890618,0.08741221374045799,0.0,0.0,0.5436170618785823,0.0824714740484744,3.1093186832008173,0.0011214780393302287,0.0015008575384142572,0.5437001923264259,0.08675517526090439,3.1115872154502857,,,,
2025-04-30 00:17:41.759755,0.019572598571777178,-0.045796289355468756,0.011076335877862609,0.0,0.0,0.5436170618785823,0.0824714740484744,3.109321392367793,0.000897182431464183,0.0012006860307314058,0.5437159087260177,0.08677620828694409,3.111608595650863,,,,
2025-04-30 00:17:41.772001,0.021966800231933536,0.03321236542968753,0.11794656488549621,0.0,0.0,0.5436170618785823,0.0824714740484744,3.109346602205643,0.0007177459451713465,0.0009605488245851247,0.543726895954314,0.08679091233270914,3.1116109631011715,,,,
2025-04-30 00:17:41.785731,0.012389993591308546,-0.04100788603515626,-0.1186946564885496,0.0,0.0,0.5436170618785823,0.0824714740484744,3.1093181593573167,0.0005741967561370772,0.0007684390596680998,0.5437367504702825,0.08680410048625294,3.111639226684006,,,,
2025-04-30 00:17:41.798886,0.017178396911621263,0.03321236542968753,0.17138167938931298,0.0,0.0,0.5436170618785823,0.0824714740484744,3.1093575096359656,0.0004593574049096618,0.0006147512477344798,0.5437443042929453,0.08681420965583968,3.111611973667093,,,,
2025-04-30 00:17:41.811283,0.002813186950683555,0.004481945507812446,-0.03472519083969461,0.0,0.0,0.5436170618785823,0.0824714740484744,3.109349996168821,0.0003674859239277295,0.0004918009981875838,0.5437499989700557,0.08682183075832257,3.1116490554105214,,,,
2025-04-30 00:17:41.824626,-0.009157821350097795,0.018847155468749932,0.20191603053435114,0.0,0.0,0.5436170618785823,0.0824714740484744,3.1093970160459588,0.0002939887391421836,0.0003934407985500671,0.5437549021070899,0.08682839255438232,3.1116409690084534,,,,
2025-04-30 00:17:41.837961,0.00041898529052719624,0.02124135712890618,0.06451145038167938,0.0,0.0,0.5436170618785823,0.0824714740484744,3.109412030406944,0.0002351909913137469,0.00031475263884005373,0.5437588224438535,0.08683363908331863,3.1116879628390564,,,,
2025-04-30 00:17:41.851487,0.1656188998413084,0.03560656708984378,-0.2026641221374046,0.0,0.0,0.5435902929022123,0.08247022215333759,3.1093641852769185,-0.001979011257171884,-9.255171114119351e-05,0.5437620037406077,0.08683789656589785,3.1117031927608556,,,,
2025-04-30 00:17:41.864666,-0.01155202301025371,0.1170094235351562,-0.2179312977099237,0.0,0.0,0.5435660555388182,0.08244905708090369,3.1093140571435676,-0.0018390808154025533,-0.0016059617556993262,0.5437359222249945,0.0868366768209922,3.111656576353544,,,,
2025-04-30 00:17:41.876951,0.007601590270996272,0.009270348828124941,0.15611450381679387,0.0,0.0,0.5435660555388182,0.08244905708090369,3.1093475308653526,-0.0014712646523220426,-0.001284769404559461,0.5437133286895102,0.08681694720736675,3.111609848013451,,,,
2025-04-30 00:17:41.889955,0.05309142181396487,0.02124135712890618,0.1026793893129771,0.0,0.0,0.5435384011073024,0.08242945076443978,3.109370833654777,-0.0021267550326259754,-0.0015078173705035966,0.5436941976720939,0.08680024120833682,3.111645277747041,,,,
2025-04-30 00:17:41.903135,-0.11210849273681633,-0.01946007109375003,-0.04235877862595416,0.0,0.0,0.5435301132898097,0.08241267100710825,3.109361089489566,-0.0006288055074169375,-0.0012730979938253369,0.5436661664965488,0.08678036778955836,3.1116688979968616,,,,
2025-04-30 00:17:41.916443,0.017178396911621263,0.0020877438476561982,-0.22556488549618325,0.0,0.0,0.5435301132898097,0.08241267100710825,3.1093086977007673,-0.00050304440593355,-0.0010184783950602696,0.5436577983225173,0.08676342534003173,3.11165905935474,,,,
2025-04-30 00:17:41.928787,0.007601590270996272,-0.014671667773437536,-0.004190839694656501,0.0,0.0,0.5435301132898097,0.08241267100710825,3.109307794837794,-0.00040243552474684003,-0.0008147827160482157,0.5436515889209029,0.08675085360418534,3.1116104642764237,,,,
2025-04-30 00:17:41.941512,-0.03070563629150369,-0.014671667773437536,-0.06525954198473283,0.0,0.0,0.5435301132898097,0.08241267100710825,3.1092933001952683,-0.00032194841979747203,-0.0006518261728385727,0.5436464675947976,0.08674048481779031,3.111609533458931,,,,
2025-04-30 00:17:41.955143,0.002813186950683555,0.0020877438476561982,-0.08816030534351149,0.0,0.0,0.5435301132898097,0.08241267100710825,3.1092723261824093,-0.00025755873583797764,-0.0005214609382708581,0.5436420790819466,0.0867315997065109,3.1115940077133315,,,,
2025-04-30 00:17:41.969159,0.014784195251464904,0.023635558789062427,-0.04999236641221372,0.0,0.0,0.5435301132898097,0.08241267100710825,3.109260097482365,-0.00020604698867038212,-0.0004171687506166865,0.5436384693453306,0.0867242913283401,3.1115724427023665,,,,
2025-04-30 00:17:41.982228,0.04112041351318352,0.02124135712890618,0.09504580152671754,0.0,0.0,0.5435301132898097,0.08241267100710825,3.109281777010178,-0.0001648375909363057,-0.0003337350004933492,0.5436357765348705,0.08671883938564233,3.1115610396642452,,,,
2025-04-30 00:17:41.994687,-0.03549403961181641,-0.012277466113281288,-0.08052671755725194,0.0,0.0,0.5435301132898097,0.08241267100710825,3.1092642653683833,-0.00013187007274904458,-0.00026698800039467936,0.5436337226988819,0.08671468112932,3.1115817086804545,,,,
2025-04-30 00:17:42.008764,-0.013946224670410068,-0.036219482714843765,0.1255801526717557,0.0,0.0,0.5435301132898097,0.08241267100710825,3.109295117997208,-0.00010549605819923567,-0.0002135904003157435,0.5436318664335837,0.08671092288038733,3.1115619248143385,,,,
2025-04-30 00:17:42.022347,0.15843629486083977,0.006876147167968694,-0.019458015267175555,0.0,0.0,0.5435000364554243,0.08240951035619799,3.109290505060792,-0.002214269935583065,-0.00023268852691657056,0.543630433461289,0.08670802164283116,3.111591696260781,,,,
2025-04-30 00:17:42.037935,0.021966800231933536,0.04997177705078126,0.07214503816793894,0.0,0.0,0.543460598382876,0.08239423112775587,3.1093101330354824,-0.0025300204255368944,-0.0009801888770699472,0.5435959173216248,0.08670439448357463,3.1115864024603908,,,,
2025-04-30 00:17:42.052241,0.1656188998413084,-0.0074890627929687925,-0.07289312977099238,0.0,0.0,0.5433919735356267,0.08238306287500628,3.1092919321925963,-0.004796824786550439,-0.0007806523986442224,0.5435597220731082,0.0866903716007391,3.11160441651067,,,,
