timestamp,imu_accel_x,imu_accel_y,imu_gyro_z,gps_lat,gps_lng,odom_x,odom_y,odom_heading,odom_vx,odom_vy,ekf_x,ekf_y,ekf_heading,map_matched_lat,map_matched_lng,distance_to_path,progress
2000-01-01 08:05:35.854767,-0.174551666235351,-0.12696930244140603,-0.09161068702290076,,,0.0,0.0,3.141592653589793,0.0,0.0,0.0,0.0,3.141592653589793,,,,
2000-01-01 08:05:35.867608,-0.14582124631347604,-0.12696930244140603,-0.42748854961832067,,,2.356567421526682e-05,2.0515106696989916e-05,3.1414968459293493,0.001835191920083746,0.001597627027601916,0.0,0.0,3.141592653589793,,,,
2000-01-01 08:05:35.881905,0.07444530642089875,-0.2155547638671873,-0.870236641221374,,,3.437960853655432e-05,8.608247268033131e-05,3.141279697702472,0.0007563837202977287,0.004586128113888699,2.6237535735078305e-05,2.2841096764484094e-05,3.1414859833162576,,,,
2000-01-01 08:05:35.894088,-0.1027256164306638,-0.31371703193359357,-0.9771068702290078,,,5.8376473015103524e-05,0.00018646320149497963,3.14107193088828,0.0019696894229852898,0.008239362271454607,3.545261168459312e-05,7.871421744330364e-05,3.141300940819834,,,,
2000-01-01 08:05:35.906090,-0.10751401975097608,-0.31850543525390607,-0.7786335877862596,,,9.675255386778388e-05,0.0003283280521386957,3.140908825570149,0.0031974443921836417,0.011819992064328742,5.9093041753036173e-05,0.00017760395372044536,3.1410962600439,,,,
2000-01-01 08:05:35.918084,-0.29186754758300726,-0.3400532501953122,-0.3893206106870229,,,0.00017551362856547552,0.0005151589079623264,3.140827331242896,0.006567030268941373,0.015577795123737227,9.744129755528749e-05,0.0003193659435056381,3.1409332729872905,,,,
2000-01-01 08:05:35.929979,-0.35172258908691356,-0.4501865265624998,-1.5343587786259543,,,0.0003009101906361677,0.0007591321010508255,3.140508776552738,0.01054158502955029,0.02050984586342502,0.0001755588687204419,0.0005046703306241258,3.1408524444951302,,,,
2000-01-01 08:05:35.941807,-0.2846849426025386,-0.39751409003906235,1.1679312977099237,,,0.00046217461799088707,0.0010513298493737043,3.140749875454652,0.013634462148231344,0.024704512983161203,0.0003002416508294546,0.0007472547840730536,3.1405357030760124,,,,
2000-01-01 08:05:35.953721,-0.3541167907470699,-0.4645517365234373,1.7633511450381678,,,0.0006706596901798381,0.0014043753140622443,3.1411165482192898,0.01749896985726676,0.029632490614150096,0.00046268446023009475,0.0010415876627909624,3.140778563721802,,,,
2000-01-01 08:05:35.965479,-0.3876356139892576,-0.40709089667968734,1.9007557251908396,,,0.0009248267228685022,0.0018009841808585625,3.141506620261006,0.021616136297950915,0.03373038285475267,0.0006684409924070074,0.0013900126591344195,3.141140437671354,,,,
2000-01-01 08:05:35.977345,-0.5600181335205074,-0.3089286286132811,2.106862595419847,,,0.0012534648582076414,0.002235892202248415,3.1419429652999056,0.027695008048974155,0.036650588771524446,0.0009249452228312483,0.0017902685502343243,3.1415340966278755,,,,
2000-01-01 08:05:35.989040,-0.3828472106689449,-0.3161112335937497,2.1221297709923665,,,0.001622163792723911,0.0026983604175166804,3.142376127496595,0.03152612845089094,0.03954400459043978,0.0012488390994606735,0.0022188981883614614,3.1419641425385594,,,,
2000-01-01 08:05:36.000974,-0.5001630920166011,-0.28259241035156224,2.1526641221374048,,,0.0020605983035127725,0.0032003321794113193,3.1428244709503574,0.03674070951599382,0.042065116306239186,0.0016250469323120281,0.002690785000990779,3.1424061264881566,,,,
2000-01-01 08:05:36.013017,-0.47143267209472617,-0.3017460236328122,2.160297709923664,,,0.0025611510876312853,0.0037397915593701918,3.1432785439023174,0.04156379760530991,0.04479443766231825,0.0020675152701034425,0.003197375165857406,3.1428585949363836,,,,
2000-01-01 08:05:36.024754,-0.34932838742675765,-0.32808224189453106,2.5572442748091606,,,0.0030863076450134085,0.004299442538948996,3.1438024090591425,0.044742357287305905,0.04768121759600441,0.0025553639706529037,0.003723143008654668,3.1433011434679208,,,,
2000-01-01 08:05:36.036849,-0.37087620236816354,-0.3113228302734372,2.6564809160305347,,,0.0036697006409595876,0.004909403695279597,3.144363195605969,0.04823337952078696,0.0504299642790811,0.003096532309319418,0.004299857488545229,3.143840981031823,,,,
2000-01-01 08:05:36.048871,-0.44749065549316347,-0.3113228302734372,2.251900763358779,,,0.004301176913552737,0.005547821744341024,3.1448356792500634,0.0525287266677747,0.05310617144997307,0.0036763718875181184,0.004906103401783713,3.14439835185566,,,,
2000-01-01 08:05:36.061368,-0.4067892272705076,-0.31850543525390607,2.412206106870229,,,0.00500657172741865,0.006247195170374879,3.1453618125032143,0.056445365716137334,0.055963537055622306,0.0043328206659133135,0.0055697684777347625,3.14488952044653,,,,
2000-01-01 08:05:36.075680,-0.47143267209472617,-0.31850543525390607,2.3740381679389313,,,0.0058926332200226255,0.007096491296920814,3.145954838187426,0.06190923309469971,0.05934043212987046,0.0051406818280846115,0.006370733579322298,3.1454920803363855,,,,
2000-01-01 08:05:36.087862,-0.43551964719238256,-0.23470837714843729,2.3206030534351147,,,0.006694883287507171,0.00783934486348693,3.1464482257823727,0.06585666941423067,0.0609808135135735,0.005894845178128048,0.007093604415399893,3.145996828867272,,,,
2000-01-01 08:05:36.100337,-0.3541167907470699,-0.27301560371093725,2.1373969465648854,,,0.007553843745932349,0.008626831579684047,3.1469136235913484,0.06885118031235718,0.06312210225588251,0.006716447287108165,0.00785437724882303,3.146502118059486,,,,
2000-01-01 08:05:36.115156,-0.3732704040283199,-0.2945634186523436,2.6183129770992366,,,0.008633658091549177,0.009607372008978833,3.147590804352081,0.07286910035763146,0.06616979968550178,0.00773672188702846,0.008789755223943813,3.147054918317867,,,,
2000-01-01 08:05:36.129841,-0.3996066222900385,-0.34723585517578104,2.7175496183206107,,,0.009766280497706007,0.010633573433113374,3.1482873070091677,0.07712891486192663,0.06988189695260305,0.008806789784772022,0.009761445255741524,3.1477259868177168,,,,
2000-01-01 08:05:36.143529,-0.5025572936767575,-0.25146778876953113,2.6870152671755725,,,0.01089289188627028,0.01161787726383708,3.148929263215608,0.08230310818791034,0.07190701735499641,0.009862573895290157,0.01071802809562074,3.1483752380017727,,,,
2000-01-01 08:05:36.157091,-0.5791717468017574,-0.23710257880859364,2.801519083969466,,,0.012090820804387857,0.012617153904196234,3.14959239120427,0.08832927040312617,0.07368164774961047,0.01097877549980118,0.011693237050840232,3.1490112625927966,,,,
2000-01-01 08:05:36.170678,-0.6486035949462887,-0.19400694892578096,2.6717480916030536,,,0.013383907929268274,0.01363429897740296,3.1502259304503473,0.09517593226699017,0.0748655900523166,0.01217884194084173,0.012694296749186262,3.149675573833032,,,,
2000-01-01 08:05:36.183764,-0.701276031469726,-0.14133451240234352,2.816786259541985,,,0.014721981492802766,0.014619239330509378,3.150869288470122,0.10224887362247054,0.07526420402808714,0.013424355894583921,0.013674020665141468,3.1502858049273255,,,,
2000-01-01 08:05:36.197688,-0.7635252746337886,-0.14133451240234352,2.480908396946565,,,0.016262047305921654,0.015674562773451826,3.1514722083863056,0.11060321390741495,0.07579037435088032,0.014848093859628023,0.01472201758566758,3.1509703511756273,,,,
2000-01-01 08:05:36.211231,-0.7898614928955072,-0.1509113190429685,2.4732748091603054,,,0.017871671625709587,0.016709073611849017,3.15205681662725,0.11885277708211293,0.07638707029553975,0.016345994264841818,0.015748447365063693,3.151556763768563,,,,
2000-01-01 08:05:36.224685,-0.7922556945556636,-0.07669106757812472,2.030526717557252,,,0.019579078719384694,0.01773135058480572,3.152533608150186,0.1269096457961309,0.0759846957553775,0.017945006486647045,0.01677613777322367,3.1521375177437267,,,,
2000-01-01 08:05:36.238346,-0.8114093078369136,-0.047960647656249744,1.595412213740458,,,0.021426411284543975,0.01875907004744909,3.1529140021240685,0.13522647830881845,0.07523002963503286,0.019678722578673185,0.017814166750078828,3.1526216560250524,,,,
2000-01-01 08:05:36.251177,-0.8066209045166013,-0.026412832714843626,0.9160229007633587,,,0.023256880193857587,0.01971080024432277,3.1531191387834534,0.14266018299440192,0.07417443877711632,0.02141380982631801,0.018779441204402732,3.1529789369746837,,,,
2000-01-01 08:05:36.264786,-0.7491600646728513,-0.03359543769531226,0.5801450381679389,,,0.025295452497208496,0.02070775597677044,3.153256938848396,0.14979269931998876,0.07325552791058733,0.023355313645687076,0.019788902661430158,3.1531965170743304,,,,
2000-01-01 08:05:36.279059,-0.6462093932861324,-0.04556644599609361,0.09159541984732822,,,0.027519529538605356,0.02174300206952854,3.1532797557648857,0.15582746276625387,0.07253335607108907,0.025493258380282328,0.02083445608884968,3.153341034353794,,,,
2000-01-01 08:05:36.293457,-0.5911427551025388,-0.14851711738281237,0.16793129770992365,-7.28357,112.796639,0.029837969747408027,0.022798018739266408,3.153321955229889,0.16102672740965862,0.07327593829916397,0.027736840306864498,0.021878781163946048,3.1533640513718666,-7.283564,112.796639,0.6671695598618471,0.004357298474945534
2000-01-01 08:05:36.314400,-0.634238384985351,-0.13415190742187488,-0.21374809160305347,-7.28357,112.796639,0.033414842057425974,0.02436278370518414,3.1532438249370323,0.1707904559621309,0.0747152536740448,0.0014145839763152895,0.0010646429870469695,3.15342543447649,-7.283564,112.796639,0.6671695598618471,0.004357298474945534
2000-01-01 08:05:36.331801,-0.5648065368408197,-0.06711426093749973,0.045793893129771,-7.28357,112.796639,0.0364947031605738,0.025658778026151765,3.1532577328388727,0.17699233059138247,0.07447772728023773,0.0022073995424172327,0.0011875942399945996,3.1533605177971378,-7.283564,112.796639,0.6671695598618471,0.004357298474945534
2000-01-01 08:05:36.348690,-0.5743833434814447,-0.057537454296874735,-0.6564961832061069,-7.28357,112.796639,0.03958445603327368,0.026909379990994697,3.1530642213460656,0.1829475317523678,0.07404946353290424,0.0034228295402387227,0.0016105570026688728,3.15337401619187,-7.283564,112.796639,0.6671695598618471,0.004357298474945534
2000-01-01 08:05:36.366271,-0.6318441833251951,-0.02162442939453113,-1.1832137404580154,-7.28357,112.796639,0.04292778501358457,0.028193863650954075,3.152701161757562,0.19016989809237808,0.07306194758407718,0.004859714520857945,0.002131640702926845,3.153172575635545,-7.283564,112.796639,0.6671695598618471,0.004357298474945534
2000-01-01 08:05:36.382846,-0.6174789733642574,-0.009653421093749781,-1.4809236641221375,-7.28357,112.796639,0.04618316336555098,0.029385069863245464,3.1522727298935207,0.1963946930630091,0.0718646354259873,0.006192922774948734,0.002583589692294359,3.1528302713826895,-7.283564,112.796639,0.6671695598618471,0.004357298474945534
2000-01-01 08:05:36.400249,-0.653391998266601,-0.004865017773437286,-1.5114580152671757,-7.28357,112.796639,0.0497265965892376,0.030614151846775434,3.151813636847774,0.20360901093023676,0.07062420856300085,0.00766326133725752,0.0030570124005877453,3.152380452897086,-7.283564,112.796639,0.6671695598618471,0.004357298474945534
2000-01-01 08:05:36.415983,-0.6677572082275387,-0.06711426093749973,-1.2366488549618322,-7.28357,112.796639,0.05302796008342173,0.031721017008143365,3.1514740389253286,0.20982251447658423,0.07034827632700444,0.008835129007877442,0.0033885995329959945,3.1519653892354906,-7.283564,112.796639,0.6671695598618471,0.004357298474945534
2000-01-01 08:05:36.432169,-0.6294499816650387,-0.07190266425781222,-1.206114503816794,-7.28357,112.796639,0.056517595361647154,0.03285688574140622,3.1511333178345624,0.2155990927115547,0.07017703823060488,0.010063725016973129,0.0037245967333861215,3.151616042348919,-7.283564,112.796639,0.6671695598618471,0.004357298474945534
2000-01-01 08:05:36.447469,-0.7515542663330073,0.0095001921875002,-1.2290152671755725,-7.28357,112.796639,0.0599225825547718,0.03390849074126676,3.1508051393055543,0.2225563366978826,0.06873487127784705,0.01108135794976052,0.003978858135805113,3.1512939789097985,-7.283564,112.796639,0.6671695598618471,0.004357298474945534
2000-01-01 08:05:36.462647,-0.7683136779541013,-0.028807034374999763,-1.7022977099236642,-7.28357,112.796639,0.06340651278059352,0.034938944939673894,3.150354173628704,0.22952967527523482,0.06788879289068026,0.012050641455203175,0.004185065849770243,3.1509683932624757,-7.283564,112.796639,0.6671695598618471,0.004357298474945534
2000-01-01 08:05:36.480626,-0.9215425842041012,0.01189439384765656,-2.1450458015267175,-7.28357,112.796639,0.06774246184005281,0.0361336537585094,3.1496810996262785,0.24117666890634562,0.06645278560438507,0.013495869303035745,0.004508938875667211,3.150434245072203,-7.283564,112.796639,0.6671695598618471,0.004357298474945534
2000-01-01 08:05:36.498068,-0.9574556091064448,-0.1006330841796872,-2.3816870229007634,-7.28357,112.796639,0.07215034854670672,0.03730169395922311,3.148956036448486,0.25270662719061426,0.06696440248789343,0.014774641062519299,0.004729689417628573,3.1497812231971998,-7.283564,112.796639,0.6671695598618471,0.004357298474945534
2000-01-01 08:05:36.515136,-0.9598498107666011,-0.07669106757812472,-2.3129847328244275,-7.28357,112.796639,0.07665099811061062,0.038445467606925854,3.148267037871044,0.26369810393764614,0.06701498038239631,0.015929582265347055,0.004900063424012856,3.1490717593830193,-7.283564,112.796639,0.6671695598618471,0.004357298474945534
2000-01-01 08:05:36.531505,-0.8904179626220698,-0.12696930244140603,-1.9313053435114507,-7.28357,112.796639,0.08111470656260066,0.03955525825595053,3.147715282077204,0.27269503342775053,0.06779887203400688,0.0168970069396759,0.005004125295183245,3.148410961373173,-7.283564,112.796639,0.6671695598618471,0.004357298474945534
2000-01-01 08:05:36.558893,-0.9598498107666011,-0.08866207587890607,-1.725198473282443,-7.28357,112.796639,0.08913928212207647,0.04144394143014908,3.146890604962467,0.2929911893085265,0.06895910261347024,0.020132521323823156,0.005666949564549432,3.147487761322264,-7.283564,112.796639,0.6671695598618471,0.004357298474945534
2000-01-01 08:05:36.574331,-0.9287251891845698,-0.26343879707031226,-1.740465648854962,-7.28357,112.796639,0.09378869711526688,0.042549832218214595,3.146421641011835,0.30116304240914993,0.071633406524016,0.020438422616219316,0.005579189949078383,3.147022911072454,-7.283564,112.796639,0.6671695598618471,0.004357298474945534
2000-01-01 08:05:36.589499,-0.9574556091064448,-0.15809392402343736,-1.2595496183206107,-7.28357,112.796639,0.09848099659206391,0.043651230549364435,3.1460882048060537,0.3093610372021702,0.07261465978080271,0.02076231270809101,0.005533708852726639,3.1465621636324124,-7.283564,112.796639,0.6671695598618471,0.004357298474945534
2000-01-01 08:05:36.605978,-0.9598498107666011,-0.1700649323242185,-0.6641297709923666,-7.28357,112.796639,0.10373228696412404,0.04487028340466555,3.145897191018402,0.3186629948956249,0.0739755386358338,0.02147095484057051,0.0055872329385523965,3.1461998980725188,-7.283564,112.796639,0.6671695598618471,0.004357298474945534
2000-01-01 08:05:36.619838,-0.9359077941650384,-0.06472005927734359,-1.0916106870229008,-7.28357,112.796639,0.1082368399994053,0.04588799097115351,3.1456331232178996,0.32499853466288786,0.07342647877233172,0.021551692126625242,0.005504503880631024,3.1460392407154965,-7.283564,112.796639,0.6671695598618471,0.004357298474945534
2000-01-01 08:05:36.634902,-0.8760527526611326,0.014288595507812696,-1.0610763358778628,-7.28357,112.796639,0.11322945274050797,0.04696950378051493,3.1453541532443916,0.3314319836418271,0.07179566177638999,0.022031388928786443,0.0055061990044936475,3.145752242886836,-7.283564,112.796639,0.6671695598618471,0.004357298474945534
2000-01-01 08:05:36.648737,-0.9550614074462889,0.04062481376953153,-1.374053435114504,-7.28357,112.796639,0.11790243248108614,0.04793595483873425,3.1450223553270065,0.3377545686339139,0.06985334377552152,0.02221365648061773,0.005423725512445109,3.145496020741879,-7.283564,112.796639,0.6671695598618471,0.004357298474945534
2000-01-01 08:05:36.664366,-1.0292816589111324,-0.06232585761718723,-1.1984809160305345,-7.28357,112.796639,0.12332168235744996,0.04902148694327095,3.1446954530322175,0.3467605616127087,0.06945974642349209,0.022937165222936283,0.005435106945392393,3.145121228607024,-7.283564,112.796639,0.6671695598618471,0.004357298474945534
2000-01-01 08:05:36.680818,-1.0436468688720697,-0.019230227734374772,-0.9771068702290078,-7.28357,112.796639,0.1291893336652103,0.05014727092661227,3.1444148837700263,0.3566511607962386,0.06842808875392245,0.023879980430581704,0.005483318111929297,3.144777093367977,-7.283564,112.796639,0.6671695598618471,0.004357298474945534
2000-01-01 08:05:36.696958,-1.017310650610351,-0.004865017773437286,-0.839702290076336,-7.28357,112.796639,0.13509034611049067,0.05123154017797161,3.144178339613506,0.36560911271237007,0.06717808555849573,0.024705172264084696,0.005490696230530612,3.1445018423377245,-7.283564,112.796639,0.6671695598618471,0.004357298474945534
2000-01-01 08:05:36.712093,-1.0604062804931638,-0.009653421093749781,-1.2977175572519084,-7.28357,112.796639,0.1407511849258182,0.05223064207715829,3.143835541848153,0.3740247617218435,0.06601298181593225,0.025226553741574613,0.005427958667577014,3.14428003130728,-7.283564,112.796639,0.6671695598618471,0.004357298474945534
2000-01-01 08:05:36.728020,-1.0699830871337888,-0.019230227734374772,-1.1755801526717558,-7.28357,112.796639,0.14685519747260167,0.05326630606087581,3.143508751722698,0.38324465396310237,0.06502488027666749,0.02600970906034874,0.005403345386265947,3.143919289181466,-7.283564,112.796639,0.6671695598618471,0.004357298474945534
2000-01-01 08:05:36.742847,-0.9861860290283198,-0.11260409248046854,-0.9465725190839696,-7.28357,112.796639,0.15263615726201138,0.054235731194777315,3.143263805379021,0.3899062950224364,0.06538446486924317,0.02645922676260887,0.005315257804136407,3.143615082103518,-7.283564,112.796639,0.6671695598618471,0.004357298474945534
2000-01-01 08:05:36.757535,-1.026887457250976,-0.13894031074218738,-0.5648931297709925,-7.28357,112.796639,0.1584655812681333,0.055206590240843616,3.1431189938155075,0.3968862589634552,0.06609926029903296,0.026892652868799327,0.005242770825583419,3.1433724262112026,-7.283564,112.796639,0.6671695598618471,0.004357298474945534
2000-01-01 08:05:36.772231,-1.007733843969726,-0.1149982941406249,-0.42748854961832067,-7.28357,112.796639,0.1643948747481048,0.05618320720572977,3.1430093448396677,0.4034597560061384,0.06645406298328775,0.027360397835665316,0.005194802222385431,3.1432275335510513,-7.283564,112.796639,0.6671695598618471,0.004357298474945534
2000-01-01 08:05:36.786167,-1.0125222472900388,-0.014441824414062276,-0.6259618320610687,-7.28357,112.796639,0.1700979649865194,0.05709381536426543,3.1428570870393586,0.4092191158747635,0.065339710572052,0.027608981114396233,0.0051230940267638,3.14312355202552,-7.283564,112.796639,0.6671695598618471,0.004357298474945534
2000-01-01 08:05:36.800112,-1.0580120788330074,-0.03838384101562475,-0.923671755725191,-7.28357,112.796639,0.17589211138366284,0.05799429339852873,3.142632274536471,0.4154933093429576,0.06457251384451662,0.02791136927331715,0.005054904884214631,3.142971199151996,-7.283564,112.796639,0.6671695598618471,0.004357298474945534
2000-01-01 08:05:36.814807,-1.074771490454101,-0.03598963935546862,-0.8244351145038169,-7.28357,112.796639,0.1821027688795664,0.058931962688591785,3.1424208379176646,0.4226600723276586,0.06381214391855873,0.028501272153949,0.005029733592589025,3.142734312064726,-7.283564,112.796639,0.6671695598618471,0.004357298474945534
2000-01-01 08:05:36.829267,-1.046041070532226,-0.1197866974609374,-0.5801603053435114,-7.28357,112.796639,0.18830667184027888,0.05986094485820623,3.1422744168936636,0.42902928234865495,0.06424351832521367,0.029012206693097897,0.0049887281088630015,3.142526240894437,-7.283564,112.796639,0.6671695598618471,0.004357298474945534
2000-01-01 08:05:36.843967,-1.055617877172851,-0.05274905097656224,-0.8473358778625955,-7.28357,112.796639,0.19471099486200416,0.06079773797927088,3.142057015415779,0.43565600031325136,0.06372563389753066,0.02960665920828085,0.004973013552730196,3.14237738881454,-7.283564,112.796639,0.6671695598618471,0.004357298474945534
2000-01-01 08:05:36.858407,-1.074771490454101,-0.25386199042968727,-0.7328320610687025,-7.28357,112.796639,0.2010955216427131,0.06175144784245157,3.141872326828021,0.4421508674955576,0.06604775229677835,0.030101386541356048,0.004941189789789876,3.142163842935541,-7.283564,112.796639,0.6671695598618471,0.004357298474945534
2000-01-01 08:05:36.873365,-1.0675888854736324,0.03344220878906268,-1.1526793893129772,-7.28357,112.796639,0.20781120456404784,0.06271231785729205,3.1415713933495826,0.44895785367685537,0.06423622803196469,0.03078129910406595,0.004970526496114948,3.141972520263085,-7.283564,112.796639,0.6671695598618471,0.004357298474945534
2000-01-01 08:05:36.887182,-1.1346265319580073,-0.10542148749999969,-1.0076412213740458,-7.28357,112.796639,0.21410242745943814,0.06360175164237686,3.1413284077276526,0.4553420825536815,0.06437486617917597,0.031033870111490183,0.00491514785388224,3.14169455970296,-7.283564,112.796639,0.6671695598618471,0.004357298474945534
2000-01-01 08:05:36.901489,-1.103501910375976,-0.10781568916015605,-1.3587862595419848,-7.28357,112.796639,0.22070809716614423,0.06452583792981545,3.140989112491555,0.46170822012925217,0.06458970156893824,0.03151194790804849,0.004897519965150314,3.141442947012806,-7.283564,112.796639,0.6671695598618471,0.004357298474945534
2000-01-01 08:05:36.916765,-1.1944815734619136,-0.10781568916015605,-0.9313053435114504,-7.28357,112.796639,0.22789354574644016,0.06551723698384133,3.1407408021635113,0.47035803201163545,0.06489678449144351,0.03234582862773921,0.004934876939441855,3.141080659107771,-7.283564,112.796639,0.6671695598618471,0.004357298474945534
2000-01-01 08:05:36.932752,-1.170539556860351,-0.06232585761718723,-1.2824503816793893,-7.28357,112.796639,0.2355556372304286,0.06654920369408023,3.1403829805811085,0.47929041050026644,0.06455309874681094,0.03340426598610295,0.0050039942260088795,3.140820811899274,-7.283564,112.796639,0.6671695598618471,0.004357298474945534
2000-01-01 08:05:36.948488,-1.2232119933837886,-0.028807034374999763,-1.6030610687022901,-7.283568833333334,112.7966395,0.24324392921052268,0.067551217795793,3.139942698302046,0.488569213600541,0.06367516256640304,0.05183065116880016,0.00504129788665697,3.1404685856567096,-7.283564,112.79664,0.5402642447394655,0.002178649237472767
2000-01-01 08:05:36.963059,-1.244759808325195,-0.08387367255859357,-2.0458091603053434,-7.283568833333334,112.7966395,0.2504796830118125,0.0684773816644804,3.139422413599288,0.49657541108808856,0.06356078667939166,0.06737822103629841,0.005001603346723221,3.1400608994620165,-7.283564,112.79664,0.5402642447394655,0.002178649237472767
2000-01-01 08:05:36.978101,-1.2016641784423823,-0.03120123603515612,-1.725198473282443,-7.283568833333334,112.7966395,0.2580662231943357,0.06942055755110556,3.138969494643485,0.504358910354456,0.06270304394441958,0.08069521036878412,0.004991519018524934,3.139523810099252,-7.283564,112.79664,0.5402642447394655,0.002178649237472767
2000-01-01 08:05:36.992970,-1.2782786315673822,-0.06950846259765608,-1.7710000000000001,-7.283568833333334,112.7966395,0.2656920964650297,0.07034839422566343,3.1385099236846026,0.5129002792229975,0.06240435325392688,0.09186421351455887,0.0049638202398663255,3.1390761245449723,-7.283564,112.79664,0.5402642447394655,0.002178649237472767
2000-01-01 08:05:37.008253,-0.9933686340087888,-0.0910562775390622,-1.8473358778625955,-7.283568833333334,112.7966395,0.2736018703583117,0.07130312745966905,3.138017141234598,0.5175258759798457,0.0624669124455617,0.10150527196105759,0.004957396325383287,3.138603704921981,-7.283564,112.79664,0.5402642447394655,0.002178649237472767
2000-01-01 08:05:37.023147,-0.9119657775634762,-0.07429686591796858,-1.9313053435114507,-7.283568833333334,112.7966395,0.2813541290491416,0.07223025330362022,3.137515095378168,0.5204909459021894,0.062247743107351275,0.10946357312067187,0.004933406907893914,3.1381234870599886,-7.283564,112.79664,0.5402642447394655,0.002178649237472767
2000-01-01 08:05:37.037130,-0.8568991393798826,-0.07669106757812472,-1.8015343511450383,-7.283568833333334,112.7966395,0.28865034900013886,0.073097149145357,3.137075461652462,0.5218273429166632,0.06200059163747945,0.11576693173119404,0.0048672893875164065,3.1376521849373815,-7.283564,112.79664,0.5402642447394655,0.002178649237472767
2000-01-01 08:05:37.053531,-0.8209861144775386,-0.09823888251953106,0.35113740458015263,-7.283568833333334,112.7966395,0.2972546812745371,0.07411868092729025,3.1371759806795048,0.5245940485916402,0.06228135736272116,0.12211464289408526,0.004927694014607522,3.1371364652282314,-7.283564,112.79664,0.5402642447394655,0.002178649237472767
2000-01-01 08:05:37.069717,-0.7707078796142572,-0.03598963935546862,-1.3816870229007634,-7.283568833333334,112.7966395,0.30577379313768,0.075114886722174,3.1367856583881264,0.5263298638801548,0.061547831375036215,0.12735742470320852,0.004967631183231999,3.1372356604541203,-7.283564,112.79664,0.5402642447394655,0.002178649237472767
2000-01-01 08:05:37.089227,-0.75634266965332,0.01907699882812519,-1.6106946564885496,-7.283568833333334,112.7966395,0.3161189661802048,0.07628301533747603,3.1362372072718445,0.5302618958187674,0.05987469630174822,0.13315983171628495,0.005144659431812478,3.136765187799971,-7.283564,112.79664,0.5402642447394655,0.002178649237472767
2000-01-01 08:05:37.105149,-0.7228238464111323,0.04541321708984403,-1.8320687022900766,-7.283568833333334,112.7966395,0.32457261548614824,0.07720495594323179,3.135728081427942,0.5309311516181652,0.05790244778587064,0.1364837684696485,0.005089563993514461,3.136317581072544,-7.283564,112.79664,0.5402642447394655,0.002178649237472767
2000-01-01 08:05:37.120325,-0.73718905637207,-0.0503548493164061,-1.5648931297709925,-7.283568833333334,112.7966395,0.3326353002888585,0.07807642572908612,3.1353135880348058,0.5312807999488935,0.057424440653358805,0.13895474859595286,0.004985164591457938,3.13583232085993,-7.283564,112.79664,0.5402642447394655,0.002178649237472767
2000-01-01 08:05:37.137213,-0.7731020812744136,-0.04317224433593725,-3.4961908396946564,-7.283568833333334,112.7966395,0.34164443233229885,0.07903731588719887,3.1342830656585723,0.5334552875552157,0.05689692782094828,0.14175414082383123,0.004969349790182525,3.1353710596014386,-7.283564,112.79664,0.5402642447394655,0.002178649237472767
2000-01-01 08:05:37.152098,-0.7539484679931636,-0.007259219433593644,-1.2824503816793893,-7.283568833333334,112.7966395,0.34958959546236956,0.07986759063322854,3.133949904128999,0.533784440251288,0.05578082328943752,0.14326615869543854,0.004859811522989999,3.1344628012356783,-7.283564,112.79664,0.5402642447394655,0.002178649237472767
2000-01-01 08:05:37.165979,-0.6557861999267574,-0.03598963935546862,-0.7328320610687025,-7.283568833333334,112.7966395,0.356974989224926,0.0806322503409298,3.133772355835113,0.5320335022218977,0.05508502259674393,0.14413814183533577,0.004715260654427704,3.1341520931084594,-7.283564,112.79664,0.5402642447394655,0.002178649237472767
2000-01-01 08:05:37.178560,-0.5528355285400388,-0.06711426093749973,-1.1526793893129772,-7.283568833333334,112.7966395,0.3636202710245766,0.08132111198360428,3.133519258021011,0.5282152108969946,0.05475572125222504,0.144342679947514,0.004536512026930757,3.133991182629379,-7.283564,112.79664,0.5402642447394655,0.002178649237472767
2000-01-01 08:05:37.192000,-0.4977688903564448,-0.12457510078124989,-0.49619083969465655,-7.283568833333334,112.7966395,0.3706656726825761,0.08206362774515617,3.133402867371338,0.5242202278807861,0.05524763535430994,0.14488535412473538,0.00442656713613551,3.133720800566161,-7.283564,112.79664,0.5402642447394655,0.002178649237472767
2000-01-01 08:05:37.206542,-0.4786152770751948,-0.06232585761718723,-0.12977862595419848,-7.283568833333334,112.7966395,0.37823589024883414,0.08286309008653095,3.1333699280330602,0.520563879318409,0.05497480279166444,0.14578052597221267,0.004390942594221143,3.1335948615080227,-7.283564,112.79664,0.5402642447394655,0.002178649237472767
2000-01-01 08:05:37.220374,-0.39481821896972624,-0.0503548493164061,-0.0610763358778626,-7.283568833333334,112.7966395,0.3853661614278363,0.0836170968532548,3.133355183891046,0.5155097507851357,0.05451375279369367,0.14620149287819334,0.004328038773396182,3.133563532279378,-7.283564,112.79664,0.5402642447394655,0.002178649237472767
2000-01-01 08:05:37.234659,-0.30623275754394497,-0.08626787421874971,0.328236641221374,-7.283568833333334,112.7966395,0.3926445449180704,0.08439702788878198,3.133437022494081,0.5094964407163646,0.054596200810043204,0.14669677250291013,0.004291115301956289,3.133548304235403,-7.283564,112.79664,0.5402642447394655,0.002178649237472767
2000-01-01 08:05:37.249366,-0.2224356994384764,-0.1604881256835935,0.877854961832061,-7.283568833333334,112.7966395,0.40003530850569236,0.08521756410624519,3.133662356553546,0.5025307084041303,0.0557918869605879,0.14721394107514352,0.004279648059458668,3.133632558352595,-7.283564,112.79664,0.5402642447394655,0.002178649237472767
2000-01-01 08:05:37.264308,-0.29905015256347633,-0.002470816113281149,1.5572442748091602,-7.283568833333334,112.7966395,0.4074592256886031,0.08603456508974058,3.134068457405464,0.49685919157413955,0.05467928024698686,0.14764987499202042,0.004294594158651578,3.1338614868859196,-7.283564,112.79664,0.5402642447394655,0.002178649237472767
2000-01-01 08:05:37.278687,-0.29186754758300726,0.004711788867187705,1.9923587786259542,-7.283568833333334,112.7966395,0.4145197605374942,0.08680369865873368,3.1345684582508597,0.49103424102078697,0.053490412040591115,0.1477180257452994,0.004268271476685844,3.1342522917260145,-7.283564,112.79664,0.5402642447394655,0.002178649237472767
2000-01-01 08:05:37.293359,-0.20567628781738234,-0.03598963935546862,2.6870152671755725,-7.283568833333334,112.7966395,0.42162352487029847,0.08758012695685014,3.1352565312297505,0.4841740886784442,0.05291933206859219,0.14782044441932793,0.004244346696784601,3.13476248169649,-7.283564,112.79664,0.5402642447394655,0.002178649237472767
2000-01-01 08:05:37.307968,-0.16736906125488238,0.028653805468750182,2.870221374045802,-7.283568833333334,112.7966395,0.4285904914361021,0.08833159153469913,3.135988383230937,0.47688451816072175,0.05143728188410386,0.14779512399833386,0.004214312483147721,3.1354476196159147,-7.283564,112.79664,0.5402642447394655,0.002178649237472767
2000-01-01 08:05:37.322181,-0.13624443967285105,0.1292102751953127,2.5954122137404583,-7.283568833333334,112.7966395,0.4352596085223902,0.08902232218061888,3.136632198307348,0.46923555414529744,0.04859944325609168,0.1475357034739239,0.004154895244311854,3.1361596035479717,-7.283564,112.79664,0.5402642447394655,0.002178649237472767
2000-01-01 08:05:37.336042,-0.12187922971191378,0.20343052666015649,1.778618320610687,-7.283568833333334,112.7966395,0.4416566792140832,0.08964410750668506,3.137062502177218,0.4614939661240235,0.04485649604851445,0.14710434882820067,0.004058498319823311,3.1367875156224954,-7.283564,112.79664,0.5402642447394655,0.002178649237472767
2000-01-01 08:05:37.351179,-0.1984936828369137,0.25610296318359393,1.3969389312977099,-7.283568833333334,112.7966395,0.4485467485604719,0.09025181396863807,3.1374315503927335,0.45519268233645005,0.04014814954432603,0.14711990651717366,0.0039789225122653605,3.1372573972347824,-7.283564,112.79664,0.5402642447394655,0.002178649237472767
2000-01-01 08:05:37.365587,-0.011745953344726168,0.22737254326171896,0.28243511450381675,-7.283568833333334,112.7966395,0.45497640622184515,0.09077244911294485,3.137502575827468,0.4462415522471573,0.03613396656335479,0.14678063675866979,0.003828193704632787,3.137608692770634,-7.283564,112.79664,0.5402642447394655,0.002178649237472767
2000-01-01 08:05:37.380000,-0.21525309445800733,0.24652615654296894,-0.28245038167938935,-7.283568833333334,112.7966395,0.46132290517031893,0.09123245213193676,3.1374315259851513,0.44034252412002073,0.0319166350030578,0.1463896591250337,0.003653104541516272,3.1376797387725226,-7.283564,112.79664,0.5402642447394655,0.002178649237472767
2000-01-01 08:05:37.394317,0.005013458276367455,0.24173775322265645,-1.053442748091603,-7.283568833333334,112.7966395,0.4674997377630579,0.09163169524552418,3.1371683032899824,0.43145032934019684,0.02788703923214396,0.14595759966965455,0.0034526081539654574,3.1376091631756506,-7.283564,112.79664,0.5402642447394655,0.002178649237472767
2000-01-01 08:05:37.409111,-0.10511981809082016,0.10526825859375011,-0.9618396946564887,-7.283568833333334,112.7966395,0.47377759698214117,0.09201333267383265,3.1369199445530773,0.4243382625041325,0.025795953299284854,0.1456492040336973,0.003245694025705502,3.1373371514134294,-7.283564,112.79664,0.5402642447394655,0.002178649237472767
2000-01-01 08:05:37.424486,-0.15060964963378876,0.09808565361328148,-0.587793893129771,-7.283568833333334,112.7966395,0.4802060016314909,0.0923791172172137,3.1367622156297013,0.41811361035854394,0.023791205499466034,0.1454846459583262,0.003056376506089447,3.137079050842342,-7.283564,112.79664,0.5402642447394655,0.002178649237472767
2000-01-01 08:05:37.438214,-0.18891687619628872,0.0095001921875002,0.022893129770992338,-7.283568833333334,112.7966395,0.4858660582345046,0.0926972738801045,3.136767700900399,0.4122923220577591,0.02317530698395285,0.14471798417896292,0.002841354441852852,3.136938213453548,-7.283564,112.79664,0.5402642447394655,0.002178649237472767
2000-01-01 08:05:37.452708,-0.14342704465332012,0.04541321708984403,0.34350381679389314,-7.283568833333334,112.7966395,0.491751816282844,0.09301697081334269,3.136854596749938,0.4060806600350688,0.022057097929327536,0.14426656386218112,0.0026681234170326243,3.1369440047078596,-7.283564,112.79664,0.5402642447394655,0.002178649237472767
2000-01-01 08:05:37.467893,-0.04047637326660114,0.03104800712890654,2.1373969465648854,-7.283568833333334,112.7966395,0.49780408376753155,0.09333816238079107,3.1374210806013187,0.3985594693226006,0.02115140168490591,0.14402787828839325,0.002520338764140485,3.1370350450573903,-7.283564,112.79664,0.5402642447394655,0.002178649237472767
2000-01-01 08:05:37.482795,0.03134967653808651,0.057384225390625154,2.2900687022900765,-7.283568833333334,112.7966395,0.5036173898196443,0.09363457440023255,3.138016663909031,0.390127486261503,0.019892033036928606,0.14363120292629766,0.0023793871171475167,3.1375909226789025,-7.283564,112.79664,0.5402642447394655,0.002178649237472767
2000-01-01 08:05:37.498520,0.06486849978027376,0.17709430839843765,-0.1603129770992367,-7.283568833333334,112.7966395,0.5096138982689268,0.09389827442900428,3.137972663146285,0.38131535309600334,0.016768569648984183,0.1434344624003193,0.002257143464787179,3.138219472977599,-7.283564,112.79664,0.5402642447394655,0.002178649237472767
2000-01-01 08:05:37.513913,0.10796412966308644,0.1699117034179689,-0.3893206106870229,-7.283568833333334,112.7966395,0.5153405749449507,0.09411186062211632,3.1378680743855445,0.3720509435319964,0.01387627574740487,0.14303608745604665,0.0021080089895492457,3.1381764058109884,-7.283564,112.79664,0.5402642447394655,0.002178649237472767
2000-01-01 08:05:37.529602,0.2061263977294927,0.19145951835937514,-0.7251984732824428,-7.283568833333334,112.7966395,0.5210110852813573,0.09427922366396467,3.137669495422938,0.36142913435197316,0.010667448915381456,0.14265702555421794,0.001947942184679719,3.138069799294511,-7.283564,112.79664,0.5402642447394655,0.002178649237472767
2000-01-01 08:05:37.545039,0.22288580935058633,-0.02162442939453113,-0.12977862595419848,-7.283568833333334,112.7966395,0.5264268089621787,0.09444585840139139,3.137634529879279,0.3508300229719415,0.010794581150135941,0.14211683103700193,0.0017689811276945665,3.137874413045869,-7.283564,112.79664,0.5402642447394655,0.002178649237472767
2000-01-01 08:05:37.561182,0.17021337282714866,-0.002470816113281149,-0.2595496183206107,-7.283568833333334,112.7966395,0.5319335100177047,0.09461743604639199,3.137561402324778,0.341120808524733,0.010628633077628586,0.14170963122048352,0.0016258841362620496,3.137837848193245,-7.283564,112.79664,0.5402642447394655,0.002178649237472767
2000-01-01 08:05:37.577996,0.23246261599121132,0.028653805468750182,-0.2748167938931298,-7.283568833333334,112.7966395,0.5374900415736428,0.09478490006436348,3.1374807535695948,0.3304659765639638,0.00995965912928809,0.14139434158305697,0.0015082036503195485,3.1377616798000063,-7.283564,112.79664,0.5402642447394655,0.002178649237472767
2000-01-01 08:05:37.593645,0.20133799440918,-7.661445312479032e-05,-0.3740534351145038,-7.283568833333334,112.7966395,0.542509818493766,0.0949378655576211,3.1373785883337924,0.3207689265310302,0.009774652907749176,0.14066462531131782,0.0013910866896782908,3.13768661907361,-7.283564,112.79664,0.5402642447394655,0.002178649237472767
2000-01-01 08:05:37.607466,0.2564046325927738,-0.01204762275390614,-0.46565648854961833,-7.283568833333334,112.7966395,0.5468066219598418,0.09507272568786201,3.137266258811001,0.3108813021161499,0.00975736805833908,0.1394830621521707,0.0012779552275181804,3.1375963867996095,-7.283564,112.79664,0.5402642447394655,0.002178649237472767
2000-01-01 08:05:37.624039,0.31865387575683624,0.01189439384765656,0.22136641221374045,-7.283568833333334,112.7966395,0.5517699786682195,0.09522836282709912,3.137330289157148,0.29948752214202984,0.009391100402821729,0.13905662686459394,0.0012038317908264432,3.1374616954259307,-7.283564,112.79664,0.5402642447394655,0.002178649237472767
2000-01-01 08:05:37.640439,0.28513505251464877,0.026259603808594045,0.030526717557251892,-7.283568833333334,112.7966395,0.5565082192237562,0.09537269664402112,3.1373390270576937,0.28891326643721016,0.008800725504651665,0.13848392255944522,0.001134850272471284,3.1375250588612698,-7.283564,112.79664,0.5402642447394655,0.002178649237472767
2000-01-01 08:05:37.653439,0.2683756408935549,-0.014441824414062276,0.2671679389312977,-7.283568833333334,112.7966395,0.5601443418221407,0.0954873897435428,3.1373996422583197,0.27971688202950723,0.008823023789890095,0.13710541223187103,0.001046787517747762,3.13753198477879,-7.283564,112.79664,0.5402642447394655,0.002178649237472767
2000-01-01 08:05:37.666939,0.2564046325927738,-0.02162442939453113,0.6030458015267175,-7.283568833333334,112.7966395,0.5637994335004984,0.09560817354588708,3.1375417400996892,0.2707312944805442,0.00894641175611797,0.1359940181211266,0.0009779850256815409,3.137594938516813,-7.283564,112.79664,0.5402642447394655,0.002178649237472767
2000-01-01 08:05:37.680235,0.2611930359130863,0.004711788867187705,0.7404503816793893,-7.283568833333334,112.7966395,0.5672816779563971,0.0957241001401365,3.13771356065996,0.2619132403900882,0.008719293068532825,0.13494043715283519,0.0009211869476262761,3.1377348745206977,-7.283564,112.79664,0.5402642447394655,0.002178649237472767
2000-01-01 08:05:37.693988,0.2564046325927738,-0.004865017773437286,0.7099160305343512,-7.283568833333334,112.7966395,0.5707641296591291,0.09584269367782201,3.137883961717315,0.25321951192857717,0.008623291948900996,0.13406946810226475,0.0008747453037424742,3.1379126047345967,-7.283564,112.79664,0.5402642447394655,0.002178649237472767
2000-01-01 08:05:37.707456,0.3018944641357426,0.004711788867187705,0.6870152671755725,-7.283568833333334,112.7966395,0.5740526794382995,0.09595586442175828,3.1380454553582515,0.24417025124753358,0.008402770472205353,0.13319273818245767,0.0008331632542914269,3.138079481556711,-7.283564,112.79664,0.5402642447394655,0.002178649237472767
2000-01-01 08:05:37.721319,0.3330190857177737,-0.028807034374999763,0.40457251908396946,-7.283568833333334,112.7966395,0.5773072589641756,0.09607566594091248,3.1381433451537153,0.23476384517898832,0.008641689370718826,0.13243869506784348,0.000798666291017291,3.1382457108006956,-7.283564,112.79664,0.5402642447394655,0.002178649237472767
2000-01-01 08:05:37.736732,0.37850891726074254,0.0023175872070313464,0.061061068702290056,-7.283568833333334,112.7966395,0.5807651419613626,0.0962059577410443,3.138159770839926,0.22435127442739813,0.008453476138664793,0.13197868787307038,0.000782925043823636,3.138354542522597,-7.283564,112.79664,0.5402642447394655,0.002178649237472767
2000-01-01 08:05:37.752781,0.2803466491943363,0.1794885100585939,-0.4580229007633588,-7.283568833333334,112.7966395,0.5842228233700616,0.0962938602400575,3.1380314747914855,0.21544491845340197,0.005477123104547021,0.1315525829979552,0.0007708863999658585,3.13837164623906,-7.283564,112.79664,0.5402642447394655,0.002178649237472767
2000-01-01 08:05:37.769268,0.31386547243652374,0.0023175872070313464,-0.3358854961832061,-7.283568833333334,112.7966395,0.5876203085782171,0.09638204655747057,3.1379348201132125,0.20606456359414074,0.005348684070523312,0.13112810546154716,0.0007216158726284274,3.1382398452038323,-7.283564,112.79664,0.5402642447394655,0.002178649237472767
2000-01-01 08:05:37.785898,0.3354132873779301,-0.06711426093749973,0.030526717557251892,-7.283568833333334,112.7966395,0.5908877739860622,0.0964877369947262,3.1379436804047036,0.19648095697532952,0.006355433237416591,0.1306445027291613,0.0006784469789508458,3.138142355409907,-7.283564,112.79664,0.5402642447394655,0.002178649237472767
2000-01-01 08:05:37.801575,0.39047992556152367,-0.03120123603515612,0.1602977099236641,-7.283568833333334,112.7966395,0.593812290200759,0.09659322872771729,3.137987538902076,0.18655417412957545,0.006729291848940174,0.12994740017152523,0.0006512962001686636,3.1381507077186357,-7.283564,112.79664,0.5402642447394655,0.002178649237472767
2000-01-01 08:05:37.816397,0.3402016906982426,-0.009653421093749781,0.24426717557251906,-7.283568833333334,112.7966395,0.5964488582551215,0.09669331327765027,3.1380507290642106,0.1778819961505078,0.00675242935468486,0.12910971684433556,0.0006290292555107629,3.1381921755837143,-7.283564,112.79664,0.5402642447394655,0.002178649237472767
2000-01-01 08:05:37.831873,0.30907706911621124,0.05499002373046902,0.19083206106870226,-7.283568833333334,112.7966395,0.5990740706719057,0.09678306884326242,3.1381022733365525,0.16963393838495652,0.005799755474800653,0.12839310788151867,0.0006142183160868672,3.1382581528296307,-7.283564,112.79664,0.5402642447394655,0.002178649237472767
2000-01-01 08:05:37.847152,0.28992345583496126,0.07174943535156264,-0.2748167938931298,-7.283568833333334,112.7966395,0.6015477681725795,0.09685373463337626,3.138028985707186,0.1618961618091978,0.004624866293283318,0.127659499028844,0.0005885122218531292,3.1383090435672916,-7.283564,112.79664,0.5402642447394655,0.002178649237472767
2000-01-01 08:05:37.864249,0.29950026247558625,0.09808565361328148,-0.38168702290076334,-7.283568833333334,112.7966395,0.6041744141237498,0.09690344220159235,3.1379150923161667,0.15363415498163152,0.002907426574055765,0.12716699095671846,0.0005580666568601612,3.1382270396879677,-7.283564,112.79664,0.5402642447394655,0.002178649237472767
2000-01-01 08:05:37.881262,0.30428866579589875,0.07174943535156264,-0.29771755725190846,-7.283568833333334,112.7966395,0.6066495381654221,0.09693189023237034,3.13782668980959,0.14548365521009696,0.0016721277121595566,0.12661162663606818,0.000507295077213623,3.138113703780392,-7.283564,112.79664,0.5402642447394655,0.002178649237472767
2000-01-01 08:05:37.897884,0.4359697571044925,-0.047960647656249744,-0.09161068702290076,-7.283568833333334,112.7966395,0.6089013549367985,0.09697256078672095,3.1378001134149383,0.13547541585075507,0.0024468510642466548,0.12597792712764,0.0004465549294834279,3.138027335480432,-7.283564,112.79664,0.5402642447394655,0.002178649237472767
2000-01-01 08:05:37.913785,0.5365262268310551,-7.661445312479032e-05,-0.12977862595419848,-7.283568833333334,112.7966395,0.6108795891762838,0.09701121937467166,3.137764095346149,0.12440499855478568,0.0024311183590626714,0.1252320918704515,0.000405334146768797,3.1380019103381733,-7.283564,112.79664,0.5402642447394655,0.002178649237472767
2000-01-01 08:05:37.930031,0.45033496706542997,0.007105990527343842,0.19083206106870226,-7.283568833333334,112.7966395,0.6127437471236681,0.09704852672655401,3.137818204523739,0.1147467733393862,0.0022964246438143612,0.12449498645613565,0.00037134873075278264,3.13796511246113,-7.283564,112.79664,0.5402642447394655,0.002178649237472767
2000-01-01 08:05:37.945758,0.41442194216308637,-0.03838384101562475,0.4351068702290076,-7.283568833333334,112.7966395,0.6144118636929674,0.09709359144893523,3.13793763643621,0.10606676367531276,0.0028654287996856894,0.12370368594276021,0.00034029644885568593,3.138017493702553,-7.283564,112.79664,0.5402642447394655,0.002178649237472767
2000-01-01 08:05:37.961187,0.4814595886474613,-0.07908526923828108,0.6870152671755725,-7.283568833333334,112.7966395,0.6159034043676633,0.09715575897239835,3.1381226437113594,0.09666962864930417,0.004029197130981873,0.12290848779307344,0.0003213397727478867,3.1381346642230725,-7.283564,112.79664,0.5402642447394655,0.002178649237472767
2000-01-01 08:05:37.976560,0.47427698366699245,-0.11020989082031218,0.9160229007633587,-7.283568833333334,112.7966395,0.6172500229578263,0.09724233986108213,3.1383684211917187,0.08759639168093065,0.005632013023309367,0.12212302538551963,0.0003205352158475978,3.138318996821301,-7.283564,112.79664,0.5402642447394655,0.002178649237472767
2000-01-01 08:05:37.991178,0.3425958923583987,-0.07908526923828108,1.1602977099236642,-7.283568833333334,112.7966395,0.6184331872188074,0.09733979192484468,3.1386644464982085,0.08093996383207146,0.00666667070366131,0.12130522603986035,0.00033733322822794397,3.138552700600625,-7.283564,112.79664,0.5402642447394655,0.002178649237472767
2000-01-01 08:05:38.005308,0.3210480774169926,-0.08387367255859357,1.8320534351145037,-7.283568833333334,112.7966395,0.6194911931819488,0.09744867132225252,3.13911624684521,0.07487848682552321,0.007705745343974131,0.1205175369654194,0.0003617666377506478,3.138838840130139,-7.283564,112.79664,0.5402642447394655,0.002178649237472767
2000-01-01 08:05:38.019783,0.30428866579589875,-0.07429686591796858,1.7404503816793893,-7.283568833333334,112.7966395,0.6204909621083577,0.09757336864937002,3.1395559620997466,0.06906644717675132,0.008614391914918038,0.11981249473204714,0.000397037332797552,3.139301698394313,-7.283564,112.79664,0.5402642447394655,0.002178649237472767
2000-01-01 08:05:38.034264,0.31865387575683624,-0.12696930244140603,2.2213664122137406,-7.283568833333334,112.7966395,0.6214056607634257,0.09772180759006897,3.1401173907559787,0.06316565923434805,0.010250636636828745,0.11915553903339675,0.0004379203254131329,3.139741580222746,-7.283564,112.79664,0.5402642447394655,0.002178649237472767
2000-01-01 08:05:38.048886,0.3210480774169926,-0.08626787421874971,1.6183129770992366,-7.283568833333334,112.7966395,0.6222435653486784,0.09788684572507018,3.1405303968739275,0.05730308009137046,0.011286718839535748,0.11854262513808862,0.000493514509318982,3.140308490289855,-7.283564,112.79664,0.5402642447394655,0.002178649237472767
2000-01-01 08:05:38.063425,0.3354132873779301,0.06217262871093765,1.5038091603053434,-7.283568833333334,112.7966395,0.6229905133763993,0.09803482380393827,3.1409119780357253,0.05137756915079787,0.010178424331669425,0.11795482888948601,0.000552276941906374,3.1407191260023204,-7.283564,112.79664,0.5402642447394655,0.002178649237472767
2000-01-01 08:05:38.077696,0.32344227907714873,0.028653805468750182,0.7022824427480916,-7.283568833333334,112.7966395,0.6236444962687303,0.09817148775740585,3.141086898488457,0.045826318966785816,0.009576406349934542,0.11738086077708604,0.0005859624083318365,3.1410936860982748,-7.283564,112.79664,0.5402642447394655,0.002178649237472767
2000-01-01 08:05:38.091328,0.5341320251708987,-0.004865017773437286,0.19846564885496182,-7.283568833333334,112.7966395,0.6241594500533139,0.09830035811491715,3.141134119943733,0.037773880594170924,0.00945314636476798,0.11681326077265335,0.0006023503404284827,3.1412607820121146,-7.283564,112.79664,0.5402642447394655,0.002178649237472767
2000-01-01 08:05:38.105389,0.5461030334716801,-0.13654610908203102,0.14503053435114505,-7.283568833333334,112.7966395,0.6245741491829233,0.09845711231338819,3.1411697101193736,0.029494416395931904,0.011148741994876487,0.11625874865205,0.0006182505495933037,3.141309485047879,-7.283564,112.79664,0.5402642447394655,0.002178649237472767
2000-01-01 08:05:38.118773,0.5197668152099613,-0.18203594062499984,0.28243511450381675,-7.283568833333334,112.7966395,0.6248697886727014,0.09863534628179388,3.1412356901373886,0.022087475076530343,0.01331600977226473,0.11568211608274283,0.0006458981280161934,3.141343365811204,-7.283564,112.79664,0.5402642447394655,0.002178649237472767
2000-01-01 08:05:38.135206,0.3330190857177737,-0.21316056220703095,0.12976335877862594,-7.283568833333334,112.7966395,0.6251373694699329,0.09890621239240922,3.141272905402007,0.016284081893060996,0.01648401519447498,0.11516070524207507,0.0007265284707567505,3.141424366315681,-7.283564,112.79664,0.5402642447394655,0.002178649237472767
2000-01-01 08:05:38.153656,0.36893211062011755,-0.24428518378906228,0.29770229007633586,-7.283568833333334,112.7966395,0.6253087465549391,0.099285780148262,3.14136876959605,0.009288719947658996,0.020572753849510083,0.11465819357972677,0.0008637449012048675,3.141466151885427,-7.283564,112.79664,0.5402642447394655,0.002178649237472767
2000-01-01 08:05:38.173187,0.2755582458740238,-0.2155547638671873,0.5190763358778626,-7.283568833333334,112.7966395,0.6253835278014104,0.09976013664064337,3.141545712575338,0.003828846558181995,0.024287348886352606,0.11412619612201512,0.0010575548973391904,3.141567632778518,-7.283564,112.79664,0.5402642447394655,0.002178649237472767
2000-01-01 08:05:38.187515,0.31386547243652374,-0.17245913398437485,0.45800763358778623,-7.283568833333334,112.7966395,0.6253741378711648,0.10013588544591413,3.1416602545461734,-0.0006553115139553193,0.026223040215347857,0.11358417412312256,0.001176581063745547,3.141697447266673,-7.283564,112.79664,0.5402642447394655,0.002178649237472767
2000-01-01 08:05:38.202037,0.3306248840576176,-0.18443014228515597,0.7480839694656488,-7.283568833333334,112.7966395,0.6252964755172418,0.10054716653447049,3.14184985621278,-0.005348058082824559,0.028322025265256717,0.11307884740492859,0.001304612273062906,3.1418135291694957,-7.283564,112.79664,0.5402642447394655,0.002178649237472767
2000-01-01 08:05:38.217984,0.3018944641357426,-0.11260409248046854,0.2900687022900763,-7.283568833333334,112.7966395,0.6251376481544368,0.10101782219368119,3.141930590275185,-0.009959711498169694,0.029513772047424728,0.11259095838631665,0.001470496796774298,3.142021741421966,-7.283564,112.79664,0.5402642447394655,0.002178649237472767
2000-01-01 08:05:38.233857,0.2683756408935549,-0.10542148749999969,0.0534274809160305,-7.283568833333334,112.7966395,0.6249164413195168,0.10150293766271422,3.1419453917974414,-0.013935874439107376,0.030561932082057392,0.11212161913911527,0.0016231143040796937,3.1421021019083533,-7.283564,112.79664,0.5402642447394655,0.002178649237472767
2000-01-01 08:05:38.249120,0.29471185915527376,-0.18921854560546847,0.4503740458015267,-7.283568833333334,112.7966395,0.6246406845157725,0.10200324899210525,3.1420653683316124,-0.01806677546290529,0.03277892812405976,0.11168391978417173,0.0017497326553913516,3.1421163346201393,-7.283564,112.79664,0.5402642447394655,0.002178649237472767
2000-01-01 08:05:38.264360,0.3306248840576176,-0.1700649323242185,0.4351068702290076,-7.283568833333334,112.7966395,0.6242955942171238,0.1025314495627754,3.1421810967394905,-0.02264467438978503,0.03466029031288479,0.11126539815136298,0.0018839139909920316,3.1422361237451484,-7.283564,112.79664,0.5402642447394655,0.002178649237472767
2000-01-01 08:05:38.281512,0.31386547243652374,0.023865402148437687,-0.13741221374045803,-7.283568833333334,112.7966395,0.6238244842542058,0.10310711339795367,3.1421399618614276,-0.02746722456934984,0.03356305126590476,0.11081952202516437,0.002073069185567554,3.142366374670914,-7.283564,112.79664,0.5402642447394655,0.002178649237472767
2000-01-01 08:05:38.298063,0.3425958923583987,-0.13175770576171852,-0.045809160305343544,-7.283568833333334,112.7966395,0.6232869610382212,0.10368684150639719,3.142126728694606,-0.03247604524386021,0.035025977890957335,0.11039154803193911,0.0021975973599663605,3.1423266795807696,-7.283564,112.79664,0.5402642447394655,0.002178649237472767
2000-01-01 08:05:38.314016,0.3306248840576176,-0.155699722363281,-0.16794656488549625,-7.283568833333334,112.7966395,0.6226967302055259,0.10427324934248068,3.1420799653483664,-0.03699685480613378,0.03675722169525564,0.10998083388414948,0.0023047014448238684,3.1423139243950606,-7.283564,112.79664,0.5402642447394655,0.002178649237472767
2000-01-01 08:05:38.329058,0.29950026247558625,-0.13654610908203102,-0.4198549618320611,-7.283568833333334,112.7966395,0.6220849613361126,0.1048453196680256,3.1419697445600754,-0.04067246728467435,0.03803317357840377,0.1096048963778577,0.002391203093888441,3.1422698348773577,-7.283564,112.79664,0.5402642447394655,0.002178649237472767
2000-01-01 08:05:38.344477,0.34499009401855507,-0.146122915722656,-0.23664885496183202,-7.283568833333334,112.7966395,0.6213899786925002,0.10545404981529609,3.141906058919727,-0.04507276635407647,0.039478902031268484,0.10923098404123172,0.0024922128477662298,3.1421568458155593,-7.283564,112.79664,0.5402642447394655,0.002178649237472767
2000-01-01 08:05:38.358644,0.2875292541748051,-0.2059779572265623,-0.320618320610687,-7.283568833333334,112.7966395,0.6207076116291729,0.10604268629258276,3.1418267795166477,-0.048164093081505356,0.04154822764298997,0.10890668076627469,0.0025572825455290695,3.1420983295713065,-7.283564,112.79664,0.5402642447394655,0.002178649237472767
2000-01-01 08:05:38.371880,0.2923176574951176,-0.20118955390624982,0.31296946564885497,-7.283568833333334,112.7966395,0.6200326938597707,0.10661612113764209,3.141899076144495,-0.050993187240489395,0.04332567869746494,0.1086330048393017,0.0026081562080896,3.1420242660413122,-7.283564,112.79664,0.5402642447394655,0.002178649237472767
2000-01-01 08:05:38.386806,0.2755582458740238,-0.13175770576171852,0.25953435114503814,-7.283568833333334,112.7966395,0.6192266143033204,0.10727861427719299,3.1419666872227623,-0.054004787322597315,0.04438495036604258,0.10829974751742572,0.002731684382304663,3.1421057974568796,-7.283564,112.79664,0.5402642447394655,0.002178649237472767
2000-01-01 08:05:38.401659,0.11514673464355507,-0.0910562775390622,0.42747328244274807,-7.283568833333334,112.7966395,0.6184156196290359,0.10794435321919318,3.1420775027312,-0.054601403035890596,0.044821848332004186,0.10798538034344728,0.002846297434909546,3.1421730775238697,-7.283564,112.79664,0.5402642447394655,0.002178649237472767
2000-01-01 08:05:38.417444,0.3425958923583987,-0.1197866974609374,0.12212977099236638,-7.283568833333334,112.7966395,0.6174872966439432,0.10866692699250757,3.1421111497193284,-0.05881008661656257,0.045775691087983336,0.10767328896605421,0.0029810759761714784,3.14229084723999,-7.283564,112.79664,0.5402642447394655,0.002178649237472767
2000-01-01 08:05:38.433658,0.3330190857177737,-0.18203594062499984,0.28243511450381675,-7.283568833333334,112.7966395,0.6164670348748067,0.10944110803271466,3.1421910725049305,-0.0629270045782028,0.047749406412339955,0.1073370284110675,0.0031208045937394517,3.142325407218553,-7.283564,112.79664,0.5402642447394655,0.002178649237472767
2000-01-01 08:05:38.449399,0.2755582458740238,-0.14372871406249987,0.07632824427480916,-7.283569,112.7966405,0.6154293618798813,0.11021256996210096,3.1422120426424676,-0.06592070994884737,0.04900900219274485,0.12452418223934145,0.0032451999659750927,3.142403002389943,-7.283564,112.796641,0.5587031297338669,0.0
2000-01-01 08:05:38.464692,0.17500177614746137,-0.09823888251953106,0.4885419847328244,-7.283569,112.7966405,0.6144012801628206,0.11096955487934729,3.142342439949864,-0.0672261549692824,0.049499163842444134,0.13938577752625717,0.003348060173878285,3.142423375250092,-7.283564,112.796641,0.5587031297338669,0.0
2000-01-01 08:05:38.479646,0.28274085085449263,-0.13894031074218738,0.23663358778625954,-7.283569,112.7966405,0.6133540746161529,0.11172537686642366,3.1424042018535276,-0.07002691856592719,0.05054202100796114,0.15180660543623825,0.0034275564389244385,3.1425508858172906,-7.283564,112.796641,0.5587031297338669,0.0
2000-01-01 08:05:38.494393,0.2516162292724613,-0.20118955390624982,0.5190763358778626,-7.283569,112.7966405,0.6122883554073171,0.11249865541095336,3.1425378060175477,-0.07226556419495471,0.052435397463969254,0.16216295636807943,0.0034998484812705792,3.1426117925288666,-7.283564,112.796641,0.5587031297338669,0.0
2000-01-01 08:05:38.508746,0.20133799440918,-0.14372871406249987,0.5267099236641222,-7.283569,112.7966405,0.6112311813344649,0.1132651905835614,3.142669752031942,-0.07365446778668676,0.05340533941198443,0.17080453057098505,0.0035687619390925625,3.142741826254469,-7.283564,112.796641,0.5587031297338669,0.0
2000-01-01 08:05:38.521963,0.20133799440918,-0.13175770576171852,0.877854961832061,-7.283569,112.7966405,0.6102426560141303,0.11397944906800393,3.142872257164185,-0.07479144075077951,0.054040518761669376,0.17804124810673064,0.0035921759691810154,3.142863328629443,-7.283564,112.796641,0.5587031297338669,0.0
2000-01-01 08:05:38.537224,0.20852059938964862,-0.06232585761718723,0.7328167938931298,-7.283569,112.7966405,0.6090765305684104,0.11480178599237587,3.1430674379023813,-0.07641543626795798,0.053887199756914035,0.18400884989281727,0.003709181103305227,3.143097139291135,-7.283564,112.796641,0.5587031297338669,0.0
2000-01-01 08:05:38.553070,0.23485681765136746,-0.01204762275390614,-0.0610763358778626,-7.283569,112.7966405,0.6078320912159978,0.1156414730430826,3.1430505465724914,-0.07853445508082289,0.05299122439179461,0.18898308443394063,0.0038289957210102723,3.1432998078048326,-7.283564,112.796641,0.5587031297338669,0.0
2000-01-01 08:05:38.568127,0.20373219606933635,-0.06711426093749973,-0.39695419847328245,-7.283569,112.7966405,0.6066279653143948,0.11643825248727795,3.1429462295248904,-0.079971341027771,0.05291765634377014,0.19317288679794134,0.0038826868065169624,3.1432837573308445,-7.283564,112.796641,0.5587031297338669,0.0
2000-01-01 08:05:38.582840,0.09359891970214873,-0.0910562775390622,-0.9465725190839696,-7.283569,112.7966405,0.6054549492620125,0.1172205884379841,3.142703148234902,-0.07972300907534689,0.05317077798845664,0.1966844637565399,0.00391238764381792,3.1431818188774394,-7.283564,112.796641,0.5587031297338669,0.0
2000-01-01 08:05:38.598012,0.2683756408935549,-0.06232585761718723,-0.923671755725191,-7.283569,112.7966405,0.6042090594256646,0.11802514969789792,3.1424585643928253,-0.08211961631117297,0.05303058106375569,0.19960771732152993,0.00395991912495964,3.142931171023278,-7.283564,112.796641,0.5587031297338669,0.0
2000-01-01 08:05:38.614471,0.2180974060302736,-0.155699722363281,-0.7862671755725192,-7.283569,112.7966405,0.6028265065680448,0.11892185492504076,3.1422326903246405,-0.08399682748873682,0.05447921492291946,0.2019635862657727,0.004050502460163199,3.1426658242001944,-7.283564,112.796641,0.5587031297338669,0.0
2000-01-01 08:05:38.630186,0.22288580935058633,-0.17485333564453098,-0.7022977099236642,-7.283569,112.7966405,0.6014789766865741,0.11980313933734486,3.1420400709757104,-0.08575058938079116,0.05608087717112696,0.2039652740899787,0.004111573367952116,3.1424501745272653,-7.283564,112.796641,0.5587031297338669,0.0
2000-01-01 08:05:38.645433,0.10796412966308644,-0.07190266425781222,-0.488557251908397,-7.283569,112.7966405,0.6001731167892487,0.12065745519421958,3.1419100639912916,-0.08564908584640558,0.05603309536901388,0.20564928857582568,0.004162364760727408,3.1422632903758694,-7.283564,112.796641,0.5587031297338669,0.0
2000-01-01 08:05:38.665174,0.048109088159180136,-0.08147947089843721,-1.1679465648854963,-7.283569,112.7966405,0.5984976867189215,0.12177265301093476,3.1415076351196864,-0.08486673927664604,0.05648890038995622,0.2067946429894135,0.004399178030899787,3.1420949525858446,-7.283564,112.796641,0.5587031297338669,0.0
2000-01-01 08:05:38.685121,0.036138079858398786,-0.1149982941406249,-0.9160381679389313,-7.283569,112.7966405,0.5968246695072746,0.12292172241179418,3.141188731627564,-0.08387491074656554,0.057607353210564344,0.2077847011656833,0.004601364609705688,3.1416883513642024,-7.283564,112.796641,0.5587031297338669,0.0
2000-01-01 08:05:38.703203,0.11275253298339871,-0.028807034374999763,-0.16794656488549625,-7.283569,112.7966405,0.595302270595654,0.12395177989217046,3.1411357299304528,-0.08419517071493333,0.05696658395147895,0.20876082004511004,0.004695968014776872,3.141399261929401,-7.283564,112.796641,0.5587031297338669,0.0
2000-01-01 08:05:38.721661,0.11035833132324235,-0.06232585761718723,-0.22138167938931302,-7.283569,112.7966405,0.5937424306912836,0.1250030758038752,3.1410644106918575,-0.08450693951433606,0.056955716912474544,0.2095530800546766,0.00477779308940887,3.1413451570858326,-7.283564,112.796641,0.5587031297338669,0.0
2000-01-01 08:05:38.735578,0.09120471804199237,-0.0503548493164061,-0.08397709923664126,-7.283569,112.7966405,0.5925725758125,0.12578943419991032,3.1410440130864665,-0.08406032049033732,0.05650405019442183,0.2104878922873392,0.0046460188113131035,3.14129138461479,-7.283564,112.796641,0.5587031297338669,0.0
2000-01-01 08:05:38.748893,0.1223293396240237,-0.1006330841796872,-0.26718320610687024,-7.283569,112.7966405,0.5914544680896325,0.1265442268190871,3.1409819229548845,-0.08397453187672788,0.056688059265732324,0.21129006314837726,0.0045136533506997855,3.141271869357011,-7.283564,112.796641,0.5587031297338669,0.0
2000-01-01 08:05:38.764553,0.12711774294433642,-0.05274905097656224,-0.20611450381679391,-7.283569,112.7966405,0.5901351715148254,0.1274269142630959,3.1409255874355004,-0.08424537213912006,0.05636513701547455,0.2117979416691808,0.004515892556144201,3.1411988424500827,-7.283564,112.796641,0.5587031297338669,0.0
2000-01-01 08:05:38.779948,0.16781917116699274,-0.047960647656249744,-0.12214503816793892,-7.283569,112.7966405,0.5888251261000447,0.12828850397882197,3.1408927664980166,-0.08509196771760169,0.05596322344951002,0.21223225321417585,0.004503550326422146,3.141143458528265,-7.283564,112.796641,0.5587031297338669,0.0
2000-01-01 08:05:38.793783,0.2061263977294927,-0.03359543769531226,-0.4198549618320611,-7.283569,112.7966405,0.5876327997116821,0.12905358038687795,3.140791388635796,-0.08618440436721708,0.0553016817939198,0.2126807259186949,0.00442254312055042,3.1411139654795317,-7.283564,112.796641,0.5587031297338669,0.0
2000-01-01 08:05:38.807045,0.10796412966308644,-0.047960647656249744,-0.13741221374045803,-7.283569,112.7966405,0.5864940662378308,0.12978061367996907,3.1407595820738976,-0.08586339654130697,0.05482015711041223,0.21307190157329847,0.004327450636833419,3.141016782394649,-7.283564,112.796641,0.5587031297338669,0.0
2000-01-01 08:05:38.821581,0.2276742126708986,-0.03359543769531226,0.34350381679389314,-7.283569,112.7966405,0.5852238200736445,0.13056850910799156,3.140846726636318,-0.0873889524153688,0.0542047344908508,0.21331042438359982,0.004301734222064385,3.1409819218584567,-7.283564,112.796641,0.5587031297338669,0.0
2000-01-01 08:05:38.838821,0.1558481628662114,-0.04077804267578111,0.14503053435114505,-7.283569,112.7966405,0.5837019433722226,0.13149624044598732,3.1408903665899555,-0.0882738366135469,0.053811458231139,0.21330762731492697,0.004387769535863717,3.1410852827865967,-7.283564,112.796641,0.5587031297338669,0.0
2000-01-01 08:05:38.855096,0.19654959108886771,-0.019230227734374772,0.22899999999999998,-7.283569,112.7966405,0.5822429985575066,0.13235953313073542,3.1409554147677143,-0.08964304079315123,0.053043940096094866,0.2133666581942217,0.0044089243482403504,3.1411264791707842,-7.283564,112.796641,0.5587031297338669,0.0
2000-01-01 08:05:38.872732,0.19415538942871136,-0.04077804267578111,-0.3435190839694657,-7.283569,112.7966405,0.5806344961917662,0.1332887830783487,3.1408496770768575,-0.0912053089269382,0.05269033502689205,0.21330738467273241,0.004469549288095293,3.141196967048565,-7.283564,112.796641,0.5587031297338669,0.0
2000-01-01 08:05:38.889435,0.21330900270996134,-0.06472005927734359,-0.22901526717557258,-7.283569,112.7966405,0.5790832774580923,0.13416899806625593,3.140782914923721,-0.09287193821448958,0.0526987395122401,0.21330857827223057,0.0044722841303359755,3.141096824931526,-7.283564,112.796641,0.5587031297338669,0.0
2000-01-01 08:05:38.902812,0.19415538942871136,-0.07429686591796858,-0.21374809160305347,-7.283569,112.7966405,0.577831732835916,0.13487291221123276,3.1407330103181934,-0.09355894693173325,0.0526209493193049,0.21352641486359974,0.0043385152549687556,3.1410433558386206,-7.283564,112.796641,0.5587031297338669,0.0
2000-01-01 08:05:38.918609,0.09120471804199237,-0.07190266425781222,-0.08397709923664126,-7.283569,112.7966405,0.5763611067263721,0.1357051130311954,3.140709857866309,-0.09309867894898129,0.05268286511165273,0.21351584327867187,0.004329754650852424,3.140984425577261,-7.283564,112.796641,0.5587031297338669,0.0
2000-01-01 08:05:38.934336,0.2180974060302736,-0.0503548493164061,-0.1755801526717557,-7.283569,112.7966405,0.5748733341738319,0.1365293617110109,3.1406616620052263,-0.0945974845670782,0.05240844888229321,0.21351877744111022,0.0043200407598489535,3.1409613742895877,-7.283564,112.796641,0.5587031297338669,0.0
2000-01-01 08:05:38.950126,0.2707698425537113,-0.04077804267578111,-0.23664885496183202,-7.283569,112.7966405,0.5733433418279833,0.13735038183730736,3.1405964436160403,-0.0968949103287408,0.051995470259338795,0.21349714073567622,0.004310630652566896,3.140912985909546,-7.283564,112.796641,0.5587031297338669,0.0
2000-01-01 08:05:38.966246,0.2157032043701177,-0.04556644599609361,-0.5114580152671755,-7.283569,112.7966405,0.5717576977748522,0.13818346216497648,3.1404525446550813,-0.09836382344554795,0.05167929467208864,0.21342435348087366,0.004310163567633169,3.1408464046392863,-7.283564,112.796641,0.5587031297338669,0.0
2000-01-01 08:05:38.981270,0.21330900270996134,-0.07190266425781222,-0.22138167938931302,-7.283569,112.7966405,0.5702622998235882,0.13896030973935466,3.14039449546172,-0.09953587470369175,0.05170811071515448,0.21342874084818245,0.004260922665456555,3.1407122936084804,-7.283564,112.796641,0.5587031297338669,0.0
2000-01-01 08:05:38.995902,0.16063656618652367,-0.047960647656249744,-0.09161068702290076,-7.283569,112.7966405,0.5688013168677086,0.13971188041813845,3.1403711000689207,-0.09984775760373152,0.05136449173159481,0.21344486362383677,0.004206087511998406,3.1406557575042755,-7.283564,112.796641,0.5587031297338669,0.0
2000-01-01 08:05:39.009549,0.10078152468261736,-0.026412832714843626,-0.09161068702290076,-7.283569,112.7966405,0.5674476106942936,0.1404036494689712,3.1403492805957884,-0.0991981693466558,0.05069211088856024,0.21352709030700726,0.004118925560180138,3.140633938031143,-7.283564,112.796641,0.5587031297338669,0.0
2000-01-01 08:05:39.022726,0.19654959108886771,-0.03598963935546862,0.03816030534351145,-7.283569,112.7966405,0.5661331900646049,0.141064421173701,3.1403580567258937,-0.09975174974281334,0.050146149747323156,0.2136330260389824,0.004023301524120786,3.1406128693499276,-7.283564,112.796641,0.5587031297338669,0.0
2000-01-01 08:05:39.037117,0.12951194460449234,-0.08147947089843721,-0.5648931297709925,-7.283569,112.7966405,0.5647001159066205,0.14178821168943698,3.140216172868549,-0.09958165462443096,0.05029485512447766,0.2136139048862122,0.003988143083346763,3.140622454050173,-7.283564,112.796641,0.5587031297338669,0.0
2000-01-01 08:05:39.052121,0.1558481628662114,-0.05274905097656224,-0.6259618320610687,-7.283569,112.7966405,0.5632014820157429,0.14253944763145493,3.1400522497149934,-0.0998804452873024,0.05006811927938099,0.21355077786031892,0.003985170467597356,3.140474523204375,-7.283564,112.796641,0.5587031297338669,0.0
2000-01-01 08:05:39.067369,0.14387715456543004,-0.0910562775390622,-0.32825190839694657,-7.283569,112.7966405,0.5616762339272838,0.143308408952872,3.1399648937762166,-0.10003055568715723,0.05043089636715373,0.2134763353590925,0.0039885861093497555,3.1403079393031716,-7.283564,112.796641,0.5587031297338669,0.0
2000-01-01 08:05:39.082771,0.15105975954589868,-7.661445312479032e-05,-0.6106946564885496,-7.283569,112.7966405,0.5601312018782378,0.1440697190835554,3.139800723598254,-0.10031011103883437,0.0494275208019122,0.2134020771229486,0.004001028366251163,3.14021969688342,-7.283564,112.796641,0.5587031297338669,0.0
2000-01-01 08:05:39.098700,0.1366945495849614,-0.04556644599609361,-0.21374809160305347,-7.283569,112.7966405,0.5585313513774396,0.14485269601658007,3.1397412988047786,-0.10043644541916984,0.04915423032274876,0.21329769014665545,0.004017237001042564,3.140049915700505,-7.283564,112.796641,0.5587031297338669,0.0
2000-01-01 08:05:39.113192,0.17021337282714866,-0.04077804267578111,-0.22138167938931302,-7.283569,112.7966405,0.5570699164511643,0.14555925363061342,3.139685303912068,-0.1008440108748395,0.048754893175350034,0.21332498358740573,0.003970272060227377,3.1399958515995845,-7.283564,112.796641,0.5587031297338669,0.0
2000-01-01 08:05:39.126439,0.20852059938964862,-0.06711426093749973,0.061061068702290056,-7.283569,112.7966405,0.5557249761471204,0.14620377343866256,3.1396994208398445,-0.10153238414695472,0.048656161574162624,0.2134386268955372,0.00387997563569864,3.139944669574026,-7.283564,112.796641,0.5587031297338669,0.0
2000-01-01 08:05:39.139902,0.191761187768555,-0.06232585761718723,0.08396183206106866,-7.283569,112.7966405,0.5543512785967658,0.14685689516488076,3.1397191505635047,-0.10203035443713689,0.048510125973098756,0.21350277338021387,0.0038144635168820993,3.1399590179747494,-7.283564,112.796641,0.5587031297338669,0.0
2000-01-01 08:05:39.154553,0.13430034792480505,-0.08626787421874971,0.36640458015267174,-7.283569,112.7966405,0.5528580912760532,0.14757160900995175,3.1398128443617352,-0.10191584504875939,0.048782001077868654,0.21345179847115128,0.003804835049879056,3.1399804879655147,-7.283564,112.796641,0.5587031297338669,0.0
2000-01-01 08:05:39.169825,0.16063656618652367,-0.014441824414062276,0.08396183206106866,-7.283569,112.7966405,0.5512960611862068,0.14830506851130615,3.139835223966114,-0.10228130597085959,0.048026728910604694,0.21336198911537088,0.003823185131039295,3.1400781512649565,-7.283564,112.796641,0.5587031297338669,0.0
2000-01-01 08:05:39.186189,0.191761187768555,0.0095001921875002,-0.20611450381679391,-7.283569,112.7966405,0.5496055428788612,0.1490728291441802,3.139776358715299,-0.10331105588525219,0.0469194337054512,0.213198443948266,0.0038677938338615037,3.140102130335869,-7.283564,112.796641,0.5587031297338669,0.0
2000-01-01 08:05:39.201172,0.16303076784668002,-0.07908526923828108,-0.26718320610687024,-7.283569,112.7966405,0.5480527261264744,0.14977924387872157,3.1397064882082093,-0.10363652373402993,0.04714681709212126,0.213165628785544,0.0038361659809205712,3.1400482297741155,-7.283564,112.796641,0.5587031297338669,0.0
2000-01-01 08:05:39.218542,0.14148295290527368,-0.07190266425781222,0.15266412213740457,-7.283569,112.7966405,0.5462467443547749,0.1506031534849807,3.1397527710238142,-0.10396997596582067,0.04743229599718769,0.21294280408862612,0.0038990432794104466,3.1399672284826017,-7.283564,112.796641,0.5587031297338669,0.0
2000-01-01 08:05:39.236282,0.17021337282714866,-0.05274905097656224,0.17556488549618318,-7.283569,112.7966405,0.5443867373578322,0.15144413620309935,3.1398071297054515,-0.10484812970963577,0.04740598570747278,0.2127333227131803,0.003963841240102042,3.140014496593131,-7.283564,112.796641,0.5587031297338669,0.0
2000-01-01 08:05:39.252269,0.18936698610839864,-0.03120123603515612,-0.09924427480916032,-7.283569,112.7966405,0.5426966980613919,0.15219473269979153,3.13977943895907,-0.10571703426022572,0.04695206538898183,0.2126979039177883,0.003948603876641725,3.1400634820154854,-7.283564,112.796641,0.5587031297338669,0.0
2000-01-01 08:05:39.267735,0.1366945495849614,-0.04317224433593725,-0.13741221374045803,-7.283569,112.7966405,0.5410623316003774,0.15291655963865697,3.1397423464085246,-0.10567334337750313,0.046671213457546906,0.21270003477725138,0.0039105713236913635,3.1400366923788186,-7.283564,112.796641,0.5587031297338669,0.0
2000-01-01 08:05:39.282619,0.12951194460449234,-0.08866207587890607,-0.32825190839694657,-7.283569,112.7966405,0.539492879630201,0.1536166180635207,3.139657075544028,-0.10544645671088698,0.04703468586183353,0.21274817753900568,0.003855038902329179,3.1400009964454263,-7.283564,112.796641,0.5587031297338669,0.0
2000-01-01 08:05:39.297720,0.21330900270996134,-0.07669106757812472,-0.007641221374045826,-7.283569,112.7966405,0.5378847606559606,0.15432990674832203,3.13965506162891,-0.10649204414655346,0.04723504375475758,0.21276965088458502,0.0038228219820782743,3.1399144825952794,-7.283564,112.796641,0.5587031297338669,0.0
2000-01-01 08:05:39.312821,0.20852059938964862,-0.11020989082031218,0.18319847328244274,-7.283569,112.7966405,0.5362621857462361,0.1550536763051944,3.1397033471999745,-0.10744509684491792,0.04792721104306927,0.21277188610414424,0.0037995322875192285,3.1399124686006696,-7.283564,112.796641,0.5587031297338669,0.0
2000-01-01 08:05:39.327785,0.23725101931152381,-0.0910562775390622,0.19846564885496182,-7.283569,112.7966405,0.5346345491293131,0.1557765741900332,3.1397551793931924,-0.1087728685017456,0.04831033889887061,0.2127710834406953,0.003784655729274556,3.1399603135487464,-7.283564,112.796641,0.5587031297338669,0.0
2000-01-01 08:05:39.341038,0.15824236452636775,-0.06472005927734359,0.2137328244274809,-7.283569,112.7966405,0.5331945852059001,0.15641521941650094,3.1398046179552175,-0.10865116157097382,0.048188391777908283,0.2128958384271264,0.0037140387911073027,3.140006220658789,-7.283564,112.796641,0.5587031297338669,0.0
2000-01-01 08:05:39.356623,0.18457858278808636,-0.08626787421874971,-0.02290839694656488,-7.283569,112.7966405,0.5314911902825288,0.15717184382643154,3.1397983865308836,-0.10929494857198188,0.04854730094416513,0.21279563542813873,0.0037448285339402258,3.140064359162595,-7.283564,112.796641,0.5587031297338669,0.0
2000-01-01 08:05:39.371063,0.19894379274902363,-0.08147947089843721,0.08396183206106866,-7.283569,112.7966405,0.5299039728248972,0.15787554147194066,3.1398195462712595,-0.10992218962599276,0.048734334200458584,0.21280303199721629,0.003731045531105796,3.140058585875854,-7.283564,112.796641,0.5587031297338669,0.0
2000-01-01 08:05:39.385555,0.18457858278808636,-0.0551432526367186,0.12212977099236638,-7.283569,112.7966405,0.52830486664745,0.15857909163246742,3.1398504370091125,-0.11034379831027112,0.04854736859203047,0.21279425331997934,0.003725037008013246,3.1400798226547555,-7.283564,112.796641,0.5587031297338669,0.0
2000-01-01 08:05:39.399791,0.20373219606933635,-0.06711426093749973,0.25190076335877865,-7.283569,112.7966405,0.5267249237204996,0.1592698152630619,3.1399130280538823,-0.11097778418722863,0.0485175614267846,0.21280162745634276,0.0037089951629094226,3.140110168850861,-7.283564,112.796641,0.5587031297338669,0.0
2000-01-01 08:05:39.413740,0.17021337282714866,-0.0503548493164061,2.3053358778625954,-7.283569,112.7966405,0.5251754455429266,0.15994267370303025,3.1404742629363183,-0.11108422388013253,0.04823814795646745,0.21282241191017434,0.003685510715638543,3.140171494185996,-7.283564,112.796641,0.5587031297338669,0.0
2000-01-01 08:05:39.427250,0.17260757448730502,-0.06711426093749973,0.2900687022900763,-7.283569,112.7966405,0.5236737846545356,0.16059340294213253,3.140542662351467,-0.11114699379400982,0.04816440200262393,0.2128732940372996,0.0036475090624615856,3.1407151020434516,-7.283564,112.796641,0.5587031297338669,0.0
2000-01-01 08:05:39.441136,0.14148295290527368,-0.11739249580078104,0.18319847328244274,-7.283569,112.7966405,0.5221345685719784,0.16127104023338898,3.1405870612161206,-0.11084776614500436,0.048800542590181614,0.2128782011344343,0.0036308418540936735,3.140785401325004,-7.283564,112.796641,0.5587031297338669,0.0
2000-01-01 08:05:39.455686,0.17500177614746137,-0.165276529003906,0.5190763358778626,-7.283569,112.7966405,0.5205177297841855,0.16200120074004265,3.1407188769209697,-0.11112407552448275,0.050183365156112145,0.2128261463722966,0.0036505629394648614,3.1408319232606305,-7.283564,112.796641,0.5587031297338669,0.0
2000-01-01 08:05:39.470042,0.17021337282714866,-0.1197866974609374,0.5801450381679389,-7.283569,112.7966405,0.5189200434723775,0.16273141275258474,3.140864231890798,-0.11129498079024668,0.050866638405828925,0.21279709957424245,0.0036759517530752096,3.140961977505994,-7.283564,112.796641,0.5587031297338669,0.0
2000-01-01 08:05:39.487476,0.15105975954589868,-0.07190266425781222,0.7251832061068701,-7.283569,112.7966405,0.5169734530741356,0.16362196941232515,3.1410849017196303,-0.11164948505624525,0.051079154897314,0.21250361935185652,0.003827856861325008,3.141138512904486,-7.283564,112.796641,0.5587031297338669,0.0
2000-01-01 08:05:39.504660,0.2157032043701177,-0.03120123603515612,0.12212977099236638,-7.283569,112.7966405,0.5150308627109953,0.1644911999701315,3.1411215298387845,-0.11304868683330853,0.05058471151712457,0.21228919829195322,0.00394159564147982,3.1413560036658783,-7.283564,112.796641,0.5587031297338669,0.0
2000-01-01 08:05:39.521081,0.23485681765136746,-0.01204762275390614,0.007625954198473284,-7.283568333333333,112.79664133333333,0.51314956147403,0.16530844927247962,3.141123715435929,-0.11456706478316768,0.04976866645617551,0.21216769655672696,0.0039946413465838295,3.141391006036967,-7.283564,112.796641,0.4832453088384921,0.0
2000-01-01 08:05:39.536690,0.19654959108886771,-0.06711426093749973,-0.4351221374045802,-7.283568333333333,112.79664133333333,0.5113501544949356,0.1660857931148309,3.141005177403059,-0.11528166264500936,0.04980168001694468,0.21212273314453045,0.003994026504652318,3.1413930835355166,-7.283564,112.796641,0.4832453088384921,0.0
2000-01-01 08:05:39.552931,0.19894379274902363,-0.146122915722656,0.022893129770992338,-7.283568333333333,112.79664133333333,0.5094638269493144,0.16691628328624764,3.1410116669325543,-0.11614123336502902,0.05113330027426947,0.21202025703901595,0.004017847122704606,3.14126973919715,-7.283564,112.796641,0.4832453088384921,0.0
2000-01-01 08:05:39.569776,0.17260757448730502,-0.11739249580078104,0.24426717557251906,-7.283568333333333,112.79664133333333,0.5074985896476545,0.1677930586461635,3.141083481096275,-0.11666682248046434,0.05204999680402802,0.2118726842770849,0.004078009595481891,3.1412764697411357,-7.283564,112.796641,0.4832453088384921,0.0
2000-01-01 08:05:39.585119,0.1462713562255864,-0.12457510078124989,0.5572442748091603,-7.283568333333333,112.79664133333333,0.5057106565832044,0.16860443202228434,3.141232701599907,-0.1165321441118145,0.05288289649908118,0.2118827170824795,0.004078427548078976,3.1413418803206743,-7.283564,112.796641,0.4832453088384921,0.0
2000-01-01 08:05:39.600306,0.15824236452636775,-0.1293635041015624,0.679381679389313,-7.283568333333333,112.79664133333333,0.5039405411645582,0.16942073677573716,3.1414127781205092,-0.11655628404171264,0.053750985786463985,0.21190403898077279,0.004084393368586953,3.141489583170453,-7.283564,112.796641,0.4832453088384921,0.0
2000-01-01 08:05:39.615482,0.17021337282714866,-0.08387367255859357,0.6717480916030534,-7.283568333333333,112.79664133333333,0.5021686495538595,0.17023907461142088,3.1415907041018585,-0.11675664067114346,0.05392337547715364,0.2119193339684457,0.004101440570907611,3.14166953106093,-7.283564,112.796641,0.4832453088384921,0.0
2000-01-01 08:05:39.630135,0.1319061462646487,-0.0503548493164061,0.27480152671755725,-7.283568333333333,112.79664133333333,0.5004642932242495,0.17102399638849017,3.141660981967041,-0.11631570198928853,0.05356786366814811,0.21197392736959939,0.004097322008054126,3.1418413242179115,-7.283564,112.796641,0.4832453088384921,0.0
2000-01-01 08:05:39.643983,0.16303076784668002,-0.0503548493164061,0.49617557251908395,-7.283568333333333,112.79664133333333,0.4988550493043641,0.17176046119371804,3.1417809099624643,-0.11620211946442427,0.05317949020713519,0.21209261074054994,0.0040582757796448566,3.1419077450537283,-7.283564,112.796641,0.4832453088384921,0.0
2000-01-01 08:05:39.657867,0.18936698610839864,-0.07908526923828108,0.045793893129771,-7.283568333333333,112.79664133333333,0.4972382100999735,0.1724989619596038,3.1417920066713703,-0.11645484763505577,0.053191432973702824,0.21218261731349797,0.004025918708659298,3.142027977589516,-7.283564,112.796641,0.4832453088384921,0.0
2000-01-01 08:05:39.672448,0.17260757448730502,0.03823061210937517,-0.21374809160305347,-7.283568333333333,112.79664133333333,0.4955382270413598,0.1732510438297259,3.1417376121411675,-0.11659206028363218,0.05158096976037412,0.21218599159376625,0.004030506724625437,3.1420396312014116,-7.283564,112.796641,0.4832453088384921,0.0
2000-01-01 08:05:39.686136,0.16303076784668002,-0.23470837714843729,0.030526717557251892,-7.283568333333333,112.79664133333333,0.4939442956172525,0.17398605274625467,3.1417449049774704,-0.11644762718025137,0.05369744456480522,0.21226640864937735,0.003979572067192781,3.1419885667579726,-7.283564,112.796641,0.4832453088384921,0.0
2000-01-01 08:05:39.699850,0.20133799440918,-0.08866207587890607,0.022893129770992338,-7.283568333333333,112.79664133333333,0.4923420944910787,0.17472409738452327,3.141750384770566,-0.1168248977333477,0.05381471026317303,0.21232784937077753,0.003964772889786472,3.1419958737578355,-7.283564,112.796641,0.4832453088384921,0.0
2000-01-01 08:05:39.718358,0.22049160769042997,-0.15809392402343736,-0.21374809160305347,-7.283568333333333,112.79664133333333,0.490149169535504,0.1757532213877552,3.1416813401711634,-0.1184878090969801,0.055605481675095075,0.21193477705348573,0.004156743814192135,3.1420032686635033,-7.283564,112.796641,0.4832453088384921,0.0
2000-01-01 08:05:39.736897,0.28513505251464877,-0.13175770576171852,-0.28245038167938935,-7.283568333333333,112.79664133333333,0.4879003785589989,0.17680787133307987,3.1415899471385647,-0.1212985292847733,0.056887229010925265,0.21159800905699888,0.004337072631761657,3.1419341057677492,-7.283564,112.796641,0.4832453088384921,0.0
2000-01-01 08:05:39.750542,0.2683756408935549,-0.11260409248046854,-0.09161068702290076,-7.283568333333333,112.79664133333333,0.4862294479974826,0.1775890953407443,3.1415681307151075,-0.12246115618501456,0.057255278837713336,0.21174832193577403,0.004284451028595892,3.1418668422493483,-7.283564,112.796641,0.4832453088384921,0.0
2000-01-01 08:05:39.766202,0.3210480774169926,-0.1509113190429685,0.022893129770992338,-7.283568333333333,112.79664133333333,0.4842728668835275,0.17850406808392955,3.1415743879466445,-0.12493904135841855,0.05842631137922249,0.21165925179217288,0.004338911601292916,3.1418418028910042,-7.283564,112.796641,0.4832453088384921,0.0
2000-01-01 08:05:39.781033,0.3354132873779301,-0.1293635041015624,0.22899999999999998,-7.283568333333333,112.79664133333333,0.4823847070438356,0.1793811157881219,3.141633662905067,-0.12731522680629978,0.05913775149322867,0.21163364594097392,0.004361727571415086,3.1418477286085387,-7.283564,112.796641,0.4832453088384921,0.0
2000-01-01 08:05:39.794525,0.30428866579589875,-0.1197866974609374,0.1373969465648855,-7.283568333333333,112.79664133333333,0.4806469466646997,0.1801844527676657,3.141666018800545,-0.12879260165660494,0.0595386227264819,0.21171179835109719,0.004329638983081749,3.141901656299435,-7.283564,112.796641,0.4832453088384921,0.0
2000-01-01 08:05:39.808793,0.29471185915527376,-0.11020989082031218,0.19846564885496182,-7.283568333333333,112.79664133333333,0.47878737780202707,0.18103889858399988,3.14171543908974,-0.13033759379332546,0.059888296670934336,0.21167362774529389,0.00434746529163716,3.141935869760923,-7.283564,112.796641,0.4832453088384921,0.0
2000-01-01 08:05:39.823976,0.36893211062011755,-0.0910562775390622,0.03816030534351145,-7.283568333333333,112.79664133333333,0.4767646123415296,0.181950591508571,3.141725551694823,-0.13322069360717612,0.060044709156865224,0.21152601686519892,0.004411190573000566,3.14198846380364,-7.283564,112.796641,0.4832453088384921,0.0
2000-01-01 08:05:39.838548,0.32344227907714873,-0.03359543769531226,0.14503053435114505,-7.283568333333333,112.79664133333333,0.4747948844900826,0.18281502330875823,3.1417624363768777,-0.13517519235307884,0.059322781459676587,0.21143049162032349,0.004437302970086569,3.1419981688684113,-7.283564,112.796641,0.4832453088384921,0.0
2000-01-01 08:05:39.853463,0.20852059938964862,-0.10781568916015605,0.14503053435114505,-7.283568333333333,112.79664133333333,0.47277359014360315,0.18370562852570685,3.141800190399953,-0.13551992075603245,0.05971161431089962,0.21128827436699987,0.0044670328012771845,3.1420359228914867,-7.283564,112.796641,0.4832453088384921,0.0
2000-01-01 08:05:39.869817,0.2659814392333988,-0.08866207587890607,0.3969389312977099,-7.283568333333333,112.79664133333333,0.47053195641747947,0.18468581402797127,3.141913486412524,-0.1370727388619016,0.059936960183252355,0.21101302992594473,0.004563496347832093,3.1420773181287576,-7.283564,112.796641,0.4832453088384921,0.0
2000-01-01 08:05:39.884787,0.31386547243652374,-0.1149982941406249,0.2900687022900763,-7.283568333333333,112.79664133333333,0.4684520842004463,0.18559035023263748,3.1419892740629067,-0.13893653072443185,0.06042348234750459,0.21091678245307868,0.004579388715010569,3.1421810282798734,-7.283564,112.796641,0.4832453088384921,0.0
2000-01-01 08:05:39.899258,0.30907706911621124,-0.0958446808593747,0.06869465648854961,-7.283568333333333,112.79664133333333,0.4664182821200297,0.18646690455646814,3.142006624246225,-0.1405416160915316,0.06057244333133272,0.2108658458880674,0.004575770662168506,3.1422542908219224,-7.283564,112.796641,0.4832453088384921,0.0
2000-01-01 08:05:39.913515,0.2707698425537113,-0.026412832714843626,-0.3740534351145038,-7.283568333333333,112.79664133333333,0.46440074013831706,0.18731844838135944,3.1419135490119774,-0.14151401654024598,0.059728812591109105,0.21082377142966727,0.00456592491258485,3.142271384024775,-7.283564,112.796641,0.4832453088384921,0.0
2000-01-01 08:05:39.927994,0.2923176574951176,-0.06232585761718723,-0.46565648854961833,-7.283568333333333,112.79664133333333,0.46233263838024197,0.18817877500074537,3.141795872448111,-0.1428318139370052,0.05941777823329027,0.21074836182489648,0.004559565006824858,3.142176856569389,-7.283564,112.796641,0.4832453088384921,0.0
2000-01-01 08:05:39.942587,0.31386547243652374,-0.08387367255859357,-0.1603129770992367,-7.283568333333333,112.79664133333333,0.4602244210928683,0.18904603246964605,3.1417550403753554,-0.14446411804310574,0.05942821269486563,0.21065430904067797,0.004556568988519807,3.1420582528233685,-7.283564,112.796641,0.4832453088384921,0.0
2000-01-01 08:05:39.957514,0.28513505251464877,-0.05274905097656224,0.19083206106870226,-7.283568333333333,112.79664133333333,0.4580489184432552,0.18992686111769833,3.141804755862314,-0.14574599430228186,0.0590103841717427,0.2105167381969897,0.004570005663241443,3.1420164881551167,-7.283564,112.796641,0.4832453088384921,0.0
2000-01-01 08:05:39.971962,0.25879883425292993,-0.04317224433593725,-0.3358854961832061,-7.283568333333333,112.79664133333333,0.45593229081549613,0.19077124037577958,3.141720054868756,-0.1464955978551554,0.058441004268696695,0.21044074104820695,0.0045536155459308374,3.1420646107009214,-7.283564,112.796641,0.4832453088384921,0.0
2000-01-01 08:05:39.986357,0.36893211062011755,-0.0503548493164061,-0.0610763358778626,-7.283568333333333,112.79664133333333,0.4537907421722659,0.19160589063180342,3.141704710042769,-0.148770327119517,0.05798196179740362,0.2103722747250889,0.004531210206794348,3.1419802227883777,-7.283564,112.796641,0.4832453088384921,0.0
2000-01-01 08:05:40.000702,0.23964522097167995,-0.1149982941406249,-0.05344274809160304,-7.283568333333333,112.79664133333333,0.45165099464606384,0.1924441888672675,3.1416913297812283,-0.14916402027921316,0.05843863982249239,0.21029139016964227,0.004505258552275361,3.14196493133393,-7.283564,112.796641,0.4832453088384921,0.0
2000-01-01 08:05:40.015032,0.191761187768555,-0.13894031074218738,0.03816030534351145,-7.283568333333333,112.79664133333333,0.4495177351678276,0.1932927805509985,3.141700873433677,-0.14887380119637625,0.05922067657944752,0.21021898372199654,0.004488937224146694,3.1419515656386325,-7.283564,112.796641,0.4832453088384921,0.0
2000-01-01 08:05:40.028763,0.09599312136230509,-0.16767073066406235,-0.03817557251908399,-7.283568333333333,112.79664133333333,0.4474966041335073,0.19412069262514267,3.1416917242144446,-0.14718832495766038,0.060292474528491284,0.210229980708833,0.004457620588472745,3.141960711198909,-7.283564,112.796641,0.4832453088384921,0.0
2000-01-01 08:05:40.042573,0.17260757448730502,-0.17724753730468734,0.24426717557251906,-7.283568333333333,112.79664133333333,0.4454723506480605,0.19496978893369749,3.1417505990723495,-0.14658093989422472,0.06148505405251286,0.21024545744317724,0.004449182538076248,3.141951509874981,-7.283564,112.796641,0.4832453088384921,0.0
2000-01-01 08:05:40.057327,0.23006841433105496,-0.146122915722656,0.1373969465648855,-7.283568333333333,112.79664133333333,0.44330383628184605,0.19588997022933186,3.1417859800160755,-0.1469763100062351,0.06236751458796658,0.21015426127896641,0.004502720434685344,3.1420144108593853,-7.283564,112.796641,0.4832453088384921,0.0
2000-01-01 08:05:40.073260,0.09599312136230509,-0.08147947089843721,-0.03817557251908399,-7.283568333333333,112.79664133333333,0.440985060190963,0.19688404374833676,3.14177536424028,-0.1455358552833838,0.062392112965011196,0.2099405839338924,0.00461490626372122,3.142052617887687,-7.283564,112.796641,0.4832453088384921,0.0
2000-01-01 08:05:40.090023,0.23725101931152381,-0.08866207587890607,-0.3358854961832061,-7.283568333333333,112.79664133333333,0.4385288137508578,0.19793345162420273,3.1416770910449774,-0.1465228912584597,0.06260050847124826,0.20969670656683287,0.004745570990034589,3.142041448499498,-7.283564,112.796641,0.4832453088384921,0.0
2000-01-01 08:05:40.105631,0.3330190857177737,-0.06472005927734359,-0.39695419847328245,-7.283568333333333,112.79664133333333,0.43620823649018214,0.1989063837045134,3.141568961639457,-0.14868596788587143,0.06233851830733233,0.20962318574492542,0.0047961500204706286,3.1419499540672313,-7.283564,112.796641,0.4832453088384921,0.0
2000-01-01 08:05:40.121014,0.3162596740966801,-0.0958446808593747,-0.755732824427481,-7.283568333333333,112.79664133333333,0.43389333331431,0.1998684322812435,3.141366053111384,-0.15047979247978482,0.06253776472844388,0.20956298392129885,0.004822573528242529,3.141843374877442,-7.283564,112.796641,0.4832453088384921,0.0
2000-01-01 08:05:40.136331,0.31865387575683624,-0.06472005927734359,-0.8931374045801528,-7.283568333333333,112.79664133333333,0.43156129939410004,0.2008220699568341,3.1411272912618946,-0.15225290028831392,0.06226071613907049,0.20949899743524567,0.004843264954702179,3.141641345306231,-7.283564,112.796641,0.4832453088384921,0.0
2000-01-01 08:05:40.153090,0.3162596740966801,-0.047960647656249744,-1.2595496183206107,-7.283568333333333,112.79664133333333,0.4289737567797584,0.2018578748684364,3.1407588829871536,-0.1544012396768199,0.061807508610027505,0.2092539822556392,0.00492582636904852,3.141380109698247,-7.283564,112.796641,0.4832453088384921,0.0
2000-01-01 08:05:40.169646,0.30428866579589875,-0.10781568916015605,-1.1984809160305345,-7.283568333333333,112.79664133333333,0.4263867732174859,0.20288980711912105,3.140412555915086,-0.1562484502469412,0.06232657110031221,0.2090532893897616,0.004974577500091155,3.1410161354992407,-7.283564,112.796641,0.4832453088384921,0.0
2000-01-01 08:05:40.184991,0.3066828674560551,-0.13415190742187488,-0.9618396946564887,-7.283568333333333,112.79664133333333,0.4239664877356025,0.20385809083106798,3.1401549676508083,-0.15773228210423382,0.06310396056704083,0.20901302829439417,0.004961542977377973,3.1406951728475168,-7.283564,112.796641,0.4832453088384921,0.0
2000-01-01 08:05:40.200410,0.25879883425292993,-0.06950846259765608,-1.290083969465649,-7.283568333333333,112.79664133333333,0.42152278542118804,0.20482793362486096,3.1398077900212646,-0.15848636801332933,0.0628991759861609,0.20894875527013385,0.004965284095369424,3.140436329831794,-7.283564,112.796641,0.4832453088384921,0.0
2000-01-01 08:05:40.218468,0.39287412722168,-0.057537454296874735,-1.6030610687022901,-7.283568333333333,112.79664133333333,0.4185924782466471,0.20595975927680454,3.1393025357045965,-0.16226712836045493,0.06267537408406888,0.20856151957096367,0.005093937202730043,3.140029719935788,-7.283564,112.796641,0.4832453088384921,0.0
2000-01-01 08:05:40.232616,0.3210480774169926,-0.08866207587890607,-1.3511526717557252,-7.283568333333333,112.79664133333333,0.41627978683915035,0.20684628253513304,3.13896890799768,-0.1634697386411833,0.06266280268457942,0.20868622776620588,0.005003328057885181,3.139633890804426,-7.283564,112.796641,0.4832453088384921,0.0
2000-01-01 08:05:40.247808,0.3354132873779301,-0.146122915722656,-1.0763435114503817,-7.283568333333333,112.79664133333333,0.41377025017365704,0.20781248923914453,3.138683514465074,-0.16518769105814943,0.06359957067580281,0.20863118632737732,0.004983031277809877,3.139275631354743,-7.283564,112.796641,0.4832453088384921,0.0
2000-01-01 08:05:40.260700,0.3258364807373051,-0.0910562775390622,-0.8855038167938931,-7.283568333333333,112.79664133333333,0.41163019508933296,0.20863102071038392,3.138484267194247,-0.16599705216789892,0.06349080092735379,0.2088535733170661,0.004866638307561283,3.1390334432319347,-7.283564,112.796641,0.4832453088384921,0.0
2000-01-01 08:05:40.273722,0.3354132873779301,-0.08626787421874971,-1.0229083969465649,-7.283568333333333,112.79664133333333,0.4094560910571498,0.2094557964811267,3.138251780580855,-0.1669538665776007,0.06333620744300467,0.20899676204478168,0.004781285881895237,3.138832185930571,-7.283564,112.796641,0.4832453088384921,0.0
2000-01-01 08:05:40.286265,0.29950026247558625,-0.1509113190429685,-1.0458091603053437,-7.283568333333333,112.79664133333333,0.40735786490954207,0.21025773244736734,3.1380228449234155,-0.16728949234542417,0.06393756022862036,0.20915574270942858,0.004689508946655829,3.138608263426118,-7.283564,112.796641,0.4832453088384921,0.0
2000-01-01 08:05:40.300326,0.30428866579589875,-0.15809392402343736,-0.7633664122137405,-7.283568333333333,112.79664133333333,0.40499375264130555,0.2111696533834883,3.1378355021826523,-0.16812861757642192,0.06485309872503775,0.20907269293330039,0.0047001692193593065,3.1383516045644333,-7.283564,112.796641,0.4832453088384921,0.0
2000-01-01 08:05:40.314692,0.28992345583496126,-0.18203594062499984,-0.9618396946564887,-7.283568333333333,112.79664133333333,0.4025682483468766,0.2121197450393454,3.13759433775427,-0.1688374801118662,0.06613514617090702,0.20895060991955167,0.004736318700470227,3.1381602038294973,-7.283564,112.796641,0.4832453088384921,0.0
2000-01-01 08:05:40.329234,0.27316404421386764,-0.146122915722656,-1.0076412213740458,-7.283568333333333,112.79664133333333,0.4001056193120614,0.21309277780158042,3.1373385907801454,-0.16934476852217642,0.06691142090653877,0.20881640893235248,0.004791263207484957,3.1379160816297667,-7.283564,112.796641,0.4832453088384921,0.0
2000-01-01 08:05:40.344061,0.2923176574951176,-0.1509113190429685,-1.206114503816794,-7.283568333333333,112.79664133333333,0.3975820269709275,0.21409787419556045,3.1370264596860435,-0.17019550020159396,0.0677854662720155,0.2086611607132149,0.0048613041168395175,3.1376553135551815,-7.283564,112.796641,0.4832453088384921,0.0
2000-01-01 08:05:40.358676,0.30907706911621124,-0.18921854560546847,-1.6412290076335878,-7.283568333333333,112.79664133333333,0.3950800253151257,0.21510861118872918,3.1366078408345492,-0.1712045737558097,0.06916174323602722,0.20855191327930628,0.004918412999238493,3.137347676859748,-7.283564,112.796641,0.4832453088384921,0.0
2000-01-01 08:05:40.373279,0.2468278259521488,-0.22273736884765594,-1.4274885496183207,-7.283568333333333,112.79664133333333,0.3925785697853725,0.2161452144601568,3.136244012775698,-0.1712957540288324,0.07098496731040053,0.20845076709624713,0.004982130196913726,3.136929372163617,-7.283564,112.796641,0.4832453088384921,0.0
2000-01-01 08:05:40.388681,0.2923176574951176,-0.155699722363281,-1.4274885496183207,-7.283568333333333,112.79664133333333,0.3899252339399598,0.21725326786970423,3.135860273669446,-0.17226861629295828,0.07194069607563834,0.2082592610649647,0.005101973545952125,3.136545633057365,-7.283564,112.796641,0.4832453088384921,0.0
2000-01-01 08:05:40.403470,0.3402016906982426,-0.15330552070312486,-1.3587862595419848,-7.283568333333333,112.79664133333333,0.38735585583931303,0.21832919477738685,3.1355095570165887,-0.1737401309901193,0.07275366822404239,0.20817503021280587,0.005177728854782963,3.13617718363966,-7.283564,112.796641,0.4832453088384921,0.0
2000-01-01 08:05:40.417732,0.29950026247558625,-0.146122915722656,-3.4961908396946564,-7.283568333333333,112.79664133333333,0.3848680413220763,0.21937559444946278,3.1346392915665056,-0.17443705814045965,0.0733699715840585,0.20815879141271718,0.0052208794626728665,3.135838957041071,-7.283564,112.796641,0.4832453088384921,0.0
2000-01-01 08:05:40.432033,0.28992345583496126,-0.23470837714843729,-0.8473358778625955,-7.283568333333333,112.79664133333333,0.3823654640768236,0.22045136337741994,3.134427790723952,-0.17498803441009655,0.07522113075221877,0.20812910916149624,0.005267709762476314,3.134966283845422,-7.283564,112.796641,0.4832453088384921,0.0
2000-01-01 08:05:40.445674,0.10796412966308644,-0.17724753730468734,-0.8931374045801528,-7.283568333333333,112.79664133333333,0.3800067229415687,0.22148940873380568,3.134215150391179,-0.1729140501365782,0.07609678913694212,0.20818616624799544,0.005291076029602497,3.1347645480518977,-7.283564,112.796641,0.4832453088384921,0.0
2000-01-01 08:05:40.459914,0.19415538942871136,-0.14372871406249987,-0.1450458015267176,-7.283568333333333,112.79664133333333,0.3775552980083285,0.22258020404079124,3.134179101382487,-0.17215030728462796,0.07660065161938039,0.20817149707433782,0.005358873485583195,3.134542571836647,-7.283564,112.796641,0.4832453088384921,0.0
2000-01-01 08:05:40.474500,0.37850891726074254,-0.08626787421874971,-0.3893206106870229,-7.283568333333333,112.79664133333333,0.3750157579883344,0.2236937319245817,3.134079990775921,-0.17410838641376192,0.076342385450552,0.2081212854393899,0.005442906289782977,3.1345056470580084,-7.283564,112.796641,0.4832453088384921,0.0
2000-01-01 08:05:40.488619,0.27316404421386764,-0.07908526923828108,-0.5114580152671755,-7.283568333333333,112.79664133333333,0.3725533932075678,0.224765930336537,3.133953953350907,-0.17439748819122694,0.07593867137321915,0.2081203834908111,0.005481578576027749,3.1344097076733255,-7.283564,112.796641,0.4832453088384921,0.0
2000-01-01 08:05:40.502874,0.34977849733886757,-0.059931655957031094,-0.8168015267175572,-7.283568333333333,112.79664133333333,0.3700475959429493,0.225839233931644,3.133750741968784,-0.17578904613264315,0.0752954031272449,0.2080963210405355,0.0055179003346175065,3.13428246245306,-7.283564,112.796641,0.4832453088384921,0.0
2000-01-01 08:05:40.517365,0.3306248840576176,-0.1197866974609374,-0.9160381679389313,-7.283568333333333,112.79664133333333,0.3674833964317855,0.22693369547920145,3.1335190659881,-0.17695455245641428,0.07552842611723422,0.20802675606675688,0.005554646019082461,3.1340758844944667,-7.283564,112.796641,0.4832453088384921,0.0
2000-01-01 08:05:40.531480,0.3210480774169926,-0.10542148749999969,-0.503824427480916,-7.283568333333333,112.79664133333333,0.36497299787552606,0.22799960732849714,3.133394941138238,-0.1778445365061215,0.0755125509141612,0.2080074568596086,0.005565570150782864,3.133850204487978,-7.283564,112.796641,0.4832453088384921,0.0
2000-01-01 08:05:40.545017,0.28992345583496126,-0.1149982941406249,-0.671763358778626,-7.283568333333333,112.79664133333333,0.3625619389543736,0.2290223930878978,3.133236237423319,-0.17812070695867518,0.07555987990730252,0.2080600535208659,0.005540847268371202,3.133731176250931,-7.283564,112.796641,0.4832453088384921,0.0
2000-01-01 08:05:40.560004,0.2803466491943363,-0.20118955390624982,-0.7099312977099237,-7.283568333333333,112.79664133333333,0.35988435401528895,0.23017703776331147,3.1330505286835297,-0.17865065133730185,0.077038834628462,0.2078940946377567,0.0056084096160206095,3.133555451744633,-7.283564,112.796641,0.4832453088384921,0.0
2000-01-01 08:05:40.575030,0.28513505251464877,-0.19400694892578096,-0.587793893129771,-7.283568333333333,112.79664133333333,0.35719097130799843,0.231354924014602,3.1328963805893784,-0.17925131282826778,0.07839125733401299,0.2077488794240002,0.005683517465790282,3.13336927329365,-7.283564,112.796641,0.4832453088384921,0.0
2000-01-01 08:05:40.590250,0.24443362429199245,-0.2107663605468748,-0.3358854961832061,-7.283568166666667,112.7966435,0.3544622106904885,0.23257253318526536,3.1328071545967835,-0.17928446898132563,0.07999910735606214,0.20759777803798554,0.0057732209368689825,3.133213129327472,-7.283564,112.796641,0.5391595781590464,0.0
2000-01-01 08:05:40.605816,0.16781917116699274,-0.18443014228515597,-0.8778702290076337,-7.283568166666667,112.7966435,0.35168785401032376,0.23383703477531617,3.1325686585696353,-0.17823329434263122,0.08123551153591015,0.2074286365418634,0.005887984616782312,3.133121877393223,-7.283564,112.796641,0.5391595781590464,0.0
2000-01-01 08:05:40.621601,0.2180974060302736,-0.1604881256835935,-0.49619083969465655,-7.283568166666667,112.7966435,0.34887781910897275,0.2351333641489935,3.132431958065952,-0.1780195542295553,0.08212423878641595,0.20727821111764774,0.006010839368767862,3.1328800242736694,-7.283564,112.796641,0.5391595781590464,0.0
2000-01-01 08:05:40.636988,0.25401043093261744,-0.13894031074218738,0.07632824427480916,-7.283568166666667,112.7966435,0.34613480922303447,0.23640449653581164,3.1324524560669094,-0.17827009834096055,0.08261176773882994,0.20721800775983307,0.006096573833062868,3.1327467718924074,-7.283564,112.796641,0.5391595781590464,0.0
2000-01-01 08:05:40.651708,0.2180974060302736,-0.17485333564453098,0.29770229007633586,-7.283568166666667,112.7966435,0.3435172324854842,0.23763374458488506,3.1325289380656947,-0.17782783298424154,0.08351026108652401,0.20725988374637663,0.006130304266790135,3.132766381203053,-7.283564,112.796641,0.5391595781590464,0.0
2000-01-01 08:05:40.667912,0.2659814392333988,-0.15809392402343736,0.2137328244274809,-7.283568166666667,112.7966435,0.34062522441345794,0.2390011965268831,3.1325893854070452,-0.17847232823317868,0.0843885375687676,0.20709443301599995,0.00626681201305543,3.132850576562363,-7.283564,112.796641,0.5391595781590464,0.0
2000-01-01 08:05:40.681925,0.2803466491943363,-0.20118955390624982,0.10686259541984733,-7.283568166666667,112.7966435,0.33812078858464395,0.2401992438922884,3.132615520318931,-0.17872773577217319,0.08549801536264753,0.20725847597885633,0.006245410415735684,3.132902848253047,-7.283564,112.796641,0.5391595781590464,0.0
2000-01-01 08:05:40.695479,0.2971060608154301,-0.14851711738281237,0.19083206106870226,-7.283568166666667,112.7966435,0.33569345209058704,0.24136215180368556,3.132660665033565,-0.17908193640162523,0.085796015978696,0.20744767527812585,0.006214031120871436,3.1329281284986634,-7.283564,112.796641,0.5391595781590464,0.0
2000-01-01 08:05:40.712232,0.2875292541748051,-0.13175770576171852,-0.32825190839694657,-7.283568166666667,112.7966435,0.3326744606884656,0.24280773656504062,3.1325646833207417,-0.18020133649096343,0.08628587210420753,0.20714764910593272,0.0064095202546247875,3.1329839282902703,-7.283564,112.796641,0.5391595781590464,0.0
2000-01-01 08:05:40.728042,0.3258364807373051,-0.18682434394531233,0.07632824427480916,-7.283568166666667,112.7966435,0.32980316557967604,0.24419106081848277,3.132585744296531,-0.18161929376600192,0.08750001808955685,0.20702749935703624,0.006509815872099473,3.1328933549309443,-7.283564,112.796641,0.5391595781590464,0.0
2000-01-01 08:05:40.748048,0.2803466491943363,-0.17245913398437485,2.3053358778625954,-7.283568166666667,112.7966435,0.3261328321181862,0.2459751806428651,3.133390726160042,-0.18345561311414652,0.08917631045935306,0.20632792516784584,0.006890364923933769,3.1329200073822876,-7.283564,112.796641,0.5391595781590464,0.0
2000-01-01 08:05:40.764319,0.26358723757324243,-0.11260409248046854,0.3053358778625954,-7.283568166666667,112.7966435,0.32313940079595316,0.24742690654458724,3.133477435551696,-0.18397481088090611,0.0892223570444245,0.20627833528877437,0.006961131232304555,3.133574677488293,-7.283564,112.796641,0.5391595781590464,0.0
2000-01-01 08:05:40.779010,0.24443362429199245,-0.13175770576171852,0.03816030534351145,-7.283568166666667,112.7966435,0.3204392555537145,0.24873972074431588,3.1334872199331967,-0.18379892060052175,0.08936327908757596,0.20645321050060683,0.006912188255862315,3.133652966241172,-7.283564,112.796641,0.5391595781590464,0.0
2000-01-01 08:05:40.791917,0.09120471804199237,-0.17245913398437485,-0.11451145038167937,-7.283568166666667,112.7966435,0.3180996778185319,0.24989837544944307,3.13346142320813,-0.18125883635165074,0.08976679869468973,0.20684135152004035,0.006755960631520292,3.133661562856638,-7.283564,112.796641,0.5391595781590464,0.0
2000-01-01 08:05:40.805190,0.3018944641357426,-0.1509113190429685,-0.03817557251908399,-7.283568166666667,112.7966435,0.31569017077974154,0.25109243307193213,3.1334525800245583,-0.181544244643718,0.08996624024998989,0.2071199706336151,0.006665819076036358,3.1336350368424886,-7.283564,112.796641,0.5391595781590464,0.0
2000-01-01 08:05:40.820738,0.26358723757324243,-0.1700649323242185,0.15266412213740457,-7.283568166666667,112.7966435,0.3128617921558437,0.25250407853411116,3.1334940084680394,-0.18190862117672138,0.09079070158629415,0.20701396174147035,0.006759373702542327,3.133624677142211,-7.283564,112.796641,0.5391595781590464,0.0
2000-01-01 08:05:40.835871,0.3282306823974612,-0.14372871406249987,-0.007641221374045826,-7.283568166666667,112.7966435,0.31009055357006066,0.25388342339433884,3.13349199021269,-0.18312091699442531,0.09114584971220249,0.20698229933570844,0.006817593000722032,3.1336649999081834,-7.283564,112.796641,0.5391595781590464,0.0
2000-01-01 08:05:40.850084,0.3425958923583987,-0.13654610908203102,-0.29771755725190846,-7.283568166666667,112.7966435,0.3074724513305599,0.2551804858353612,3.133418141203212,-0.18421447053030765,0.09126368986386366,0.20707080543827838,0.006805790534976397,3.133663104498874,-7.283564,112.796641,0.5391595781590464,0.0
2000-01-01 08:05:40.865987,0.2707698425537113,-0.155699722363281,-0.3358854961832061,-7.283568166666667,112.7966435,0.30453457975867415,0.25664202411377635,3.1333249094508515,-0.18473006297096228,0.09189988452518026,0.20688315755970807,0.006920660169850802,3.133580467023048,-7.283564,112.796641,0.5391595781590464,0.0
2000-01-01 08:05:40.881252,0.31865387575683624,-0.16288232734374986,-0.28245038167938935,-7.283568166666667,112.7966435,0.3016986889817834,0.2580545852694316,3.1332496595686425,-0.18578181835197374,0.09253818312379361,0.2068174906331608,0.006976418234097816,3.1334909810613962,-7.283564,112.796641,0.5391595781590464,0.0
2000-01-01 08:05:41.044342,0.3282306823974612,-0.07669106757812472,-0.41222137404580156,-7.283568166666667,112.7966435,0.2802823531831944,0.2679040192624993,3.132530197546223,-0.21416335798589045,0.09849433993067694,0.18913633579958203,0.015823194159946714,3.1326869975191576,-7.283564,112.796641,0.5391595781590464,0.0
2000-01-01 08:05:41.056390,0.3425958923583987,-0.08387367255859357,-0.8549694656488551,-7.283568166666667,112.7966435,0.2777051721413129,0.26907929224946525,3.132350422148664,-0.21391569125570525,0.09755206535177637,0.1949032172397385,0.0128965580220285,3.13260031926411,-7.283564,112.796641,0.5391595781590464,0.0
2000-01-01 08:05:41.068318,0.3473842956787112,-0.03838384101562475,-1.1297786259541986,-7.283568166666667,112.7966435,0.2751560864996678,0.2702254974274203,3.13211520822791,-0.2136939010262291,0.09608820192310204,0.19857575299744343,0.011013415499976238,3.132422319153716,-7.283564,112.796641,0.5391595781590464,0.0
2000-01-01 08:05:41.080944,0.3402016906982426,-0.1509113190429685,-1.3129847328244275,-7.283568166666667,112.7966435,0.2724592036505896,0.27143846066112876,3.131825889924097,-0.2136108041209313,0.09607464106576213,0.20092130883545686,0.00977921751052812,3.1321733706110764,-7.283564,112.796641,0.5391595781590464,0.0
2000-01-01 08:05:41.093953,0.3569611023193362,-0.13894031074218738,-1.2366488549618322,-7.283568166666667,112.7966435,0.2696768309597836,0.272686989399524,3.1315450971151666,-0.21387158498952621,0.09597018439259247,0.20246370754461807,0.008950824935366074,3.1318752450196983,-7.283564,112.796641,0.5391595781590464,0.0
2000-01-01 08:05:41.108559,0.31865387575683624,-0.11260409248046854,-1.2366488549618322,-7.283568166666667,112.7966435,0.2665491520818204,0.2740849144681608,3.131229849732835,-0.21413834183878572,0.0957097476732297,0.20327215621192585,0.00847960829526411,3.1315599976373667,-7.283564,112.796641,0.5391595781590464,0.0
2000-01-01 08:05:41.123427,0.28992345583496126,-0.1006330841796872,-1.2442824427480916,-7.283568166666667,112.7966435,0.26336649544662516,0.27550191636199056,3.1309069686934285,-0.2140639745931024,0.09530687478027029,0.20376307356678144,0.008168735399130222,3.1312390974510804,-7.283564,112.796641,0.5391595781590464,0.0
2000-01-01 08:05:41.138065,0.3258364807373051,-0.1604881256835935,-1.4351221374045802,-7.283568166666667,112.7966435,0.2602277158419153,0.2769035421081313,3.1305403291272507,-0.21443107502488779,0.0957544502572025,0.20411421029539228,0.007933926948183038,3.1309212128870274,-7.283564,112.796641,0.5391595781590464,0.0
2000-01-01 08:05:41.152162,0.3569611023193362,-0.2107663605468748,-0.9771068702290078,-7.283568166666667,112.7966435,0.25719618768502805,0.27826827005671934,3.130299914955754,-0.21504085431082492,0.09680670895287588,0.20441886893282996,0.007738101860402627,3.1305681054530585,-7.283564,112.796641,0.5391595781590464,0.0
2000-01-01 08:05:41.165540,0.3114712707763676,-0.17724753730468734,-0.4732900763358779,-7.283568166666667,112.7966435,0.2543227091024149,0.2795691240063448,3.1301894091411864,-0.21479669778949606,0.09724072223008307,0.20472812808565807,0.007560009218931252,3.1303399663138434,-7.283564,112.796641,0.5391595781590464,0.0
2000-01-01 08:05:41.178976,0.2803466491943363,-0.14372871406249987,-0.7404656488549619,-7.283568166666667,112.7966435,0.2514449997549236,0.28087557526442447,3.1300157609573307,-0.21417016212751025,0.09723111126512338,0.20493055068745125,0.0074430306804138925,3.1302289740452354,-7.283564,112.796641,0.5391595781590464,0.0
2000-01-01 08:05:41.194234,0.2707698425537113,-0.05274905097656224,-0.7786335877862596,-7.283568166666667,112.7966435,0.24818087536648234,0.28234223708192246,3.129808406389993,-0.21392601240574768,0.09612290367247318,0.20476164124359986,0.007501875574826041,3.1300317838178224,-7.283564,112.796641,0.5391595781590464,0.0
2000-01-01 08:05:41.208925,0.2923176574951176,-0.07190266425781222,-0.8626030534351146,-7.283568166666667,112.7966435,0.2450394602789583,0.2837420156499564,3.129587240355469,-0.21384310550531113,0.0952860375557914,0.20470126513630937,0.007502050234729443,3.1298321470297634,-7.283564,112.796641,0.5391595781590464,0.0
2000-01-01 08:05:41.223457,0.34977849733886757,-0.057537454296874735,-0.6564961832061069,-7.283568166666667,112.7966435,0.24192175960922413,0.28511182613866015,3.129420730021597,-0.21453729362813173,0.0942603110949053,0.20466128239102532,0.007487660982404664,3.1296133608035817,-7.283564,112.796641,0.5391595781590464,0.0
2000-01-01 08:05:41.237595,0.5461030334716801,-0.10542148749999969,-0.9618396946564887,-7.283568166666667,112.7966435,0.2388425885608913,0.2864398001467435,3.1291833918847014,-0.21779421988071634,0.09392952147590947,0.2046723895402399,0.007439784770348907,3.129451367508995,-7.283564,112.796641,0.5391595781590464,0.0
2000-01-01 08:05:41.251862,0.40963353884277387,-0.09345047919921856,-0.5801603053435114,-7.283568166666667,112.7966435,0.23571589210185384,0.2877727983894387,3.1290389239135505,-0.21914901682642024,0.09342936167456826,0.20460755776013567,0.007410872615804934,3.129211856070554,-7.283564,112.796641,0.5391595781590464,0.0
2000-01-01 08:05:41.265287,0.3617495056396487,-0.1197866974609374,-0.6183282442748093,-7.283568166666667,112.7966435,0.23276903917186306,0.2890239681696919,3.1288940432233776,-0.2195049953678764,0.09319705575525888,0.20467487449792987,0.007321817797475708,3.1290759185224517,-7.283564,112.796641,0.5391595781590464,0.0
2000-01-01 08:05:41.279668,0.36414370729980505,-0.08147947089843721,-0.31298473282442746,-7.283568166666667,112.7966435,0.22960198131159876,0.29035484540303885,3.1288154876958965,-0.22023166880601452,0.09254687694637725,0.20454885309152251,0.0073198970039138,3.1289207253251754,-7.283564,112.796641,0.5391595781590464,0.0
2000-01-01 08:05:41.296701,0.3258364807373051,-0.08147947089843721,-0.22901526717557258,-7.283568166666667,112.7966435,0.22583352096322898,0.2919239996085681,3.1287474066241736,-0.22124800796479188,0.09212575165162736,0.20396721176462823,0.007505746975810804,3.128827682025895,-7.283564,112.796641,0.5391595781590464,0.0
2000-01-01 08:05:41.314559,0.29471185915527376,-0.007259219433593644,-0.6793969465648855,-7.283568166666667,112.7966435,0.2218693655447827,0.2935397729708477,3.1285356484098923,-0.22197873153559858,0.09047761340003588,0.20333834096939238,0.0077073493190212864,3.128756301275267,-7.283564,112.796641,0.5391595781590464,0.0
2000-01-01 08:05:41.327109,0.25879883425292993,0.004711788867187705,-0.5725267175572519,-7.283568166666667,112.7966435,0.21909921751166989,0.29465238787516707,3.12841023929524,-0.22072270090952145,0.0886520733975372,0.2037516794067831,0.007464502940564601,3.1286074827713386,-7.283564,112.796641,0.5391595781590464,0.0
2000-01-01 08:05:41.339641,0.3114712707763676,-0.04317224433593725,-0.007641221374045826,-7.283568166666667,112.7966435,0.21634057003480642,0.2957484420967689,3.1284085679563445,-0.22012625009366496,0.08745963655163053,0.20409788768199166,0.0072470751144479715,3.1284822559096743,-7.283564,112.796641,0.5391595781590464,0.0
2000-01-01 08:05:41.352400,0.3306248840576176,-0.07908526923828108,0.022893129770992338,-7.283568166666667,112.7966435,0.21353574208307152,0.2968552672393239,3.128413665650973,-0.21984416761237707,0.08675364633575344,0.2043421660598617,0.007072710115124626,3.128480554411734,-7.283564,112.796641,0.5391595781590464,0.0
2000-01-01 08:05:41.366919,0.35456690065918006,-0.07669106757812472,0.27480152671755725,-7.283568166666667,112.7966435,0.2103345802233261,0.2981064727498572,3.128483302583763,-0.22047761819727518,0.08617583956208491,0.2042338626383923,0.007042826348170888,3.1284863557162548,-7.283564,112.796641,0.5391595781590464,0.0
2000-01-01 08:05:41.380787,0.3354132873779301,-0.04077804267578111,2.106862595419847,-7.283568166666667,112.7966435,0.20727503890914867,0.29928613686553046,3.1289932514235526,-0.2206191944198058,0.08506390996578556,0.20425375609081814,0.006963951642580127,3.1285528691756643,-7.283564,112.796641,0.5391595781590464,0.0
2000-01-01 08:05:41.394896,0.30428866579589875,-0.04317224433593725,-1.5267251908396948,-7.283568166666667,112.7966435,0.204165326395138,0.30047149320534366,3.1286172972169584,-0.22040606035004834,0.08401410734660966,0.20422706875764768,0.00690027778926495,3.1290716815069315,-7.283564,112.796641,0.5391595781590464,0.0
2000-01-01 08:05:41.409424,0.27795244753418014,0.007105990527343842,0.28243511450381675,-7.283568166666667,112.7966435,0.20096976726703958,0.30166692394205297,3.1286889126351993,-0.21995628875154513,0.08228372493378579,0.20413679711075952,0.006860518629979888,3.1286845587397325,-7.283564,112.796641,0.5391595781590464,0.0
2000-01-01 08:05:41.424383,0.3210480774169926,-0.04317224433593725,0.6259465648854962,-7.283568166666667,112.7966435,0.19767489392408605,0.3028835797389521,3.1288523408081046,-0.22025533026015745,0.08133087268196239,0.20399766639749453,0.0068309262231921,3.1287582996264423,-7.283564,112.796641,0.5391595781590464,0.0
2000-01-01 08:05:41.438684,0.3354132873779301,-0.059931655957031094,0.5419770992366412,-7.283568166666667,112.7966435,0.19452112439808827,0.30403622571427896,3.12898761073031,-0.22053982007136688,0.08060333322047362,0.20400083176854242,0.006747944535475933,3.1289145271557164,-7.283564,112.796641,0.5391595781590464,0.0
2000-01-01 08:05:41.452888,0.2707698425537113,-0.03120123603515612,1.244267175572519,-7.283568166666667,112.7966435,0.19139773911749489,0.3051650561080548,3.12929607587174,-0.21989253104720832,0.07947190311507848,0.2040203652274918,0.006661644025597728,3.1290488882044127,-7.283564,112.796641,0.5391595781590464,0.0
2000-01-01 08:05:41.466395,0.24443362429199245,-0.08147947089843721,0.9312900763358778,-7.283568166666667,112.7966435,0.18844352733545727,0.30623210970476233,3.129515619843964,-0.21871695501959293,0.07899999415533056,0.20416839636377646,0.006530667657833788,3.1293422139523988,-7.283564,112.796641,0.5391595781590464,0.0
2000-01-01 08:05:41.480934,0.27316404421386764,-0.009653421093749781,0.7557175572519084,-7.283568166666667,112.7966435,0.1852706133159495,0.30736040068760173,3.1297073873754515,-0.21823284051191874,0.07760378774689486,0.20412615078491303,0.0064797418443964085,3.129578533986681,-7.283564,112.796641,0.5391595781590464,0.0
2000-01-01 08:05:41.495894,0.24922202761230494,-0.0551432526367186,0.6183129770992366,-7.283568166666667,112.7966435,0.18201653979148105,0.3085109003513777,3.12986883407568,-0.21751234850190967,0.07690295930220105,0.20403080212657165,0.006442682306585604,3.129775858174337,-7.283564,112.796641,0.5391595781590464,0.0
2000-01-01 08:05:41.510208,0.2611930359130863,-0.04317224433593725,0.6030458015267175,-7.283568166666667,112.7966435,0.17891303596891656,0.3095989345480792,3.130019488929033,-0.2168187435476349,0.0760128618983757,0.204079724811182,0.006360087432672935,3.12993032712289,-7.283564,112.796641,0.5391595781590464,0.0
2000-01-01 08:05:41.524860,0.3210480774169926,-0.059931655957031094,0.610679389312977,-7.283568166666667,112.7966435,0.17573231867983824,0.31070378952803246,3.130175656725357,-0.2170822017305261,0.07540574337265044,0.20407503048347414,0.006298593879689255,3.1300845427973587,-7.283564,112.796641,0.5391595781590464,0.0
2000-01-01 08:05:41.540190,0.5365262268310551,-0.06472005927734359,0.6335801526717557,-7.283568166666667,112.7966435,0.17234754272238095,0.3118529585276031,3.1303451802604285,-0.22078972531052837,0.07496056192185312,0.20395847111702806,0.0062769530813779955,3.1302479389019164,-7.283564,112.796641,0.5391595781590464,0.0
2000-01-01 08:05:41.554792,0.3378074890380862,-0.03598963935546862,0.7328167938931298,-7.283568166666667,112.7966435,0.16911759101941481,0.31293392867874215,3.130531938585293,-0.2212018931913507,0.07402978926766114,0.20394962282458348,0.006206347574473067,3.1304094067735133,-7.283564,112.796641,0.5391595781590464,0.0
2000-01-01 08:05:41.568926,0.2707698425537113,-0.07908526923828108,0.8931221374045801,-7.283568166666667,112.7966435,0.16600093650283734,0.31397535469054366,3.1307522497528733,-0.22051613538291015,0.0736851769062595,0.2040218173970838,0.006107173736273293,3.1305901745730376,-7.283564,112.796641,0.5391595781590464,0.0
2000-01-01 08:05:41.582673,0.2611930359130863,-0.01204762275390614,0.8320534351145038,-7.283568166666667,112.7966435,0.1629818150844265,0.31497078129352,3.1309518826092755,-0.21962265826766722,0.07241121053392292,0.20415692363435323,0.005997618586710933,3.130804459516626,-7.283564,112.796641,0.5391595781590464,0.0
