timestamp,imu_accel_x,imu_accel_y,imu_gyro_z,gps_lat,gps_lng,odom_x,odom_y,odom_heading,odom_vx,odom_vy,ekf_x,ekf_y,ekf_heading,map_matched_lat,map_matched_lng,distance_to_path,progress
2000-01-01 08:10:30.961284,0.04140053510742181,-0.008659827404785214,-1.5573740458015266,,,0.0,0.0,3.141592653589793,0.0,0.0,0.0,0.0,3.141592653589793,,,,
2000-01-01 08:10:30.974522,0.0030933085449218467,-0.03260184400634769,-1.4734045801526716,,,0.0,0.0,3.141252235678825,0.0,0.0,0.0,0.0,3.141592653589793,,,,
2000-01-01 08:10:30.988093,0.03182372846679682,-0.011054029064941462,-2.0153893129770992,,,0.0,0.0,3.140774838933822,0.0,0.0,0.0,0.0,3.141243639855271,,,,
2000-01-01 08:10:30.999711,0.0749193583496095,-0.05654386060791017,-1.8321832061068701,,,-9.901135399209127e-06,7.49118032907338e-06,3.1404033260665405,-0.0008522311520746257,0.0006447964788720022,0.0,0.0,3.1408349781778493,,,,
2000-01-01 08:10:31.011751,-0.0304255146972654,-0.10921629713134762,-1.8474503816793892,,,-1.560992447243716e-05,3.060609978264147e-05,3.1400151258049323,-0.00047417464096870363,0.0019199358204205885,-1.0260371324136824e-05,7.76297755088794e-06,3.140449985970763,,,,
2000-01-01 08:10:31.024445,0.03421793012695318,-0.11639890211181647,-1.4581374045801527,,,-2.687729137110394e-05,7.288169317149553e-05,3.1396920723773043,-0.000887613505236337,0.003330359965314253,-1.6279544784567018e-05,3.21346451550347e-05,3.1400406794292124,,,,
2000-01-01 08:10:31.036356,0.0509773417480468,-0.039784448986816434,-1.4581374045801527,,,-4.431319062247505e-05,0.00011730241306680359,3.1393889509684536,-0.0014638735319746348,0.0037294500953764737,-2.685172831915209e-05,7.180188385952222e-05,3.1397375580203617,,,,
2000-01-01 08:10:31.048234,0.13956280317382808,-0.03499604566650394,-1.1604274809160304,,,-8.063761486030843e-05,0.0001656002654422364,3.1391483846440904,-0.003058153491673772,0.00406619647747744,-4.423946354917126e-05,0.00011609989826825564,3.1394352739383273,,,,
2000-01-01 08:10:31.060475,0.17308162641601577,-0.1475235236938477,-1.1604274809160304,,,-0.00014268672306570176,0.0002361159988010315,3.1389004496345545,-0.0050686588453187536,0.005760279332945004,-8.167652583810779e-05,0.00016587714169989957,3.1391873389287914,,,,
2000-01-01 08:10:31.073329,0.13716860151367172,-0.03499604566650394,-1.1909618320610686,,,-0.00022872962932460745,0.0003144099389309744,3.138633264166849,-0.00669387270151916,0.0060910270389193805,-0.00014682896558903969,0.00023991965741090442,3.138927003667929,,,,
2000-01-01 08:10:31.087643,0.06055414838867179,-0.025419239025878948,-1.5573740458015266,,,-0.00033476858372108106,0.00040499582411405934,3.13824419918395,-0.007408215247200794,0.0063286151736783565,-0.0002426430366502704,0.0003271047778286338,3.138629476207475,,,,
2000-01-01 08:10:31.101022,-0.008877699755859503,-0.0733032722290039,-1.1909618320610686,,,-0.0004302950476109614,0.0005008237967327966,3.1379661059618895,-0.007140169289562961,0.007162705697576564,-0.00034175561754308336,0.0004117736707279978,3.1382658246153823,,,,
2000-01-01 08:10:31.114376,-0.11182837114257804,-0.05414965894775392,-1.5421068702290075,,,-0.000504158585027122,0.0006039504648158775,3.1376066738357244,-0.005531017727092203,0.007722286926088624,-0.00043710844183327436,0.0005074274556910113,3.1379882368867085,,,,
2000-01-01 08:10:31.127422,-0.049579127978515825,0.0009169792358397766,-1.7253129770992366,,,-0.000504158585027122,0.0006039504648158775,3.137213837547865,-0.004424814181673763,0.006177829540870899,-0.0005092642661326498,0.0006081698517782416,3.1376371147735473,,,,
2000-01-01 08:10:31.141406,-0.13577038774414074,-0.03260184400634769,-1.900885496183206,,,-0.0005387487710498548,0.0006947382580338206,3.1367498797706186,-0.0024734763548869255,0.006492057015517714,-0.0005711428223427086,0.0006945633491784735,3.137216009780366,,,,
2000-01-01 08:10:31.155173,-0.0687327412597658,-0.10442789381103512,-1.939053435114504,,,-0.0005592510206179412,0.0008016574651101582,3.136283956818597,-0.0014892052398937188,0.007766203552180504,-0.0006051957709693677,0.0007839410719911392,3.136759257962289,,,,
2000-01-01 08:10:31.168400,-0.1142225728027344,0.05837781907958983,-1.8398167938931298,,,-0.0005590296114725146,0.0008922008782976303,3.135859249883523,1.6740103908056613e-05,0.006845725103305402,-0.000624892402563812,0.0008866589822945443,3.1363116430453553,,,,
2000-01-01 08:10:31.181989,-0.10943416948242168,-0.04696705396728518,-2.1604274809160304,,,-0.0005389484562425493,0.0009917465496931048,3.135346836360489,0.0014776962500006909,0.007325189394751159,-0.0006246649128986367,0.0009796889730393145,3.1358752724597077,,,,
2000-01-01 08:10:31.195646,-0.06155013627929673,-0.06372646558837891,-2.4047022900763357,,,-0.00050784249056562,0.001101354663693227,3.1347736635505705,0.0022777014212970776,0.008025938163653757,-0.0006044844061809156,0.0010797271465064842,3.135360323771476,,,,
2000-01-01 08:10:31.209115,-0.13577038774414074,0.055983617419433584,-2.282564885496183,,,-0.00045371571687349176,0.0011971612370583898,3.1342370968689535,0.004018731019781529,0.007113316054482458,-0.0005738069040634716,0.0011878254831487606,3.1347950460278895,,,,
2000-01-01 08:10:31.222600,-0.169289210986328,-0.14034091871337895,-2.50393893129771,,,-0.00037023583709547633,0.001315941151586015,3.1336477516126977,0.006190320330120649,0.008807939370128205,-0.0005196121024214369,0.0012837524687300784,3.134257804975183,,,,
2000-01-01 08:10:31.237277,-0.10703996782226577,-0.08288007886962889,-4.106992366412213,,,-0.00025844607807810546,0.001459920177950513,3.132595710008317,0.007616761698623996,0.009809967773952138,-0.0004287579513627876,0.001413024915287534,3.133616399368467,,,,
2000-01-01 08:10:31.251152,-0.06155013627929673,-0.1834365485961914,-2.00012213740458,,,-0.0001429371119773712,0.0016278077854728881,3.1321113512972207,0.008324965952164651,0.012100001095977864,-0.00032307532468309956,0.0015491382929952344,3.132621831340907,,,,
2000-01-01 08:10:31.263538,-0.09506895952148442,-0.10442789381103512,-2.2291297709923663,,,-2.7439139083963713e-05,0.0017902357644020719,3.1316294718905016,0.009324997299301457,0.013114000418375196,-0.00021996358523480167,0.0016990070333001933,3.132189457379785,,,,
2000-01-01 08:10:31.277088,-0.06155013627929673,-0.10921629713134762,-2.3207328244274805,,,0.00010767253294207073,0.0019839167173099476,3.131080620648147,0.009971046220613965,0.014293374543724587,-9.360613498628637e-05,0.0018767069941943357,3.1316622701778374,,,,
2000-01-01 08:10:31.290245,-0.04479072465820311,-0.0733032722290039,-2.481038167938931,,,0.00024397506106027756,0.0021805660728138926,3.1305108868872877,0.010359594797432408,0.014946220501723641,3.758420927216073e-05,0.0020647667710239222,3.1311293481707936,,,,
2000-01-01 08:10:31.303815,-0.06633853959960945,-0.07090907056884765,-2.534473282442748,,,0.0003938628373889024,0.002391984743027878,3.1299106214106436,0.01104556499092981,0.01557991398194197,0.00017816340364816725,0.00226758625172593,3.1305417382840504,,,,
2000-01-01 08:10:31.316605,-0.08788635454101579,-0.12597570875244146,-2.534473282442748,,,0.0005466468153391168,0.002607289441724512,3.1293448532831705,0.011945502415906197,0.016833720609596092,0.00031943710644150914,0.002466854658479057,3.1299759701565772,,,,
2000-01-01 08:10:31.329384,-0.09985736284179669,-0.11879310377197272,-2.549740458015267,,,0.0007124685120911995,0.002836910037162203,3.128776170441,0.012976111606075627,0.017968592360430028,0.0004720886510100851,0.002681972730739375,3.129410692437767,,,,
2000-01-01 08:10:31.343728,-0.17647181596679706,-0.09963949049072263,-2.366534351145038,,,0.0009307113336423515,0.003109093597728041,3.1281837389939833,0.015215703779974783,0.018976406197066732,0.0006582084158677372,0.0029397009536825548,3.128772397697474,,,,
2000-01-01 08:10:31.357067,-0.0016950947753904266,0.01767639085693362,-2.6871450381679387,,,0.0009307113336423515,0.003109093597728041,3.1275581218203876,0.012172563023979828,0.015181124957653386,0.0008611785931580788,0.003192837094202146,3.128221424634632,,,,
2000-01-01 08:10:31.370244,-0.011271901416015417,-0.04217865064697268,-3.114625954198473,,,0.0009307113336423515,0.003109093597728041,3.1268418441805457,0.009738050419183863,0.01214489996612271,0.0010215696540070943,0.0033928702944445873,3.127603455756778,,,,
2000-01-01 08:10:31.383675,-0.049579127978515825,-0.12597570875244146,-2.6260763358778623,,,0.001067992703465975,0.0032910818453064407,3.1262262541980177,0.010221267959148697,0.013549913191459314,0.001152360951750199,0.0035559878753928385,3.1268733427320603,,,,
2000-01-01 08:10:31.396458,-0.07352114458007808,-0.21695537183837887,-2.3894351145038164,,,0.001208371483728767,0.003495391527400779,3.1256931262932994,0.010981019406765321,0.01598196379729223,0.0012830272474458838,0.003729206792145858,3.126287415721078,,,,
2000-01-01 08:10:31.409637,-0.07112694291992172,-0.18104234693603516,-1.9772213740458016,-7.283600666666667,112.796595,0.0013628042683507741,0.0037324177062065846,3.1252383337911707,0.011718145075596728,0.017985217042864605,0.0014277454937241848,0.00393983220743312,3.125737807473532,-7.283564,112.796595,4.077147310277817,0.10021786492374728
2000-01-01 08:10:31.426305,-0.07112694291992172,-0.06133226392822266,-2.030656488549618,-7.283600666666667,112.796595,0.001573854423414387,0.0040425578149166155,3.12464761075132,0.012662387400443894,0.018607492629979426,7.380381759310075e-05,0.00019278349948086831,3.1251626288418337,-7.283564,112.796595,4.077147310277817,0.10021786492374728
2000-01-01 08:10:31.446226,0.005487510205078205,-0.12597570875244146,-1.9466870229007633,-7.283600666666667,112.796595,0.0018197886433253224,0.004454851455408737,3.123970766664417,0.012345361853011662,0.020696242204171662,0.000164205664855937,0.0002831809868930015,3.124456589390891,-7.283564,112.796595,4.077147310277817,0.10021786492374728
2000-01-01 08:10:31.462634,0.08210196333007813,-0.05654386060791017,-2.145160305343511,-7.283600666666667,112.796595,0.0019969183190463075,0.004802964484016285,3.123356432731577,0.010795032219279152,0.021215481507958982,0.00024153578126478588,0.00041011720618832395,3.123899094507265,-7.283564,112.796595,4.077147310277817,0.10021786492374728
2000-01-01 08:10:31.479404,0.017458518505859555,-0.05175545728759767,-1.9466870229007633,-7.283600666666667,112.796595,0.0021697829981460674,0.005165974015768126,3.122786669590689,0.010308261215824505,0.021646973208289764,0.00030930177788172783,0.0005606461062680619,3.1232712415145127,-7.283564,112.796595,4.077147310277817,0.10021786492374728
2000-01-01 08:10:31.493817,0.05337154340820316,-0.10203369215087887,-1.4734045801526716,-7.283600666666667,112.796595,0.002304923563265342,0.005492719903151208,3.12241601608496,0.00937598711166303,0.022669471791751054,0.00035416640872701393,0.0006750374387071949,3.1227815278409463,-7.283564,112.796595,4.077147310277817,0.10021786492374728
2000-01-01 08:10:31.512840,0.09407297163085948,-0.039784448986816434,-1.3589007633587786,-7.283600666666667,112.796595,0.0024466349798313207,0.005930087646869715,3.121964851896498,0.007449640745594193,0.022992025931072378,0.0004245897599688517,0.0008821984682479013,3.122292347615572,-7.283564,112.796595,4.077147310277817,0.10021786492374728
2000-01-01 08:10:31.529269,0.1251975932128908,-0.008659827404785214,-1.2672977099236642,-7.283600666666667,112.796595,0.0025335130682728217,0.006303219898002569,3.1216014679325275,0.0052881104351097195,0.02271187806140845,0.00044448234257525907,0.001024095736061236,3.1219026974629958,-7.283564,112.796595,4.077147310277817,0.10021786492374728
2000-01-01 08:10:31.545504,0.012670115185546837,0.012887987536621126,-1.4123358778625954,-7.283600666666667,112.796595,0.0025335130682728217,0.006303219898002569,3.121201267958004,0.004230488348087776,0.01816950244912676,0.00043606456606087374,0.0011456801332949637,3.1215435955530504,-7.283564,112.796595,4.077147310277817,0.10021786492374728
2000-01-01 08:10:31.558589,0.027035325146484546,-0.04217865064697268,-1.1451603053435113,-7.283600666666667,112.796595,0.0025833702188793194,0.006543368953762578,3.12093975458964,0.0038104582989538184,0.01835399639520096,0.0004078446757184546,0.0011483705416150648,3.121221068906818,-7.283564,112.796595,4.077147310277817,0.10021786492374728
2000-01-01 08:10:31.575948,0.024641123486328187,-0.003871424084472719,-1.0459236641221372,-7.283600666666667,112.796595,0.0025833702188793194,0.006543368953762578,3.1206228559225813,0.003048366639163055,0.014683197116160769,0.0003945897721279421,0.0012216755419478323,3.1208741030748164,-7.283564,112.796595,4.077147310277817,0.10021786492374728
2000-01-01 08:10:31.589389,0.0749193583496095,-0.020630835705566453,-1.2291297709923663,-7.283600666666667,112.796595,0.002610339823213085,0.006740706573829293,3.1203345231208313,0.002006576069385355,0.014682193372765873,0.00036423227021013815,0.0011868516793140842,3.1206287472892758,-7.283564,112.796595,4.077147310277817,0.10021786492374728
2000-01-01 08:10:31.606081,0.05576574506835952,-0.027813440686035196,-1.2214961832061069,-7.283600666666667,112.796595,0.0026281046310905136,0.00698880999048519,3.1199786531309397,0.0010642376790123392,0.014863150005263196,0.00033256536200582245,0.0011978598398719037,3.120270653334344,-7.283564,112.796595,4.077147310277817,0.10021786492374728
2000-01-01 08:10:31.623706,0.22096565961914072,-0.11161049879150386,-1.2596641221374045,-7.283600666666667,112.796595,0.0025799863996352336,0.007280971185495852,3.119591176128486,-0.0027302087425368185,0.01657710652955818,0.00029340601233888714,0.001220045521004168,3.1198949169207557,-7.283564,112.796595,4.077147310277817,0.10021786492374728
2000-01-01 08:10:31.638895,0.27363809614257795,-0.09006268385009764,-0.6260763358778625,-7.283600666666667,112.796595,0.0024779466381781765,0.0075494525133320495,3.1194252052448452,-0.006718033805364868,0.01767611576857604,0.0002103758182038462,0.0012312266507074872,3.1195609838914096,-7.283564,112.796595,4.077147310277817,0.10021786492374728
2000-01-01 08:10:31.654155,0.3813771708496092,-0.06133226392822266,-0.8474503816793892,-7.283600666666667,112.796595,0.002290770472579231,0.007829748443844828,3.119199489108609,-0.01226533984417951,0.01836732168157593,8.967255847146404e-05,0.0012557206020113601,3.119394230138531,-7.283564,112.796595,4.077147310277817,0.10021786492374728
2000-01-01 08:10:31.669155,0.17547582807617168,-0.20019596021728514,0.11438167938931301,-7.283600666666667,112.796595,0.00207277457751835,0.008144745115585205,3.1192294341336906,-0.014533073530544373,0.020999798142993246,-7.967561281758166e-05,0.001281154288255795,3.1191723683590014,-7.283564,112.796595,4.077147310277817,0.10021786492374728
2000-01-01 08:10:31.686619,0.17308162641601577,-0.1978017585571289,1.144916030534351,-7.283600666666667,112.796595,0.0017736351214235543,0.008564384520059302,3.119578400768633,-0.017129346629662798,0.0240294239768364,-0.00027938909678496725,0.0013757870053563758,3.119207231518125,-7.283564,112.796595,4.077147310277817,0.10021786492374728
2000-01-01 08:10:31.701569,0.12759179487304673,-0.22174377515869137,0.8701068702290076,-7.283600666666667,112.796595,0.0014957781507145423,0.008965625070970415,3.1198054445167203,-0.018584963579678537,0.026837696410296725,-0.00044805387445068473,0.0014494756638393142,3.119505983356217,-7.283564,112.796595,4.077147310277817,0.10021786492374728
2000-01-01 08:10:31.715365,0.04379473676757817,-0.11161049879150386,1.1525496183206108,-7.283600666666667,112.796595,0.0012368032435385963,0.009349439865225732,3.120082946941524,-0.01877275025824943,0.02782222940650097,-0.0005896971843430842,0.0015219975458046382,3.119715481292348,-7.283564,112.796595,4.077147310277817,0.10021786492374728
2000-01-01 08:10:31.729659,0.06055414838867179,-0.21695537183837887,0.5571297709923665,-7.283600666666667,112.796595,0.0009626379305240484,0.009782868538107808,3.1202219384828047,-0.019180409301177922,0.03032236010214554,-0.0007182747231902331,0.0016060689250924592,3.120003016901094,-7.283564,112.796595,4.077147310277817,0.10021786492374728
2000-01-01 08:10:31.744592,0.05815994672851543,-0.027813440686035196,0.4884274809160306,-7.283600666666667,112.796595,0.0006693650803263219,0.010232966416134867,3.120349238277162,-0.019639101585013335,0.03014093511831284,-0.0008406862749613635,0.0017221332535889333,3.1201482227055353,-7.283564,112.796595,4.077147310277817,0.10021786492374728
2000-01-01 08:10:31.759029,0.000699106884765488,-0.027813440686035196,-0.12225954198473277,-7.283600666666667,112.796595,0.0006693650803263219,0.010232966416134867,3.1203184319815906,-0.01571128126801067,0.024112748094650274,-0.0009408434985962304,0.0018048950007706708,3.12027129401022,-7.283564,112.796595,4.077147310277817,0.10021786492374728
2000-01-01 08:10:31.773584,-0.004089296435546785,-0.027813440686035196,-0.3283664122137404,-7.283600666666667,112.796595,0.0006693650803263219,0.010232966416134867,3.1202350142641277,-0.012569025014408536,0.01929019847572022,-0.000978543015017426,0.001803482824396835,3.120240235377086,-7.283564,112.796595,4.077147310277817,0.10021786492374728
2000-01-01 08:10:31.789096,0.07731356000976541,-0.1283699104125977,-0.00012213740458008604,-7.283600666666667,112.796595,0.0004607184828045189,0.010556856286419542,3.120234981197984,-0.01345097653064591,0.020880450941731007,-0.0009809264386659456,0.0017573854740188756,3.1201513370502036,-7.283564,112.796595,4.077147310277817,0.10021786492374728
2000-01-01 08:10:31.803726,0.06055414838867179,-0.22174377515869137,0.15254961832061073,-7.283600666666667,112.796595,0.0002561545399819299,0.010903008511364247,3.12027393431806,-0.013982194179593186,0.023659925391018747,-0.0009848455495131245,0.0017248553344558887,3.1201513058627577,-7.283564,112.796595,4.077147310277817,0.10021786492374728
2000-01-01 08:10:31.818534,0.09886137495117175,-0.16907133863525392,0.2594198473282443,-7.283600666666667,112.796595,3.278057301670629e-05,0.011283131066955769,3.1203409806772266,-0.015084743324447428,0.025670185567433834,-0.0009967364576049503,0.0017353740543188895,3.120190731899763,-7.283564,112.796595,4.077147310277817,0.10021786492374728
2000-01-01 08:10:31.832779,-0.03281971635742176,-0.1882249519165039,-0.19096183206106865,-7.283600666666667,112.796595,-0.00017048376551129883,0.011678777287964182,3.1202935028274195,-0.01426901810330579,0.027774095205075698,-0.0010138605442099444,0.0017580854495856453,3.120255230110822,-7.283564,112.796595,4.077147310277817,0.10021786492374728
2000-01-01 08:10:31.846167,-0.07591534624023444,-0.14991772535400394,-0.00012213740458008604,-7.283600666666667,112.796595,-0.00034380026320480453,0.012069213771545984,3.120293474288904,-0.012945969503167506,0.02916386424050944,-0.001009343898425944,0.0017843895472807194,3.1202106101417453,-7.283564,112.796595,4.077147310277817,0.10021786492374728
2000-01-01 08:10:31.860887,-0.04000232133789039,-0.1475235236938477,-0.16806106870229,-7.283600666666667,112.796595,-0.0005213896217093396,0.012521048426553397,3.12025029811297,-0.012064720140154615,0.030695863244241273,-0.0010047517118469426,0.0018539966288794016,3.1202105787637104,-7.283564,112.796595,4.077147310277817,0.10021786492374728
2000-01-01 08:10:31.875004,0.04140053510742181,-0.1978017585571289,0.3052213740458015,-7.283600666666667,112.796595,-0.0006955617608738471,0.012984505769662124,3.1203255004149186,-0.012337860683261419,0.03283000461118064,-0.0009843907845886095,0.0019166118324425087,3.1201691708535537,-7.283564,112.796595,4.077147310277817,0.10021786492374728
2000-01-01 08:10:31.893506,-0.013666103076171776,-0.12597570875244146,0.3052213740458015,-7.283600666666667,112.796595,-0.0009137944896930557,0.013621937874690284,3.1204240633697875,-0.011795014495703438,0.03445184853580096,-0.0010123127718052738,0.002107774952908606,3.1202677338084226,-7.283564,112.796595,4.077147310277817,0.10021786492374728
2000-01-01 08:10:31.908332,0.05815994672851543,-0.15710033033447268,-2.0917251908396945,-7.283600666666667,112.796595,-0.0010969662791191779,0.014156626932332557,3.1198827880764215,-0.012354420478353697,0.036063268606935844,-0.0009920063321547127,0.0021886523044697924,3.1203467158800167,-7.283564,112.796595,4.077147310277817,0.10021786492374728
2000-01-01 08:10:31.922718,0.0030933085449218467,-0.10442789381103512,-0.16042748091603048,-7.283600666666667,112.796595,-0.0012713053233580536,0.014686233989675923,3.119842508291976,-0.012118912635607628,0.036814826461657846,-0.0009781526048954468,0.002264510343758615,3.1198215300494727,-7.283564,112.796595,4.077147310277817,0.10021786492374728
2000-01-01 08:10:31.937275,0.015064316845703196,-0.1283699104125977,-0.45050381679389306,-7.283600666666667,112.796595,-0.0014467339711774377,0.015238140192727009,3.1197280517211947,-0.012051348023739613,0.037914068267100996,-0.0009658276551187358,0.002343125656487042,3.1197807712841965,-7.283564,112.796595,4.077147310277817,0.10021786492374728
2000-01-01 08:10:31.952063,0.024641123486328187,-0.1331583137329102,-0.252030534351145,-7.283600666666667,112.796595,-0.0016260407115013134,0.01581625241695074,3.119663002155997,-0.012125027861983582,0.0390929354546561,-0.0009571847411370695,0.002430018517016524,3.1196644953834296,-7.283564,112.796595,4.077147310277817,0.10021786492374728
2000-01-01 08:10:31.965672,0.08210196333007813,-0.17146554029541017,-2.1222595419847328,-7.283600666666667,112.796595,-0.0018019487991111876,0.016369072531032865,3.1191589216270392,-0.012925928442439493,0.040621857319115606,-0.0009400716795335131,0.0024817293718942864,3.1196046329196,-7.283564,112.796595,4.077147310277817,0.10021786492374728
2000-01-01 08:10:31.979648,0.05337154340820316,-0.1283699104125977,-0.4123358778625954,-7.283600666666667,112.796595,-0.0019886484181107365,0.01695024481794165,3.119058341843251,-0.013358608633104764,0.0415836581286205,-0.0009393675372083636,0.002556318868075237,3.1190869568760258,-7.283564,112.796595,4.077147310277817,0.10021786492374728
2000-01-01 08:10:31.994992,0.007881711865234564,-0.16428293531494143,-0.20622900763358773,-7.283600666666667,112.796595,-0.0021904840547644967,0.017613475247696107,3.119003113373996,-0.013154124930612262,0.043224358569243886,-0.0009585391722758851,0.0026760239017568164,3.1189765326461147,-7.283564,112.796595,4.077147310277817,0.10021786492374728
2000-01-01 08:10:32.011459,-0.023242909716796767,-0.1786481452758789,-0.09935877862595414,-7.283600666666667,112.796595,-0.002395521936608634,0.018358376121209656,3.118974555922294,-0.012450828972657004,0.04523375531527532,-0.0009830439978916524,0.0028344289933251864,3.1189172588204253,-7.283564,112.796595,4.077147310277817,0.10021786492374728
2000-01-01 08:10:32.026902,0.01985272016601547,-0.09485108717041013,0.015145038167938996,-7.283600666666667,112.796595,-0.002588091561933479,0.019065216084741914,3.1189786379739375,-0.012469729434227502,0.045770993653220224,-0.0009831000532996388,0.0029557364882284803,3.118890478586458,-7.283564,112.796595,4.077147310277817,0.10021786492374728
2000-01-01 08:10:32.049395,0.04618893842773453,-0.0733032722290039,-0.48867175572519084,-7.283600666666667,112.796595,-0.0028850199472285195,0.020110976055804287,3.1187868027861674,-0.013201341051802566,0.046494153876868144,-0.0010502233482371302,0.0033133431836227015,3.1188964239909276,-7.283564,112.796595,4.077147310277817,0.10021786492374728
2000-01-01 08:10:32.064021,0.02942952680664046,-0.10921629713134762,-0.633709923664122,-7.283600666666667,112.796595,-0.0030798950988715364,0.020800472921531404,3.1186250249588157,-0.013323101704772052,0.04713908771720555,-0.0010362814762440787,0.003328718089788267,3.1187716725045185,-7.283564,112.796595,4.077147310277817,0.10021786492374728
2000-01-01 08:10:32.077751,-0.04239652299804675,-0.16907133863525392,-0.5650076335877862,-7.283600666666667,112.796595,-0.0032506001713651957,0.021465747738901517,3.118489639005391,-0.012433817872680681,0.048457294171900867,-0.0010182042197231767,0.0033206711187341266,3.1186198242513097,-7.283564,112.796595,4.077147310277817,0.10021786492374728
2000-01-01 08:10:32.093859,0.13956280317382808,-0.15470612867431643,-2.145160305343511,-7.283600666666667,112.796595,-0.003481438120308165,0.02227090107135548,3.117886521116645,-0.014329865576415341,0.049981985524046875,-0.0010169288155095673,0.0034233506663390928,3.1184609707566566,-7.283564,112.796595,4.077147310277817,0.10021786492374728
2000-01-01 08:10:32.106578,0.04379473676757817,-0.17146554029541017,-0.038290076335877804,-7.283600666666667,112.796595,-0.003666349750091847,0.022921243761619303,3.1178780212189845,-0.014538316839713879,0.051131927702482136,-0.0010038328017642475,0.0033978918778928323,3.1179847731408477,-7.283564,112.796595,4.077147310277817,0.10021786492374728
2000-01-01 08:10:32.119682,0.01985272016601547,-0.16428293531494143,-0.13752671755725185,-7.283600666666667,112.796595,-0.003855725575766673,0.02360556505541565,3.117846569001898,-0.01445232502058273,0.0522243729959096,-0.001001239997406464,0.003410300945185998,3.1179760162402643,-7.283564,112.796595,4.077147310277817,0.10021786492374728
2000-01-01 08:10:32.135083,0.027035325146484546,0.06316622239990233,-0.252030534351145,-7.283600666666667,112.796595,-0.004080486433177025,0.024379257759518103,3.117778823633209,-0.014593907770230098,0.05023650512934503,-0.00102528652894483,0.0035310679467212124,3.117939049298106,-7.283564,112.796595,4.077147310277817,0.10021786492374728
2000-01-01 08:10:32.151694,0.07252515668945314,-0.06372646558837891,-0.27493129770992364,-7.283600666666667,112.796595,-0.004337253098696717,0.02521474756241454,3.117699115998369,-0.015457536058329105,0.05029708092559043,-0.001060779492434055,0.0036529608706844102,3.117865981015346,-7.283564,112.796595,4.077147310277817,0.10021786492374728
2000-01-01 08:10:32.166881,0.06055414838867179,-0.10921629713134762,-0.6871450381679389,-7.283600666666667,112.796595,-0.004580405001244466,0.025988354678246846,3.1175169760076344,-0.016010251137576703,0.05093788728985712,-0.001084505466340501,0.0036972046408948874,3.11779310559424,-7.283564,112.796595,4.077147310277817,0.10021786492374728
2000-01-01 08:10:32.181848,0.06773675336914042,-0.04217865064697268,-1.0535572519083969,-7.283600666666667,112.796595,-0.00482986932900809,0.026745086907482295,3.117241771586291,-0.016668194281012537,0.05056177742395192,-0.001108786461216128,0.0037341252109079595,3.117613613352821,-7.283564,112.796595,4.077147310277817,0.10021786492374728
2000-01-01 08:10:32.198081,0.04618893842773453,-0.15470612867431643,-1.0535572519083969,-7.283600666666667,112.796595,-0.005105986345353247,0.027589717731422717,3.116943263741529,-0.01700877089895734,0.05202914463135448,-0.001154114134293393,0.003810732425752737,3.1173151055080592,-7.283564,112.796595,4.077147310277817,0.10021786492374728
2000-01-01 08:10:32.211859,0.04379473676757817,-0.20498436353759764,-0.7329465648854961,-7.283600666666667,112.796595,-0.005342841928926183,0.028330554859955576,3.116767012900306,-0.0171910383831091,0.05377014685541054,-0.001163521776572695,0.0037938960224089204,3.1170617577732833,-7.283564,112.796595,4.077147310277817,0.10021786492374728
2000-01-01 08:10:32.225133,0.08928456831054676,-0.26962780836181643,-0.8550839694656488,-7.283600666666667,112.796595,-0.005580720753962699,0.02907695847686547,3.116568910219062,-0.017920559444746093,0.05623018519850984,-0.001167818997191738,0.0037823600128439354,3.1168919514327396,-7.283564,112.796595,4.077147310277817,0.10021786492374728
2000-01-01 08:10:32.240246,0.14913960981445307,-0.2887814216430664,-0.4963053435114503,-7.283600666666667,112.796595,-0.0058778784799712065,0.02997521217501341,3.116438001058616,-0.019662706982108265,0.05943678294863651,-0.001206657623064473,0.00388509364329188,3.1166664081739026,-7.283564,112.796595,4.077147310277817,0.10021786492374728
2000-01-01 08:10:32.254794,0.19462944135742166,-0.09963949049072263,-0.7253129770992366,-7.283600666666667,112.796595,-0.0061980468000399115,0.030844298451710134,3.116253834168121,-0.022007444596193842,0.05973847780945719,-0.0012524881885883393,0.003985202426091217,3.116540389455451,-7.283564,112.796595,4.077147310277817,0.10021786492374728
2000-01-01 08:10:32.270037,0.15871641645507806,-0.21456117017822263,-0.969587786259542,-7.283600666666667,112.796595,-0.006561676283183722,0.03178644865952046,3.115995883607666,-0.023855422711984486,0.061808496030589015,-0.0013320004636470045,0.004106138216000963,3.116347426124436,-7.283564,112.796595,4.077147310277817,0.10021786492374728
2000-01-01 08:10:32.283638,0.15153381147460943,-0.2025901618774414,-0.8398167938931297,-7.283600666666667,112.796595,-0.006906144970464048,0.032647681164253206,3.1157965338115376,-0.0253277071923607,0.06332373742482747,-0.0013910208875515778,0.004153596923827977,3.116117272204051,-7.283564,112.796595,4.077147310277817,0.10021786492374728
2000-01-01 08:10:32.297245,-0.020848708056640408,-0.18583075025634765,-0.7482137404580153,-7.283600666666667,112.796595,-0.007239223883880361,0.033525688943075636,3.1156188455964577,-0.024478881022895926,0.06452719487561158,-0.0014585426752610612,0.004213991916452876,3.115917829800053,-7.283564,112.796595,4.077147310277817,0.10021786492374728
2000-01-01 08:10:32.312258,0.08689036665039085,-0.22174377515869137,-0.29783206106870225,-7.283600666666667,112.796595,-0.00761729122412041,0.034524538615428695,3.11554080463644,-0.02518229883179607,0.06653135105842671,-0.0015335715601656457,0.004352314813243529,3.115721775290695,-7.283564,112.796595,4.077147310277817,0.10021786492374728
2000-01-01 08:10:32.326204,0.13716860151367172,-0.21934957349853512,-0.351267175572519,-7.283600666666667,112.796595,-0.007986504233472518,0.03547630919047767,3.1154553045896356,-0.026474366635511073,0.06824657452063829,-0.0015837656735464985,0.00443669111184116,3.1156492815966295,-7.283564,112.796595,4.077147310277817,0.10021786492374728
2000-01-01 08:10:32.340873,0.19223523969726575,0.06316622239990233,-0.6871450381679389,-7.283600666666667,112.796595,-0.008407969556646818,0.03644515867645755,3.1152793779458374,-0.02873134869002659,0.06604660188930618,-0.0016567800528845822,0.004568013693389539,3.115559348246547,-7.283564,112.796595,4.077147310277817,0.10021786492374728
2000-01-01 08:10:32.354770,0.12998599653320309,-0.07090907056884765,-1.0077557251908396,-7.283600666666667,112.796595,-0.008823486997780478,0.037358692670713116,3.1150349557088006,-0.029900688245420005,0.06573802314844965,-0.001728191690685711,0.004610482268579223,3.115392687295684,-7.283564,112.796595,4.077147310277817,0.10021786492374728
2000-01-01 08:10:32.368727,0.19223523969726575,-0.23610898511962886,-0.22912977099236637,-7.283600666666667,112.796595,-0.009267959085268958,0.038303900997908875,3.114979139655997,-0.03184522051965763,0.06772161506620118,-0.0018038497719200862,0.004647046779496004,3.1151471978225063,-7.283564,112.796595,4.077147310277817,0.10021786492374728
2000-01-01 08:10:32.382096,0.15392801313476578,-0.14034091871337895,-0.42760305343511446,-7.283600666666667,112.796595,-0.009711489526208891,0.039216479302893695,3.114879363321989,-0.03317523856542351,0.06825913214286287,-0.0018758199532972982,0.004670825797079134,3.1150937329831465,-7.283564,112.796595,4.077147310277817,0.10021786492374728
2000-01-01 08:10:32.397214,0.16111061811523442,-0.15470612867431643,-0.5573740458015266,-7.283600666666667,112.796595,-0.010238144382682505,0.04026339042472341,3.114732295204447,-0.03483627171207317,0.06924930027732232,-0.0019983558409489522,0.0047928866380332336,3.114980906100378,-7.283564,112.796595,4.077147310277817,0.10021786492374728
2000-01-01 08:10:32.411493,0.15392801313476578,-0.12118730543212897,-0.5421068702290076,-7.283600666666667,112.796595,-0.010755687691966555,0.04125741053432335,3.114597200427664,-0.03624686240539892,0.06961757498268377,-0.0020981257972267297,0.004859833794250984,3.1148420066943063,-7.283564,112.796595,4.077147310277817,0.10021786492374728
2000-01-01 08:10:32.425567,0.10843818159179675,-0.08527428052978514,-1.0382900763358778,-7.283600666666667,112.796595,-0.011276212772470094,0.0422347305545944,3.114342157885886,-0.03698495569673837,0.06944168303339716,-0.0021930247724919263,0.004909304663449983,3.114708845146055,-7.283564,112.796595,4.077147310277817,0.10021786492374728
2000-01-01 08:10:32.439881,0.06294835004882815,-0.14512932203369144,-1.3283664122137404,-7.283600666666667,112.796595,-0.011806865087503575,0.04323833006686772,3.1140102927993474,-0.03707180664835922,0.0701122863640696,-0.002288757565213986,0.0049622990152808156,3.1144494496789106,-7.283564,112.796595,4.077147310277817,0.10021786492374728
2000-01-01 08:10:32.453420,0.1467454081542967,-0.22413797681884762,-0.801648854961832,-7.283600666666667,112.796595,-0.012323997008870968,0.044209616897825064,3.113820855339874,-0.038194165882810764,0.0717369955489925,-0.0023473864588843913,0.004972082382772985,3.1141355437126985,-7.283564,112.796595,4.077147310277817,0.10021786492374728
2000-01-01 08:10:32.467052,0.11801498823242174,-0.20498436353759764,-0.27493129770992364,-7.283600666666667,112.796595,-0.012854684271648075,0.04520587807264823,3.1137554436432153,-0.03893003548718122,0.07308350060524535,-0.002413119074544714,0.005005818732069919,3.113944815293764,-7.283564,112.796595,4.077147310277817,0.10021786492374728
2000-01-01 08:10:32.481215,0.10125557661132811,-0.16188873365478518,-0.5268396946564885,-7.283600666666667,112.796595,-0.013414011270890305,0.04625259109567693,3.1136252178474906,-0.03949340881165073,0.07390715159996886,-0.0024937781996863897,0.005081363922303122,3.1138768569615105,-7.283564,112.796595,4.077147310277817,0.10021786492374728
2000-01-01 08:10:32.495140,0.06534255170898451,-0.08527428052978514,-0.7329465648854961,-7.283600666666667,112.796595,-0.013964936342476298,0.04727775383591427,3.1134470775750462,-0.03956217010432499,0.07361738429715844,-0.002560691008608065,0.0051404967861795065,3.1137488102917574,-7.283564,112.796595,4.077147310277817,0.10021786492374728
2000-01-01 08:10:32.509019,0.0749193583496095,-0.09485108717041013,-1.2214961832061069,-7.283600666666667,112.796595,-0.014516663579961382,0.04829735080354208,3.113151190613438,-0.039752832451666525,0.07346359698877766,-0.002616398593257615,0.00518431498157822,3.1135712662804975,-7.283564,112.796595,4.077147310277817,0.10021786492374728
2000-01-01 08:10:32.523231,0.03421793012695318,-0.16428293531494143,-1.5268396946564886,-7.283600666666667,112.796595,-0.015076165252100919,0.04935323514671515,3.112772463511875,-0.03936822321042026,0.07429520335027393,-0.002676031837669933,0.005238803839078431,3.1132682785400982,-7.283564,112.796595,4.077147310277817,0.10021786492374728
2000-01-01 08:10:32.537832,0.09407297163085948,-0.18104234693603516,-1.7634809160305343,-7.283600666666667,112.796595,-0.015658032725049325,0.050454725065560126,3.112323058830237,-0.03985057753269632,0.07543815637260627,-0.0027331935945175885,0.005316503613228511,3.112879179400634,-7.283564,112.796595,4.077147310277817,0.10021786492374728
2000-01-01 08:10:32.551719,0.0509773417480468,-0.22174377515869137,-1.1298931297709922,-7.283600666666667,112.796595,-0.016208739696884696,0.05152351274072626,3.1120492130682975,-0.03965786097790304,0.0769662183418039,-0.0027638882494372802,0.005351851795978171,3.112451774575884,-7.283564,112.796595,4.077147310277817,0.10021786492374728
2000-01-01 08:10:32.565017,0.06534255170898451,-0.2289263801391601,-0.5573740458015266,-7.283600666666667,112.796595,-0.016735725035678547,0.05256657268928989,3.111919844985277,-0.039627392779310947,0.07843433817096775,-0.002769386177963001,0.0053644606797540895,3.1121895232039063,-7.283564,112.796595,4.077147310277817,0.10021786492374728
2000-01-01 08:10:32.583244,0.06055414838867179,-0.2624452033813477,-0.6413435114503816,-7.283600666666667,112.796595,-0.01746071600161221,0.05405358847194043,3.111715821586914,-0.039775961861887504,0.08158375185070166,-0.0029275307971200143,0.00569649911807547,3.112012212067279,-7.283564,112.796595,4.077147310277817,0.10021786492374728
2000-01-01 08:10:32.599242,-0.059155934619140815,-0.11639890211181647,-1.3589007633587786,-7.283600666666667,112.796595,-0.018068589544578868,0.055361345131792056,3.1113364063385016,-0.03799824782794153,0.08174802511911385,-0.002986248319067982,0.005867128541113072,3.1118331441660194,-7.283564,112.796595,4.077147310277817,0.10021786492374728
2000-01-01 08:10:32.613021,-0.0016950947753904266,-0.1331583137329102,-1.2214961832061069,-7.283600666666667,112.796595,-0.01858063428758841,0.0564900014257856,3.111042644019366,-0.0371604791768057,0.08190965591054998,-0.0029441881549636634,0.005866812372477181,3.1115063368904767,-7.283564,112.796595,4.077147310277817,0.10021786492374728
2000-01-01 08:10:32.628280,-0.04239652299804675,-0.13555251539306645,-1.6413435114503816,-7.283600666666667,112.796595,-0.01912570701657609,0.05774550193486494,3.1106055141419695,-0.03572077009287113,0.08227791017833072,-0.002943431758620493,0.0059663127596534145,3.1111810226140437,-7.283564,112.796595,4.077147310277817,0.10021786492374728
2000-01-01 08:10:32.643425,0.19941784467773438,-0.15949453199462893,-1.435236641221374,-7.283600666666667,112.796595,-0.019699540853413678,0.05900388345679579,3.110226148231666,-0.0378903599940687,0.08309117694873595,-0.0029202959745991642,0.0060452900625258855,3.110747177938219,-7.283564,112.796595,4.077147310277817,0.10021786492374728
2000-01-01 08:10:32.658916,0.23293666791992207,-0.17385974195556642,-1.6795114503816793,-7.283600666666667,112.796595,-0.020328244654783886,0.06030797753756503,3.109772039253845,-0.04058320434772717,0.08418004862253971,-0.0029382469419028103,0.006143135003272853,3.1103591163719058,-7.283564,112.796595,4.077147310277817,0.10021786492374728
2000-01-01 08:10:32.674206,0.20899465131835937,-0.2432915901000977,-1.114625954198473,-7.283600666666667,112.796595,-0.020982420289172084,0.06162659922305366,3.109474588806521,-0.042784479892984,0.08624066691509118,-0.0029810708882730113,0.006224059082705447,3.1099109198892023,-7.283564,112.796595,4.077147310277817,0.10021786492374728
2000-01-01 08:10:32.689262,0.1563222147949217,-0.2624452033813477,-0.969587786259542,-7.283600666666667,112.796595,-0.021646489327255984,0.06295840064811792,3.1092198155236703,-0.04410865879678937,0.08846064381007208,-0.003036979892907361,0.006301677845052055,3.1096180357197376,-7.283564,112.796595,4.077147310277817,0.10021786492374728
2000-01-01 08:10:32.704136,0.19941784467773438,-0.16907133863525392,-1.0306564885496183,-7.283600666666667,112.796595,-0.022331455881262362,0.06428589530889724,3.108952257151153,-0.0460513249340423,0.08924944964712202,-0.0030943833979698208,0.006382435883868981,3.109366330779259,-7.283564,112.796595,4.077147310277817,0.10021786492374728
2000-01-01 08:10:32.717550,0.2042062479980471,-0.09963949049072263,-0.801648854961832,-7.283600666666667,112.796595,-0.02297223592460731,0.06547786687554813,3.108764579332805,-0.047770256728346915,0.08886167467788986,-0.003114593595698942,0.006359313919161886,3.1091250388968596,-7.283564,112.796595,4.077147310277817,0.10021786492374728
2000-01-01 08:10:32.731632,0.1658990214355467,-0.1786481452758789,-1.0993587786259542,-7.283600666666667,112.796595,-0.023662590711209262,0.06674001751907302,3.1084943690790063,-0.04902158299665977,0.08962438405097657,-0.0031788294138057832,0.006387519201802228,3.1089280024563744,-7.283564,112.796595,4.077147310277817,0.10021786492374728
2000-01-01 08:10:32.747068,0.15392801313476578,-0.12358150709228521,-1.4428702290076336,-7.283600666666667,112.796595,-0.024439088270155857,0.06812579589952933,3.1081056574862758,-0.05030570526601858,0.08977820724359849,-0.003300841089159641,0.006517237446030599,3.108631833408576,-7.283564,112.796595,4.077147310277817,0.10021786492374728
2000-01-01 08:10:32.761968,-0.035213918017578116,-0.1331583137329102,-1.336,-7.283600666666667,112.796595,-0.025165019291546735,0.06946544086568122,3.107758223204874,-0.04871991402171101,0.08990852525559023,-0.0033972863134805863,0.006587849705201488,3.1082566069256634,-7.283564,112.796595,4.077147310277817,0.10021786492374728
2000-01-01 08:10:32.778674,0.04858314008789044,-0.14034091871337895,-0.9008854961832061,-7.283600666666667,112.796595,-0.025974615292005634,0.07097620452691417,3.1074955516907736,-0.04846211224805211,0.09043374484242671,-0.0035265573922384774,0.006774336599902821,3.10786706891631,-7.283564,112.796595,4.077147310277817,0.10021786492374728
2000-01-01 08:10:32.796606,0.10125557661132811,-0.14034091871337895,-1.1298931297709922,-7.283600666666667,112.796595,-0.026856644550001224,0.07261076596134125,3.1071419180952358,-0.04918630633828724,0.09115121603243052,-0.0036732443882827835,0.007016056175608559,3.107585110057734,-7.283564,112.796595,4.077147310277817,0.10021786492374728
2000-01-01 08:10:32.812247,0.1563222147949217,-0.09963949049072263,-1.183328244274809,-7.283600666666667,112.796595,-0.027647179286512228,0.07403307859546791,3.1068188953131464,-0.050544092429795934,0.09093781452368103,-0.003713912073439381,0.007056991233263087,3.1072766738955715,-7.283564,112.796595,4.077147310277817,0.10021786492374728
2000-01-01 08:10:32.827396,0.2401192729003907,-0.16428293531494143,-1.5115725190839695,-7.283600666666667,112.796595,-0.02845024862452829,0.07542200051852789,3.106419226283495,-0.05301013419238169,0.09168191840824265,-0.003746655406287406,0.007054246122280989,3.106963794662073,-7.283564,112.796595,4.077147310277817,0.10021786492374728
2000-01-01 08:10:32.842577,0.2664554911621093,-0.12597570875244146,-1.2291297709923663,-7.283600666666667,112.796595,-0.029298043697545077,0.07681657452732044,3.1060935540412373,-0.05584512270900589,0.0918620066647496,-0.0038079176913147126,0.0070659101224141655,3.106563285925532,-7.283564,112.796595,4.077147310277817,0.10021786492374728
2000-01-01 08:10:32.858017,0.3215221293457029,-0.18104234693603516,-1.0230229007633587,-7.283600666666667,112.796595,-0.030216578581150275,0.07825147718231829,3.1058178776345624,-0.0594920286363152,0.09293633956110944,-0.0039075374930703675,0.007098108972106934,3.106232069411853,-7.283564,112.796595,4.077147310277817,0.10021786492374728
2000-01-01 08:10:32.872403,0.33828154096679697,-0.1834365485961914,-0.7634809160305344,-7.283600666666667,112.796595,-0.031122561250663084,0.0796013955944513,3.1056261765572826,-0.06297539355272577,0.09383363074026839,-0.003989569146965015,0.007064018736227376,3.1059752003951684,-7.283564,112.796595,4.077147310277817,0.10021786492374728
2000-01-01 08:10:32.886235,0.26406128950195296,-0.15710033033447268,-0.7863816793893129,-7.283600666666667,112.796595,-0.03202463547198142,0.08090457958934985,3.1054363317894285,-0.0652160354862866,0.09421452431293094,-0.0040756328151973905,0.007010616307230631,3.1057908842277606,-7.283564,112.796595,4.077147310277817,0.10021786492374728
2000-01-01 08:10:32.899719,0.22814826459960935,-0.18583075025634765,-0.7634809160305344,-7.283600666666667,112.796595,-0.03292586823718288,0.08218416204906552,3.1052566492598133,-0.06683541868037926,0.09489383068762351,-0.004159421469544763,0.006950600340182676,3.105605812084595,-7.283564,112.796595,4.077147310277817,0.10021786492374728
2000-01-01 08:10:32.914387,0.17547582807617168,-0.15949453199462893,-1.0153893129770992,-7.2836005,112.79659566666666,-0.03392228714851193,0.08358310409134337,3.104996719629768,-0.06793539870873098,0.09537924695326032,0.013064951877333966,0.007001459805640964,3.1054103685148093,-7.283564,112.796596,4.058781345253881,0.09803921568627451
2000-01-01 08:10:32.928448,0.17787002973632804,-0.19061915357666015,-1.1756946564885495,-7.2836005,112.79659566666666,-0.03489155786532376,0.08493566875488685,3.1047081749349275,-0.06892930670159521,0.09618710532573305,0.02794331237387071,0.007005752613796404,3.105161166736235,-7.283564,112.796596,4.058781345253881,0.09803921568627451
2000-01-01 08:10:32.942115,0.1898410380371094,-0.14512932203369144,-1.1756946564885495,-7.2836005,112.79659566666666,-0.035848460328973965,0.08625173351756187,3.104427746545731,-0.07001927462073597,0.09630020146975088,0.040386454472267734,0.006991910485565727,3.1048807383470383,-7.283564,112.796596,4.058781345253881,0.09803921568627451
2000-01-01 08:10:32.956385,0.24730187788085933,-0.14034091871337895,-0.8169160305343511,-7.2836005,112.79659566666666,-0.036875909827879014,0.0876282671182353,3.1042242891183984,-0.07200152949033341,0.09646461918463856,0.05078835801288551,0.00703064396525745,3.1045879251309954,-7.283564,112.796596,4.058781345253881,0.09803921568627451
2000-01-01 08:10:32.969659,0.22335986127929708,-0.19061915357666015,-0.801648854961832,-7.2836005,112.79659566666666,-0.037849918025075105,0.08891755963357996,3.1040385544108666,-0.0733721237366394,0.09712251933907128,0.059508659996783037,0.0069908053107441415,3.104398653158522,-7.283564,112.796596,4.058781345253881,0.09803921568627451
2000-01-01 08:10:32.983989,0.1204091898925781,-0.09485108717041013,-0.8321832061068702,-7.2836005,112.79659566666666,-0.038903754016567545,0.09030141205735534,3.1038304306230393,-0.0735440632007639,0.09657492336215896,0.06677280533924843,0.007049054483037101,3.1041981658199433,-7.283564,112.796596,4.058781345253881,0.09803921568627451
2000-01-01 08:10:32.999056,0.319127927685547,-0.13555251539306645,-1.4276030534351145,-7.2836005,112.79659566666666,-0.040059485093695245,0.09176025653072756,3.1034550131158762,-0.07670560604660129,0.09682317251159901,0.07285590479034162,0.007146638805341334,3.1039793261754163,-7.283564,112.796596,4.058781345253881,0.09803921568627451
2000-01-01 08:10:33.013280,0.23772507124023434,-0.16907133863525392,-1.0993587786259542,-7.2836005,112.79659566666666,-0.0411745514663128,0.09314525027723024,3.1031820878133085,-0.07839235921481216,0.09736902659098037,0.07796828676643006,0.007164758078214475,3.1036249113993843,-7.283564,112.796596,4.058781345253881,0.09803921568627451
2000-01-01 08:10:33.027471,0.27842649946289066,-0.14512932203369144,-0.42760305343511446,-7.2836005,112.79659566666666,-0.042318536203527504,0.09453007137463046,3.1030761825522837,-0.08061592854843544,0.09758752456102851,0.08224173550895088,0.007184369096451198,3.10335263112104,-7.283564,112.796596,4.058781345253881,0.09803921568627451
2000-01-01 08:10:33.041616,0.29279170942382793,-0.15710033033447268,-0.38943511450381674,-7.2836005,112.79659566666666,-0.04349224294476935,0.09591586237903033,3.1029800383147497,-0.08297529693689742,0.09796861178534091,0.0858053831793436,0.007200407051046956,3.103247063934085,-7.283564,112.796596,4.058781345253881,0.09803921568627451
2000-01-01 08:10:33.056356,0.3909539774902342,-0.15470612867431643,0.3052213740458015,-7.2836005,112.79659566666666,-0.04477275981130722,0.09736717242955459,3.103058560615977,-0.08687295514540745,0.0984599236573543,0.08873936458264889,0.007264409030893827,3.1031468765161323,-7.283564,112.796596,4.058781345253881,0.09803921568627451
2000-01-01 08:10:33.071055,0.21138885297851573,-0.06372646558837891,-0.053557251908396886,-7.2836005,112.79659566666666,-0.046068360066035034,0.09880068442672217,3.103044820848114,-0.08814288915607732,0.09752536602950417,0.0911619649196639,0.007319139769641958,3.1032251790928473,-7.283564,112.796596,4.058781345253881,0.09803921568627451
2000-01-01 08:10:33.085051,0.23293666791992207,-0.0733032722290039,1.6945343511450381,-7.2836005,112.79659566666666,-0.04732148336408739,0.10015411727835268,3.103458755548918,-0.08953435589895296,0.09670136914025912,0.0932249301422369,0.0072985593822472794,3.103212096321743,-7.283564,112.796596,4.058781345253881,0.09803921568627451
2000-01-01 08:10:33.100564,0.2042062479980471,-0.07090907056884765,-0.30546564885496175,-7.2836005,112.79659566666666,-0.0487301314825393,0.10164278859550369,3.1033760501328955,-0.09080469735061823,0.09596317677760643,0.09484450986097014,0.007387161802024586,3.103670894779118,-7.283564,112.796596,4.058781345253881,0.09803921568627451
2000-01-01 08:10:33.117989,0.1467454081542967,-0.14991772535400394,-0.1451603053435114,-7.2836005,112.79659566666666,-0.050322712863864257,0.10332778029079823,3.1033319026983,-0.09139478235550479,0.09669800932505987,0.09607446951147722,0.007589012368697561,3.103577993867108,-7.283564,112.796596,4.058781345253881,0.09803921568627451
2000-01-01 08:10:33.130682,0.1251975932128908,-0.11161049879150386,-0.09935877862595414,-7.2836005,112.79659566666666,-0.05147869033132019,0.10454901412914634,3.103309890790989,-0.09106999343833588,0.09621100823859867,0.09742342410939668,0.0074029111352627575,3.1035458351063965,-7.283564,112.796596,4.058781345253881,0.09803921568627451
2000-01-01 08:10:33.144306,0.22335986127929708,-0.11879310377197272,-0.04592366412213736,-7.2836005,112.79659566666666,-0.05273432436181407,0.10585666272588533,3.1032989714096995,-0.09216774156048028,0.09598578486181814,0.09848281752203274,0.007319885343584691,3.103522210327995,-7.283564,112.796596,4.058781345253881,0.09803921568627451
2000-01-01 08:10:33.159710,0.225754062939453,-0.09245688551025388,-0.2214961832061068,-7.2836005,112.79659566666666,-0.05417731316519779,0.10732915188952713,3.1032394221003243,-0.09367632543434412,0.09559143755544078,0.09923292998684907,0.007384286725280485,3.103509863738348,-7.283564,112.796596,4.058781345253881,0.09803921568627451
2000-01-01 08:10:33.174796,0.2760322978027343,-0.09724528883056638,1.648732824427481,-7.2836005,112.79659566666666,-0.055622978017815045,0.10876643837717302,3.103673542502263,-0.09582637905054747,0.09527101632168547,0.09986988909786527,0.007405833971162122,3.1034515425776013,-7.283564,112.796596,4.058781345253881,0.09803921568627451
2000-01-01 08:10:33.187633,0.13956280317382808,-0.06612066724853516,-0.8321832061068702,-7.2836005,112.79659566666666,-0.05685064232163531,0.1099765290927791,3.103487089365987,-0.09563266318442448,0.09426371481849063,0.10054073753408975,0.007251684442964626,3.1038209460980517,-7.283564,112.796596,4.058781345253881,0.09803921568627451
2000-01-01 08:10:33.201865,0.3215221293457029,-0.1475235236938477,-0.7787480916030534,-7.2836005,112.79659566666666,-0.05824713548857385,0.11132297990716013,3.1032936498754915,-0.09812237203174472,0.09460622569373228,0.10099612324063142,0.007220521099609294,3.1036142334304713,-7.283564,112.796596,4.058781345253881,0.09803921568627451
2000-01-01 08:10:33.217224,0.2951859110839843,-0.15949453199462893,-0.5039389312977098,-7.2836005,112.79659566666666,-0.05979082204519138,0.11278643544348303,3.10315856208633,-0.10050746195540414,0.09528372259890223,0.10126370376140223,0.007281893741530603,3.1034054792511947,-7.283564,112.796596,4.058781345253881,0.09803921568627451
2000-01-01 08:10:33.231874,0.3406757426269533,-0.19540755689697265,-0.11462595419847323,-7.2836005,112.79659566666666,-0.0613037627785956,0.11419818842812285,3.10312925450982,-0.10327669699043485,0.09636939636883506,0.10151671419117486,0.007285661563410589,3.1032766320901075,-7.283564,112.796596,4.058781345253881,0.09803921568627451
2000-01-01 08:10:33.245720,0.40771338911132804,-0.19061915357666015,0.3052213740458015,-7.2836005,112.79659566666666,-0.06278030621356269,0.11554456304588061,3.1032030139964735,-0.10664012665552337,0.09723896795942849,0.10175922372004935,0.007241450107106234,3.103248931698661,-7.283564,112.796596,4.058781345253881,0.09803921568627451
2000-01-01 08:10:33.259807,0.4101075907714844,-0.1978017585571289,0.5113282442748092,-7.2836005,112.79659566666666,-0.06433073586285466,0.11692847076760227,3.1033287321982876,-0.11006039180076206,0.09823949518660273,0.10190055944127553,0.007235337271424327,3.103323975240124,-7.283564,112.796596,4.058781345253881,0.09803921568627451
2000-01-01 08:10:33.273482,0.34785834760742196,-0.18583075025634765,0.763236641221374,-7.2836005,112.79659566666666,-0.06586814271042449,0.11828150780822597,3.1035108996043346,-0.11242288242946942,0.09894083949294163,0.10201236917683526,0.007211712448144898,3.103446017782197,-7.283564,112.796596,4.058781345253881,0.09803921568627451
2000-01-01 08:10:33.286458,0.4101075907714844,-0.1379467170532227,0.5952977099236642,-7.2836005,112.79659566666666,-0.06736457438342494,0.11956504154498496,3.1036457232516246,-0.11531940676121254,0.0989128683598794,0.10213740764816873,0.007148339472722627,3.103618876414104,-7.283564,112.796596,4.058781345253881,0.09803921568627451
2000-01-01 08:10:33.299974,0.39813658247070327,-0.027813440686035196,-0.5650076335877862,-7.2836005,112.79659566666666,-0.06896305921832156,0.12088287079867838,3.10351244153598,-0.11826864712635984,0.09750351055907369,0.10215676330449455,0.007141089127754623,3.103759303366558,-7.283564,112.796596,4.058781345253881,0.09803921568627451
2000-01-01 08:10:33.314435,0.26406128950195296,-0.04457285230712893,-2.129893129770992,-7.2836005,112.79659566666666,-0.07069289406663991,0.12227591337864904,3.1029748630464056,-0.11961838634310523,0.09632914129653469,0.1020495467363355,0.007192834034990924,3.1036166971737793,-7.283564,112.796596,4.058781345253881,0.09803921568627451
2000-01-01 08:10:33.328871,0.5106640604980468,-0.06612066724853516,0.053312977099236686,-7.2836005,112.79659566666666,-0.07248878540610983,0.1236561705672651,3.1029882950079903,-0.12440874747019294,0.09561606777007955,0.10194792216185052,0.007217893112395323,3.1030800803075853,-7.283564,112.796596,4.058781345253881,0.09803921568627451
2000-01-01 08:10:33.342907,0.4915104472167968,-0.11161049879150386,0.5494961832061069,-7.2836005,112.79659566666666,-0.07429411550120026,0.1249966192244738,3.1031229115126795,-0.12861758767445447,0.09549792204788438,0.10184523651252744,0.007198735235854929,3.103093141010919,-7.283564,112.796596,4.058781345253881,0.09803921568627451
2000-01-01 08:10:33.357200,0.4891162455566407,-0.17385974195556642,0.8395725190839696,-7.2836005,112.79659566666666,-0.07619221044280743,0.1263728069759779,3.1033323522909697,-0.13279822527231608,0.09628353515683492,0.10168314007320475,0.007200337188270508,3.103230218994848,-7.283564,112.796596,4.058781345253881,0.09803921568627451
2000-01-01 08:10:33.370429,0.3263105326660156,-0.14512932203369144,0.6945343511450381,-7.2836005,112.79659566666666,-0.07796883974086553,0.12764807264690753,3.1034927132055716,-0.13429795304015024,0.09639915843750811,0.10160899710905416,0.0071301411677816935,3.1034240677466243,-7.283564,112.796596,4.058781345253881,0.09803921568627451
2000-01-01 08:10:33.384945,0.22335986127929708,-0.15949453199462893,0.6716335877862596,-7.2836005,112.79659566666666,-0.07992404559935277,0.12905399398438816,3.10366286308551,-0.1347009371244964,0.09685881456415533,0.1013900246112284,0.007172370451766684,3.1036000192454916,-7.283564,112.796596,4.058781345253881,0.09803921568627451
2000-01-01 08:10:33.399720,0.16350481977539078,-0.17625394361572266,1.0914809160305343,-7.2836005,112.79659566666666,-0.08190806965374704,0.1304955213998507,3.103944337959664,-0.13427674776222237,0.09756112216970615,0.10117654950133902,0.007230857588922062,3.1037732224383494,-7.283564,112.796596,4.058781345253881,0.09803921568627451
2000-01-01 08:10:33.414460,0.1706874247558594,-0.14991772535400394,1.564763358778626,-7.2836005,112.79659566666666,-0.08388286835838263,0.13193807427541138,3.1043468943670964,-0.133974494028223,0.09786581850521485,0.10101024338924855,0.007283017240872989,3.1040540205755716,-7.283564,112.796596,4.058781345253881,0.09803921568627451
2000-01-01 08:10:33.429072,0.216177256298828,-0.015842432385253957,1.312854961832061,-7.2836005,112.79659566666666,-0.08584632692708608,0.13334439813824708,3.104681691181307,-0.13437997076801636,0.09624942567696676,0.10089106867456123,0.007318356007254656,3.104453057638113,-7.283564,112.796596,4.058781345253881,0.09803921568627451
2000-01-01 08:10:33.442825,0.2568786845214843,0.03204160081787111,0.664,-7.2836005,112.79659566666666,-0.08770540076430443,0.13463752871576692,3.104841083453143,-0.13516829177447956,0.0940200694052221,0.10087804544604165,0.007262404305029742,3.1047682066365425,-7.283564,112.796596,4.058781345253881,0.09803921568627451
2000-01-01 08:10:33.457329,0.25209028120117205,0.0033111808959960243,1.228885496183206,-7.2836005,112.79659566666666,-0.08967857691975399,0.13597509661296325,3.1051521580495294,-0.13604735365974976,0.09222317645143936,0.10077601117958451,0.00724636844837417,3.104936288636568,-7.283564,112.796596,4.058781345253881,0.09803921568627451
2000-01-01 08:10:33.470302,0.2305424662597657,-0.011054029064941462,0.9617099236641222,-7.2836005,112.79659566666666,-0.09144621296291444,0.1371508175360194,3.10536991709459,-0.13625050172972403,0.09062531072523235,0.10084394228351021,0.007100180262278419,3.105214543987327,-7.283564,112.796596,4.058781345253881,0.09803921568627451
2000-01-01 08:10:33.483994,0.26406128950195296,0.00809958421630863,0.847206106870229,-7.2836005,112.79659566666666,-0.093322966079734,0.13836709376022932,3.105572372898905,-0.1370702985458097,0.08883179341625332,0.10081571979885487,0.007015093008958911,3.1054443626283095,-7.283564,112.796596,4.058781345253881,0.09803921568627451
2000-01-01 08:10:33.498009,0.328704734326172,-0.04696705396728518,0.7785038167938931,-7.2836005,112.79659566666666,-0.09526847110076629,0.13959845916511932,3.105762798906241,-0.13881749656336184,0.08786153775684495,0.10074614455605134,0.006946351469450963,3.105651593566478,-7.283564,112.796596,4.058781345253881,0.09803921568627451
2000-01-01 08:10:33.512277,0.4148959940917969,0.055983617419433584,1.1601832061068702,-7.2836005,112.79659566666666,-0.09729257750460348,0.14081874780136394,3.106051705460636,-0.14186651046972726,0.08552815714712447,0.10063979958710144,0.006894155446753433,3.1058454550653427,-7.283564,112.796596,4.058781345253881,0.09803921568627451
2000-01-01 08:10:33.527651,0.4962988505371093,-0.03260184400634769,0.763236641221374,-7.2836005,112.79659566666666,-0.09954467922226437,0.14211899363652164,3.106256506431647,-0.14648480243767012,0.08457266951570132,0.10039247565700453,0.006894381512549964,3.1061567695834467,-7.283564,112.796596,4.058781345253881,0.09803921568627451
2000-01-01 08:10:33.542532,0.4196843974121094,-0.03499604566650394,0.747969465648855,-7.2836005,112.79659566666666,-0.1017716613592805,0.14336313018942917,3.1064507695280885,-0.14965377049131282,0.08360629528809253,0.1001892038043282,0.006844881429740402,3.1063549978802567,-7.283564,112.796596,4.058781345253881,0.09803921568627451
2000-01-01 08:10:33.556877,0.4220785990722655,-0.10203369215087887,0.7937709923664122,-7.2836005,112.79659566666666,-0.1039599394735942,0.14456205831593702,3.106649511268888,-0.152540799707135,0.0835750510927358,0.10004522366952723,0.0067543156125139565,3.1065422719871436,-7.283564,112.796596,4.058781345253881,0.09803921568627451
2000-01-01 08:10:33.570163,0.41250179243164053,-0.06612066724853516,0.9998778625954199,-7.2836005,112.79659566666666,-0.10601696112324586,0.1456641259822889,3.1068813652157408,-0.1548277098828273,0.08295032429341183,0.10001607010890805,0.006609434940267814,3.1067263334054047,-7.283564,112.796596,4.058781345253881,0.09803921568627451
2000-01-01 08:10:33.585332,0.38377137250976556,-0.10203369215087887,1.297587786259542,-7.2836005,112.79659566666666,-0.10840425302507466,0.14692319418939684,3.1072248981314496,-0.15738063236578095,0.08300323495191497,0.09973143870845823,0.006605442752278316,3.10699104841053,-7.283564,112.796596,4.058781345253881,0.09803921568627451
2000-01-01 08:10:33.598172,0.40771338911132804,-0.049361255627441425,1.1372824427480916,-7.2836005,112.79659566666666,-0.11045017358048145,0.14797786047240383,3.1074797640873513,-0.1593392028451392,0.08213891021226186,0.09975293388076259,0.006449513386960019,3.107281838929297,-7.283564,112.796596,4.058781345253881,0.09803921568627451
2000-01-01 08:10:33.616448,0.3622235575683592,-0.0230250373657227,0.9769770992366413,-7.2836005,112.79659566666666,-0.11342223590590021,0.14946053557422037,3.1077913942611977,-0.16262232353942963,0.08112752819794714,0.09906315903570405,0.006659917355520266,3.107644602320192,-7.283564,112.796596,4.058781345253881,0.09803921568627451
2000-01-01 08:10:33.633532,0.28321490278320294,-0.025419239025878948,0.763236641221374,-7.2836005,112.79659566666666,-0.11622560824539145,0.15082877484186943,3.1080189685399433,-0.16409456167772615,0.08008947642533684,0.09861410811687102,0.006730320711484902,3.1079359075939457,-7.283564,112.796596,4.058781345253881,0.09803921568627451
2000-01-01 08:10:33.648070,0.4005307841308592,-0.05414965894775392,0.8701068702290076,-7.2836005,112.79659566666666,-0.11864611331630112,0.1519838376320769,3.108239752133496,-0.16649038761098964,0.07944905960655538,0.09855623881546752,0.006609931001260245,3.1081295736068757,-7.283564,112.796596,4.058781345253881,0.09803921568627451
2000-01-01 08:10:33.660925,0.2856091044433593,-0.03260184400634769,0.7861374045801527,-7.2836005,112.79659566666666,-0.12078950273626002,0.15299149715282997,3.1084161241014097,-0.16674289986536905,0.0783898945300081,0.09869166734254022,0.006401176464553316,3.1083247843424333,-7.283564,112.796596,4.058781345253881,0.09803921568627451
2000-01-01 08:10:33.674276,0.3263105326660156,-0.015842432385253957,1.015145038167939,-7.2836005,112.79659566666666,-0.12302801598415727,0.15402178010605264,3.108652669332946,-0.16766829000774106,0.07716987208060305,0.09872350940568175,0.006252369293184826,3.1085079670871587,-7.283564,112.796596,4.058781345253881,0.09803921568627451
2000-01-01 08:10:33.690009,0.33828154096679697,-0.04217865064697268,0.9540763358778626,-7.2836005,112.79659566666666,-0.12569496858447654,0.1552245649169435,3.1089146616689263,-0.16950682980883058,0.07644689306136185,0.09841906293731524,0.00626042920146601,3.1087867290791573,-7.283564,112.796596,4.058781345253881,0.09803921568627451
2000-01-01 08:10:33.705422,0.40771338911132804,-0.01344823072509771,1.1907175572519084,-7.2836005,112.79659566666666,-0.1283500806096886,0.15638546988181293,3.1092349722145753,-0.17226527325988428,0.07532021590916216,0.09818998411565254,0.006234662826468258,3.1090433816411984,-7.283564,112.796596,4.058781345253881,0.09803921568627451
2000-01-01 08:10:33.718708,0.43883801069335937,0.022464794177246117,0.8090381679389314,-7.2836005,112.79659566666666,-0.13066904238542967,0.15736472615764469,3.1094225771867006,-0.1745402622086253,0.07370524557201821,0.0982520291723192,0.006072958302969231,3.1093194928841403,-7.283564,112.796596,4.058781345253881,0.09803921568627451
2000-01-01 08:10:33.733357,0.3694061625488283,0.0009169792358397766,0.5494961832061069,-7.2836005,112.79659566666666,-0.13325236160497655,0.15842512037637976,3.109563066714546,-0.17635028662748112,0.07238781138509723,0.09808250663542066,0.006001736058395896,3.109526339435029,-7.283564,112.796596,4.058781345253881,0.09803921568627451
2000-01-01 08:10:33.748472,0.3215221293457029,0.05119521409912109,0.48079389312977105,-7.283600833333334,112.79659716666667,-0.13593686199224764,0.15948820398846053,3.1096899014660875,-0.17760758900139798,0.07033402496190251,0.11526614709539532,0.005951609340936961,3.1096712980396743,-7.283564,112.796597,4.095721052670034,0.09586056644880174
2000-01-01 08:10:33.764458,0.2496960795410157,-0.03260184400634769,0.4731603053435115,-7.283600833333334,112.79659716666667,-0.13878152755902606,0.160600212888818,3.1098219158672284,-0.17794901028942853,0.06956209037807909,0.1301082923250545,0.005928884417270831,3.1098054422549795,-7.283564,112.796597,4.095721052670034,0.09586056644880174
2000-01-01 08:10:33.778145,0.22814826459960935,-0.06372646558837891,1.144916030534351,-7.283600833333334,112.79659716666667,-0.14120990244152523,0.16154628092852621,3.1100954173805286,-0.17742180870384225,0.06912157755032468,0.14275952463029257,0.005772740599428963,3.1099184724302007,-7.283564,112.796597,4.095721052670034,0.09586056644880174
2000-01-01 08:10:33.792115,0.23293666791992207,-0.11400470045166011,1.2823206106870229,-7.283600833333334,112.79659716666667,-0.1436828089674915,0.16251579772842265,3.1104080817192896,-0.1770122574854115,0.06939864310182174,0.15330177168142087,0.005655603800951891,3.110197633827624,-7.283564,112.796597,4.095721052670034,0.09586056644880174
2000-01-01 08:10:33.805688,0.2496960795410157,0.01767639085693362,1.213618320610687,-7.283600833333334,112.79659716666667,-0.14608240397504527,0.16343707242960873,3.110695568503119,-0.17679889926682846,0.0678782680324554,0.16216242446151777,0.005541528129369916,3.110501395085957,-7.283564,112.796597,4.095721052670034,0.09586056644880174
2000-01-01 08:10:33.818814,0.1108323832519531,0.06316622239990233,0.6487328244274809,-7.283600833333334,112.79659716666667,-0.14837579349526508,0.1643001779232538,3.1108441948759844,-0.17471298541903893,0.06575234437796332,0.16961998312272786,0.005407866077048419,3.1107794381912903,-7.283564,112.796597,4.095721052670034,0.09586056644880174
2000-01-01 08:10:33.833299,0.30715691938476564,0.0009169792358397766,0.5876641221374046,-7.283600833333334,112.79659716666667,-0.15091900904498035,0.1652352884125024,3.1109927615897215,-0.17557723200172778,0.06455768616876927,0.1757326859133303,0.005344757991501605,3.110943443615797,-7.283564,112.796597,4.095721052670034,0.09586056644880174
2000-01-01 08:10:33.849285,0.34306994428710924,0.00809958421630863,0.4349923664122137,-7.283600833333334,112.79659716666667,-0.1537554984271912,0.1662472255734668,3.111114124204914,-0.17744151595520338,0.0633034852938428,0.18069351637010508,0.005351152018749213,3.1111074015613256,-7.283564,112.796597,4.095721052670034,0.09586056644880174
2000-01-01 08:10:33.863446,0.30715691938476564,-0.058938062268066416,1.015145038167939,-7.283600833333334,112.79659716666667,-0.15627810732722652,0.16713918432253894,3.111365035976608,-0.17812888540710203,0.06298384890305772,0.18507522088527478,0.005245735243469139,3.1112149179271906,-7.283564,112.796597,4.095721052670034,0.09586056644880174
2000-01-01 08:10:33.877359,0.299974314404297,-0.049361255627441425,1.3891908396946566,-7.283600833333334,112.79659716666667,-0.1587634111770443,0.168009000185123,3.1117023650133246,-0.17863437915680913,0.06251912280457869,0.1887673344051814,0.005142356547663759,3.111461419623047,-7.283564,112.796597,4.095721052670034,0.09586056644880174
2000-01-01 08:10:33.891328,0.39813658247070327,-0.025419239025878948,1.2594198473282443,-7.283600833333334,112.79659716666667,-0.16128486281711477,0.16887199285623547,3.1120094245657923,-0.1804994700554551,0.06177779391921668,0.19184500279637737,0.005054321337677926,3.111800118682327,-7.283564,112.796597,4.095721052670034,0.09586056644880174
2000-01-01 08:10:33.904215,0.2592728861816407,-0.008659827404785214,1.7021679389312978,-7.283600833333334,112.79659716666667,-0.1636064886513683,0.16965481250002437,3.112392263031813,-0.18015919561725985,0.06074715195601139,0.1945409006451003,0.004920870058344543,3.112083377667178,-7.283564,112.796597,4.095721052670034,0.09586056644880174
2000-01-01 08:10:33.918400,0.319127927685547,-0.08048587720947264,0.6716335877862596,-7.283600833333334,112.79659716666667,-0.16617341249234505,0.1705169798227819,3.1125585449162547,-0.18095801357890698,0.060779398129506564,0.19662319085697902,0.004862220423174772,3.112504797467601,-7.283564,112.796597,4.095721052670034,0.09586056644880174
2000-01-01 08:10:33.932666,0.2951859110839843,0.08950244066162105,0.8014045801526717,-7.283600833333334,112.79659716666667,-0.16876276212554742,0.17135059212321915,3.1127580907770724,-0.18150022183311937,0.05843197670646594,0.19835417973784292,0.004816796606759125,3.1126720309795473,-7.283564,112.796597,4.095721052670034,0.09586056644880174
2000-01-01 08:10:33.947082,0.23293666791992207,0.0009169792358397766,0.8701068702290076,-7.283600833333334,112.79659716666667,-0.17137420834280637,0.17217722197725863,3.11297700247942,-0.18115990034706506,0.05734453996869399,0.19978428056607314,0.004756556981839789,3.112873657753123,-7.283564,112.796597,4.095721052670034,0.09586056644880174
2000-01-01 08:10:33.961773,0.3119453227050779,0.0966850456420898,0.48079389312977105,-7.283600833333334,112.79659716666667,-0.17404900091357042,0.1729842787745659,3.1131002840333033,-0.18206577699977233,0.05493413750686672,0.2009558387431215,0.004704133257117976,3.113096764012456,-7.283564,112.796597,4.095721052670034,0.09586056644880174
2000-01-01 08:10:33.977212,0.35743515424804695,0.08231983568115231,0.5265954198473283,-7.283600833333334,112.79659716666667,-0.1768877318573105,0.1737985972477087,3.113242182567131,-0.18386572085045966,0.05274372810724446,0.20183182069113423,0.004660461126796656,3.11322632068146,-7.283564,112.796597,4.095721052670034,0.09586056644880174
2000-01-01 08:10:33.991260,0.2305424662597657,0.044012609118652346,0.3891908396946565,-7.283600833333334,112.79659716666667,-0.17946373540282623,0.17451744812989298,3.1133376025041333,-0.18337803231478186,0.05117285670362034,0.20274825299298777,0.004536011441496657,3.113355428812132,-7.283564,112.796597,4.095721052670034,0.09586056644880174
2000-01-01 08:10:34.004061,0.2568786845214843,-0.06133226392822266,0.3739236641221374,-7.283600833333334,112.79659716666667,-0.18180524313511565,0.17517043910052887,3.1134211470463846,-0.18291016049713046,0.05100930549796165,0.2036932770763095,0.004364821522381951,3.1134423844495265,-7.283564,112.796597,4.095721052670034,0.09586056644880174
2000-01-01 08:10:34.017602,0.26406128950195296,-0.05175545728759767,0.5494961832061069,-7.283600833333334,112.79659716666667,-0.18427966092351067,0.17585796764938938,3.1135510120844123,-0.1827354595921538,0.05077390162161841,0.2043754948802032,0.004251761486515682,3.113530755601765,-7.283564,112.796597,4.095721052670034,0.09586056644880174
2000-01-01 08:10:34.031900,0.2664554911621093,-0.025419239025878948,0.5418625954198474,-7.283600833333334,112.79659716666667,-0.1868933036489992,0.17657597369211134,3.113686228625342,-0.18280284045936537,0.05021862506170577,0.20484007618615332,0.004184963459754574,3.1136678770302884,-7.283564,112.796597,4.095721052670034,0.09586056644880174
2000-01-01 08:10:34.046082,0.3622235575683592,-0.018236634045410205,0.5647633587786259,-7.283600833333334,112.79659716666667,-0.1895052723758292,0.1772795160839778,3.1138260223868515,-0.18417219408111404,0.04960738794770116,0.2052484073613195,0.004116983180660261,3.1138020022515116,-7.283564,112.796597,4.095721052670034,0.09586056644880174
2000-01-01 08:10:34.060427,0.27363809614257795,0.0009169792358397766,0.6410992366412214,-7.283600833333334,112.79659716666667,-0.1921495821918937,0.17797824829403158,3.1139865346796722,-0.18433451733078313,0.048708537820062105,0.20555317770653214,0.004058476109609818,3.113943402297616,-7.283564,112.796597,4.095721052670034,0.09586056644880174
2000-01-01 08:10:34.074736,0.34785834760742196,0.034435802478027355,-0.16806106870229,-7.283600833333334,112.79659716666667,-0.1948044442088095,0.17865630420447443,3.1139445631063887,-0.18553728353032786,0.04738651233234208,0.20581476468313897,0.003996456395851377,3.1141035104285506,-7.283564,112.796597,4.095721052670034,0.09586056644880174
2000-01-01 08:10:34.087767,0.3119453227050779,0.046406810778808594,-0.3970687022900763,-7.283600833333334,112.79659716666667,-0.19722590960022204,0.17925516293990698,3.113854257026328,-0.18582506750580063,0.04595686782592259,0.20620530293039202,0.0038811477703302724,3.1140652879843294,-7.283564,112.796597,4.095721052670034,0.09586056644880174
2000-01-01 08:10:34.100978,0.2401192729003907,-0.0062656257446289665,-0.351267175572519,-7.283600833333334,112.79659716666667,-0.19967286218198088,0.17985239222385738,3.1137732604438826,-0.18521399313304468,0.04520529793713103,0.20649616569380322,0.0037770280937851606,3.113973730303686,-7.283564,112.796597,4.095721052670034,0.09586056644880174
2000-01-01 08:10:34.115992,0.27363809614257795,0.0009169792358397766,-0.16042748091603048,-7.283600833333334,112.79659716666667,-0.202458445818216,0.18051900355173045,3.113731221948639,-0.18553471098964633,0.04439986595646294,0.20648258515736645,0.003745528078847975,3.113881684081896,-7.283564,112.796597,4.095721052670034,0.09586056644880174
2000-01-01 08:10:34.132299,0.2664554911621093,0.02964739915771486,-2.0382900763358776,-7.283600833333334,112.79659716666667,-0.20549307926381363,0.18122280311892655,3.1131511026255687,-0.1860939550913268,0.043159362538856445,0.20629071243812128,0.0037506818946569857,3.113836024691846,-7.283564,112.796597,4.095721052670034,0.09586056644880174
2000-01-01 08:10:34.149433,0.13716860151367172,-0.01344823072509771,-0.2672977099236641,-7.283600833333334,112.79659716666667,-0.20865708149523246,0.18195247617462498,3.113071171110618,-0.18466787102192986,0.042587571019970155,0.2060226546648854,0.0037604669008939073,3.113226503518777,-7.283564,112.796597,4.095721052670034,0.09586056644880174
2000-01-01 08:10:34.164664,0.16350481977539078,0.06077202073974608,-0.8245496183206107,-7.283600833333334,112.79659716666667,-0.21145117106135822,0.18257543662056583,3.112851971410777,-0.18344020667375568,0.040899187462846584,0.20611167625436042,0.00369296493701924,3.1131554446322265,-7.283564,112.796597,4.095721052670034,0.09586056644880174
2000-01-01 08:10:34.177185,0.22096565961914072,0.06077202073974608,-0.9161526717557251,-7.283600833333334,112.79659716666667,-0.21373625502784524,0.18306893452137746,3.112651765472396,-0.18250317657423287,0.03941427792226766,0.206587450213386,0.0035295906350353437,3.112975256618627,-7.283564,112.796597,4.095721052670034,0.09586056644880174
2000-01-01 08:10:34.189662,0.23772507124023434,0.027253197497558612,-1.0917251908396945,-7.283600833333334,112.79659716666667,-0.21600425248889807,0.18354778826274604,3.1124140186481144,-0.18176846453326248,0.038377692567683724,0.2069844241657538,0.00337992019254764,3.112775744516044,-7.283564,112.796597,4.095721052670034,0.09586056644880174
2000-01-01 08:10:34.202587,0.3167337260253906,0.02007059251708987,-1.534473282442748,-7.283600833333334,112.79659716666667,-0.21835846764293168,0.18403212891385978,3.1120678783242623,-0.18215062004674085,0.03747446352261141,0.20724743318320557,0.0032600228756946865,3.1125294775295553,-7.283564,112.796597,4.095721052670034,0.09586056644880174
2000-01-01 08:10:34.216738,0.24251347456054706,0.02007059251708987,-1.2138625954198472,-7.283600833333334,112.79659716666667,-0.22093212476678184,0.18454928804093407,3.1117680872547693,-0.18187746508838362,0.03654705601921104,0.20728108806941553,0.003186929455191903,3.1121505043342466,-7.283564,112.796597,4.095721052670034,0.09586056644880174
2000-01-01 08:10:34.230966,0.27842649946289066,-0.04457285230712893,-1.152793893129771,-7.283600833333334,112.79659716666667,-0.22352313126588802,0.18506939418807591,3.111481812276577,-0.1821017615072055,0.03655422925335456,0.20730284822322745,0.003116341776092211,3.1118490640767096,-7.283564,112.796597,4.095721052670034,0.09586056644880174
2000-01-01 08:10:34.244659,0.23533086958007798,-0.037390247326660186,-1.1298931297709922,-7.283600833333334,112.79659716666667,-0.22600985474894028,0.18556811356327893,3.1112117748909025,-0.1816010420980602,0.03642059877931996,0.20739609060855138,0.0030416446746135374,3.111573553551935,-7.283564,112.796597,4.095721052670034,0.09586056644880174
2000-01-01 08:10:34.258441,0.31433952436523427,-0.020630835705566453,-1.0764580152671754,-7.283600833333334,112.79659716666667,-0.22852104030645348,0.1860656639292843,3.1109528373672672,-0.1822041557012093,0.03610077482550348,0.20746532571948526,0.0029803375999169876,3.111301762432499,-7.283564,112.796597,4.095721052670034,0.09586056644880174
2000-01-01 08:10:34.271509,0.29758011274414065,0.03922420579833985,-0.8474503816793892,-7.283600833333334,112.79659716666667,-0.23090437029585154,0.18652295379971057,3.1107595570709106,-0.18238463236942795,0.03499416584147519,0.20761703034303364,0.002905343957471821,3.1110562517469127,-7.283564,112.796597,4.095721052670034,0.09586056644880174
2000-01-01 08:10:34.285862,0.309551121044922,0.02964739915771486,-1.114625954198473,-7.283600833333334,112.79659716666667,-0.23353237220152187,0.1870111302908696,3.1104803415869218,-0.18310183481525064,0.03401291720984894,0.2075534584180542,0.002866152928113623,3.1108439641471257,-7.283564,112.796597,4.095721052670034,0.09586056644880174
2000-01-01 08:10:34.299649,0.3789829691894533,0.13978067552490236,-1.2901984732824427,-7.283600833333334,112.79659716666667,-0.23607783042725147,0.1874469024917559,3.1101698661986044,-0.184617423794062,0.03160575973138916,0.2075763994809977,0.002805573796166685,3.1105757388057347,-7.283564,112.796597,4.095721052670034,0.09586056644880174
2000-01-01 08:10:34.313567,0.35743515424804695,0.05119521409912109,-1.5650076335877863,-7.283600833333334,112.79659716666667,-0.23866403716242007,0.1878704316061132,3.109789707846295,-0.18582003159107138,0.030430743350638938,0.20755887624617006,0.0027298581122081667,3.1102623347588607,-7.283564,112.796597,4.095721052670034,0.09586056644880174
2000-01-01 08:10:34.327343,0.36701196088867194,-0.025419239025878948,-1.336,-7.283600833333334,112.79659716666667,-0.24124064251965913,0.18828815861546674,3.109468499792742,-0.18704465637940376,0.030324242207061546,0.20755140283790685,0.0026489306714169198,3.10988606750154,-7.283564,112.796597,4.095721052670034,0.09586056644880174
2000-01-01 08:10:34.340972,0.3957423808105469,-0.01344823072509771,-0.984854961832061,-7.283600833333334,112.79659716666667,-0.2438109422587184,0.18869797987979076,3.109234219832179,-0.18858114780791946,0.03006830808402118,0.20755184034720453,0.0025763205886996706,3.1095682562100886,-7.283564,112.796597,4.095721052670034,0.09586056644880174
2000-01-01 08:10:34.353875,0.34785834760742196,-0.06372646558837891,-0.6413435114503816,-7.283600833333334,112.79659716666667,-0.24625192262483792,0.1890904274190936,3.1090897896591745,-0.189179654345728,0.03041527529865768,0.20764070831671558,0.0024956573821786608,3.1093464674650835,-7.283564,112.796597,4.095721052670034,0.09586056644880174
2000-01-01 08:10:34.368417,0.2856091044433593,0.005705382556152272,-0.7711145038167939,-7.283600833333334,112.79659716666667,-0.24900700729744915,0.18952461181087257,3.1088940861881187,-0.18946659992411954,0.029858770319576913,0.20745981719969153,0.002471335464451684,3.109183698964804,-7.283564,112.796597,4.095721052670034,0.09586056644880174
2000-01-01 08:10:34.382915,0.28321490278320294,0.04880101243896484,-1.1069923664122137,-7.283600833333334,112.79659716666667,-0.25175773267679313,0.18994074303930997,3.1086139615065242,-0.18972206902394267,0.028701257580080727,0.20731731838430742,0.00244186915819873,3.108988568256221,-7.283564,112.796597,4.095721052670034,0.09586056644880174
2000-01-01 08:10:34.396851,0.28321490278320294,0.024858995837402365,-1.435236641221374,-7.283600833333334,112.79659716666667,-0.2544027212579286,0.19032977294366626,3.108264887057266,-0.18980455073330374,0.027916810962741418,0.20728345608363588,0.0023895152392677064,3.1087193285088928,-7.283564,112.796597,4.095721052670034,0.09586056644880174
2000-01-01 08:10:34.411105,0.23772507124023434,0.00809958421630863,-1.5726412213740457,-7.283600833333334,112.79659716666667,-0.25710151133652676,0.1907197336565018,3.107873637481292,-0.1893312262168111,0.02735734821431051,0.20720719073014604,0.002343084959475373,3.1083622631339884,-7.283564,112.796597,4.095721052670034,0.09586056644880174
2000-01-01 08:10:34.424844,0.23293666791992207,-0.06612066724853516,-1.3741679389312977,-7.283600833333334,112.79659716666667,-0.2596933550867822,0.19110176981540503,3.107544124915128,-0.1886487858512542,0.02780671385814245,0.2072277469768654,0.002286025599626406,3.1079851585386704,-7.283564,112.796597,4.095721052670034,0.09586056644880174
2000-01-01 08:10:34.438000,0.25448448286132797,0.03204160081787111,-0.8245496183206107,-7.283600833333334,112.79659716666667,-0.2621688724746624,0.19145631951907374,3.1073547981481155,-0.18816902077864842,0.026950031085756786,0.20733742522232027,0.002230972574152478,3.107669632623153,-7.283564,112.796597,4.095721052670034,0.09586056644880174
2000-01-01 08:10:34.451776,0.27124389448242203,-0.0230250373657227,-0.6413435114503816,-7.283600833333334,112.79659716666667,-0.26475952639980616,0.1918261739650965,3.1072005950064026,-0.18805472596261846,0.026847613962566422,0.20733834938357978,0.002188968061618485,3.10747137983136,-7.283564,112.796597,4.095721052670034,0.09586056644880174
2000-01-01 08:10:34.465754,0.24251347456054706,-0.04457285230712893,-0.534473282442748,-7.283600833333334,112.79659716666667,-0.2673816515738985,0.19220407023648092,3.107070205952296,-0.18759257861047163,0.027035527020873633,0.2073108394750117,0.0021566589209647655,3.1073149189257125,-7.283564,112.796597,4.095721052670034,0.09586056644880174
2000-01-01 08:10:34.479967,0.299974314404297,0.05358941575927734,-1.2062290076335878,-7.283600833333334,112.79659716666667,-0.2700544756424859,0.19257212919422778,3.106770965025178,-0.18804271702390493,0.025894261898159476,0.20726013131807086,0.0021364362064389985,3.107182326955576,-7.283564,112.796597,4.095721052670034,0.09586056644880174
2000-01-01 08:10:34.493454,0.2856091044433593,0.0033111808959960243,-1.5879083969465648,-7.283600833333334,112.79659716666667,-0.27259066947265215,0.19291556632633694,3.1063972002432605,-0.18805586264967664,0.02546546930937189,0.207322031468086,0.0020907018526723042,3.1068984025662045,-7.283564,112.796597,4.095721052670034,0.09586056644880174
2000-01-01 08:10:34.506624,0.2664554911621093,0.010493785876464878,-1.3130992366412213,-7.283600833333334,112.79659716666667,-0.27506322723971866,0.19324407276443495,3.1060953631480386,-0.18773651456156623,0.02494285655162805,0.20741771268301373,0.002041538078196105,3.1065333961412227,-7.283564,112.796597,4.095721052670034,0.09586056644880174
2000-01-01 08:10:34.520104,0.40292498579101554,0.027253197497558612,-1.1375267175572519,-7.283600833333334,112.79659716666667,-0.27761519378000565,0.1935712950897156,3.105827735466119,-0.18931408073633202,0.02427453210258236,0.20745182076204668,0.002001018331383774,3.106224461239379,-7.283564,112.796597,4.095721052670034,0.09586056644880174
2000-01-01 08:10:34.534101,0.299974314404297,0.19963571702880856,-0.8321832061068702,-7.283600833333334,112.79659716666667,-0.2802709769748353,0.19386803806876646,3.105624437190106,-0.18973840153312596,0.02120035197937199,0.2073844783985187,0.001969260900077729,3.1059465690410013,-7.283564,112.796597,4.095721052670034,0.09586056644880174
2000-01-01 08:10:34.548215,0.299974314404297,0.08950244066162105,-0.5650076335877862,-7.283600833333334,112.79659716666667,-0.2829544972543693,0.1941459240573147,3.1054852577309187,-0.1901347158668967,0.019688978644569675,0.20730814984406395,0.0019077469396477996,3.105741575689256,-7.283564,112.796597,4.095721052670034,0.09586056644880174
2000-01-01 08:10:34.562378,0.24490767622070297,0.13499227220458987,-1.0230229007633587,-7.283600833333334,112.79659716666667,-0.2856425514280203,0.19439442952523703,3.1052323796440926,-0.18979708723063052,0.017546377760861622,0.20723512258884189,0.0018383525218846311,3.1056019130782655,-7.283564,112.796597,4.095721052670034,0.09586056644880174
2000-01-01 08:10:34.578008,0.18505263471679667,0.10626185228271479,-0.8703511450381679,-7.283600833333334,112.79659716666667,-0.28859490971849866,0.19463938896642227,3.10499495575503,-0.18889328493481194,0.015672621331397168,0.2069637641852541,0.0017734713082735664,3.1053228417205907,-7.283564,112.796597,4.095721052670034,0.09586056644880174
2000-01-01 08:10:34.591686,0.23772507124023434,0.21400092698974604,-1.4886717557251907,-7.283600833333334,112.79659716666667,-0.2911719383233154,0.19481187326212143,3.104639568980725,-0.18840581114340818,0.012610276649609954,0.20704855112033133,0.0016698298636045128,3.1051150650332464,-7.283564,112.796597,4.095721052670034,0.09586056644880174
2000-01-01 08:10:34.605403,0.19702364301757802,0.024858995837402365,-1.3970687022900763,-7.283600833333334,112.79659716666667,-0.2937411674279477,0.19497816752966804,3.1043050911453633,-0.1872969133653559,0.012122859329935337,0.2071162036930533,0.001548219367067638,3.1047586561425438,-7.283564,112.796597,4.095721052670034,0.09586056644880174
2000-01-01 08:10:34.619226,0.16350481977539078,-0.049361255627441425,-1.5115725190839695,-7.283600833333334,112.79659716666667,-0.2963085338902498,0.1951527718394258,3.1039404287725874,-0.18573906947416496,0.012631948923842961,0.20716796720759081,0.001441659872849511,3.1044216174748804,-7.283564,112.796597,4.095721052670034,0.09586056644880174
2000-01-01 08:10:34.634039,0.23293666791992207,-0.020630835705566453,-1.0153893129770992,-7.283600833333334,112.79659716666667,-0.2990548252608414,0.1953424840416265,3.1036779069657494,-0.18539208267620055,0.012806776677705207,0.2070850078785332,0.0013675980692828458,3.104030810969627,-7.283564,112.796597,4.095721052670034,0.09586056644880174
2000-01-01 08:10:34.649439,0.21857145795898436,-0.04457285230712893,-1.0306564885496183,-7.283600833333334,112.79659716666667,-0.3019030721432202,0.19554805117555665,3.1034008918848137,-0.1849547660161508,0.013348780048486074,0.206941742853305,0.0013126808692108009,3.1037578993294823,-7.283564,112.796597,4.095721052670034,0.09586056644880174
2000-01-01 08:10:34.666330,0.26406128950195296,-0.037390247326660186,-1.0611908396946563,-7.283600833333334,112.79659716666667,-0.305038104420327,0.1957823099197747,3.1030880423703375,-0.185599751861368,0.013868554118475014,0.20662420144507632,0.001287813872350869,3.103454051642551,-7.283564,112.796597,4.095721052670034,0.09586056644880174
2000-01-01 08:10:34.679209,0.2568786845214843,0.010493785876464878,-1.1069923664122137,-7.283600833333334,112.79659716666667,-0.30742247508625964,0.19595726747831385,3.1028392066925536,-0.18513269137262905,0.013584449830357687,0.2069441602279811,0.0012303839882953683,3.1032155114774462,-7.283564,112.796597,4.095721052670034,0.09586056644880174
2000-01-01 08:10:34.692911,0.27842649946289066,0.02964739915771486,-1.6108091603053434,-7.283600833333334,112.79659716666667,-0.3099597928936349,0.19613623014631182,3.1024539954334798,-0.18518139584901946,0.013061255696230784,0.20708493379404144,0.0011889179201717622,3.1029507837035055,-7.283564,112.796597,4.095721052670034,0.09586056644880174
2000-01-01 08:10:34.705496,0.40771338911132804,0.012887987536621126,-1.282564885496183,-7.283600833333334,112.79659716666667,-0.3123069889151378,0.1962978127076826,3.1021722821442763,-0.1865085471587323,0.012839374509570064,0.2073572584022242,0.0011374271972500456,3.102596972093691,-7.283564,112.796597,4.095721052670034,0.09586056644880174
2000-01-01 08:10:34.721155,0.23293666791992207,-0.020630835705566453,-0.9772213740458014,-7.283600833333334,112.79659716666667,-0.3152247540914835,0.19650201125922695,3.10190521502562,-0.18633748982067083,0.01304074975884364,0.20711231899797963,0.0011231505578068208,3.10224645693146,-7.283564,112.796597,4.095721052670034,0.09586056644880174
2000-01-01 08:10:34.735864,0.24251347456054706,0.034435802478027355,-0.9619541984732825,-7.283600833333334,112.79659716666667,-0.3179625577545184,0.1966847558058975,3.1016582517453726,-0.18612369996810493,0.012423495385938003,0.20705855092408906,0.0011033890534058919,3.101995574096866,-7.283564,112.796597,4.095721052670034,0.09586056644880174
2000-01-01 08:10:34.749605,0.2664554911621093,0.0033111808959960243,-1.4886717557251907,-7.283600833333334,112.79659716666667,-0.32051818017255174,0.19685342389849678,3.101301235779476,-0.18598818958663973,0.012275003131218128,0.207158813875912,0.0010697435160180973,3.10176487649278,-7.283564,112.796597,4.095721052670034,0.09586056644880174
2000-01-01 08:10:34.764261,0.29758011274414065,-0.008659827404785214,-1.2749312977099236,-7.283600833333334,112.79659716666667,-0.3232519663808991,0.19703408967188776,3.10097512061719,-0.18653387281405157,0.012327330605687118,0.20710720149617326,0.0010487929755439004,3.1013840885773205,-7.283564,112.796597,4.095721052670034,0.09586056644880174
2000-01-01 08:10:34.778264,0.3047627177246093,-0.05175545728759767,-0.8779847328244275,-7.283600833333334,112.79659716666667,-0.32586985320268685,0.19721558355496163,3.1007605437430383,-0.1869529335235482,0.01296114620954708,0.20715435199895166,0.0010254919230558565,3.1010724991357352,-7.283564,112.796597,4.095721052670034,0.09586056644880174
2000-01-01 08:10:34.791535,0.3215221293457029,-0.011054029064941462,-1.183328244274809,-7.283600833333334,112.79659716666667,-0.32835667091111764,0.197388338800486,3.1004864561968204,-0.18738604569897588,0.013017408643513808,0.20729267990399425,0.0010062794090198617,3.1008691365588668,-7.283564,112.796597,4.095721052670034,0.09586056644880174
2000-01-01 08:10:34.805812,0.309551121044922,-0.06372646558837891,-1.1604274809160304,-7.283600833333334,112.79659766666667,-0.3310398182902648,0.1975857559616547,3.1001972908344992,-0.18792892567207223,0.013827192384584608,0.22453891303267431,0.0010015034871070617,3.100574264586143,-7.283564,112.796598,4.095844813875327,0.09368191721132897
2000-01-01 08:10:34.819649,0.11801498823242174,0.0368300041381836,-1.198595419847328,-7.283600833333334,112.79659766666667,-0.33361063658164414,0.19776727730440527,3.0999078240255944,-0.1857901088573011,0.013118340624322143,0.2395069957700387,0.0010024244404141826,3.100294015526032,-7.283564,112.796598,4.095844813875327,0.09368191721132897
2000-01-01 08:10:34.833656,0.26406128950195296,-0.020630835705566453,-1.450503816793893,-7.283600833333334,112.79659766666667,-0.33621146108109784,0.19795344428817416,3.09955322860605,-0.18568386599413753,0.013291248707451653,0.252072961025379,0.0009968227369880475,3.100001002546098,-7.283564,112.796598,4.095844813875327,0.09368191721132897
2000-01-01 08:10:34.849174,0.25448448286132797,-0.07569747388916015,-1.3894351145038168,-7.283600833333334,112.79659766666667,-0.33909453244109355,0.19817596841157617,3.0991769120512793,-0.18578801978129986,0.014339678446422957,0.2624817328340647,0.0010098380571267197,3.0996081460583644,-7.283564,112.796598,4.095844813875327,0.09368191721132897
2000-01-01 08:10:34.863712,0.13238019819335944,-0.06133226392822266,-0.6947786259541984,-7.283600833333334,112.79659766666667,-0.34176833969341536,0.19839412764736053,3.099000622567919,-0.18391938621669734,0.015006209856047491,0.2713555335843922,0.0010227079893895521,3.0992555980821486,-7.283564,112.796598,4.095844813875327,0.09368191721132897
2000-01-01 08:10:34.877950,0.3622235575683592,-0.030207642346191443,-0.7940152671755725,-7.283600833333334,112.79659766666667,-0.3444062953961064,0.19861259069897255,3.0988033064878957,-0.18527261875300188,0.015343404603663603,0.2788587695675166,0.0010380388194243385,3.0990829427181716,-7.283564,112.796598,4.095844813875327,0.09368191721132897
2000-01-01 08:10:34.891651,0.32391633100585926,-0.06372646558837891,-0.8169160305343511,-7.283600833333334,112.79659766666667,-0.3469529017405569,0.1988328726103573,3.098607964989985,-0.18587547402229398,0.01607826226711416,0.2851942342421253,0.0010485640573389598,3.0988930772658403,-7.283564,112.796598,4.095844813875327,0.09368191721132897
2000-01-01 08:10:34.904510,0.319127927685547,0.04880101243896484,-1.2291297709923663,-7.283600833333334,112.79659766666667,-0.3493473438208252,0.19902982891618334,3.0983321016842913,-0.18620249916637888,0.015316201078156743,0.2905909588517556,0.001055621200540079,3.098709730346763,-7.283564,112.796598,4.095844813875327,0.09368191721132897
2000-01-01 08:10:34.918648,0.2856091044433593,0.05119521409912109,-1.3130992366412213,-7.283600833333334,112.79659766666667,-0.3519835968288671,0.19923446041662535,3.0980080832603694,-0.18646284210188832,0.014473637788026048,0.2949364187995964,0.0010694150814795546,3.098406432103889,-7.283564,112.796598,4.095844813875327,0.09368191721132897
2000-01-01 08:10:34.932845,0.1467454081542967,0.0009169792358397766,-1.351267175572519,-7.283600833333334,112.79659766666667,-0.35460678518874267,0.1994369211476979,3.097673266155692,-0.18477381885414607,0.01426105842054368,0.29857798858144285,0.0010715356662392142,3.09808107225462,-7.283564,112.796598,4.095844813875327,0.09368191721132897
2000-01-01 08:10:34.946700,0.328704734326172,0.024858995837402365,-1.1756946564885495,-7.283600833333334,112.79659766666667,-0.35717755938312723,0.1996286134011637,3.097388970412902,-0.18555193485921698,0.013835858709722123,0.30170343838154623,0.0010668729624702586,3.0977543211689813,-7.283564,112.796598,4.095844813875327,0.09368191721132897
2000-01-01 08:10:34.960723,0.4101075907714844,0.05837781907958983,-1.2138625954198472,-7.283600833333334,112.79659766666667,-0.3598069356158906,0.1998110279885934,3.0970918842138455,-0.18750685613752074,0.013008403048740987,0.3042947301460378,0.0010599010545729495,3.097466576363214,-7.283564,112.796598,4.095844813875327,0.09368191721132897
2000-01-01 08:10:34.974010,0.299974314404297,-0.001477222424316471,-1.0001221374045801,-7.283600833333334,112.79659766666667,-0.3623004744877323,0.19998299866147787,3.0968599424112653,-0.18765818982319193,0.012942130375669382,0.3065483428949477,0.0010368358029095208,3.097185065267782,-7.283564,112.796598,4.095844813875327,0.09368191721132897
2000-01-01 08:10:34.988628,0.2688496928222657,0.046406810778808594,-0.6718778625954198,-7.283600833333334,112.79659766666667,-0.3650454170088385,0.2001612181499146,3.096688528448701,-0.18778234568097035,0.012192048950893394,0.30824868307860215,0.0010304460569696091,3.096929907436032,-7.283564,112.796598,4.095844813875327,0.09368191721132897
2000-01-01 08:10:35.002354,0.23293666791992207,0.00809958421630863,-0.8779847328244275,-7.283600833333334,112.79659766666667,-0.3676143306119349,0.20032566059945858,3.096478200549216,-0.1871616845920412,0.011980677683357987,0.30980790802984165,0.0010070339169211018,3.096768953999979,-7.283564,112.796598,4.095844813875327,0.09368191721132897
2000-01-01 08:10:35.016997,0.3263105326660156,0.07753143236083981,-1.1375267175572519,-7.283600833333334,112.79659766666667,-0.37036949218657494,0.20048442907832842,3.096187471196754,-0.18814694257830075,0.010842124161473487,0.3109938336430186,0.0009935483308719257,3.096544558450489,-7.283564,112.796598,4.095844813875327,0.09368191721132897
2000-01-01 08:10:35.031489,0.33828154096679697,0.012887987536621126,-0.9543206106870229,-7.283600833333334,112.79659766666667,-0.37311126478774215,0.2006389382286542,3.095946091330297,-0.1891916916979138,0.01066166009555107,0.31200613008858735,0.0009665385670972599,3.0962568395810646,-7.283564,112.796598,4.095844813875327,0.09368191721132897
2000-01-01 08:10:35.046060,0.309551121044922,0.010493785876464878,-0.9008854961832061,-7.283600833333334,112.79659766666667,-0.3758771111346285,0.2007919455208254,3.0957169992891096,-0.18983007119987147,0.010501445678520528,0.3128362484940713,0.0009420809558383016,3.096014159176534,-7.283564,112.796598,4.095844813875327,0.09368191721132897
2000-01-01 08:10:35.060018,0.27842649946289066,0.01767639085693362,-0.7253129770992366,-7.283600833333334,112.79659766666667,-0.37852718228544524,0.20093467726814251,3.0955402933013314,-0.18984933649011704,0.010225207544286517,0.3136172568061638,0.0009144574311390803,3.0957946789431667,-7.283564,112.796598,4.095844813875327,0.09368191721132897
2000-01-01 08:10:35.073261,0.3047627177246093,-0.001477222424316471,-0.5497404580152672,-7.283600833333334,112.79659766666667,-0.38104340076895354,0.20107005387923318,3.095413228856466,-0.19000252496156972,0.01022244216730524,0.3143739666421582,0.0008825217960467634,3.0956270334853055,-7.283564,112.796598,4.095844813875327,0.09368191721132897
2000-01-01 08:10:35.087020,0.3119453227050779,0.024858995837402365,-0.6413435114503816,-7.283600833333334,112.79659766666667,-0.38366320310925556,0.2012059558494329,3.095259227205506,-0.19041941296995965,0.00987798697206707,0.3149247087134821,0.0008601402795832983,3.0954950278804736,-7.283564,112.796598,4.095844813875327,0.09368191721132897
2000-01-01 08:10:35.100893,0.28321490278320294,0.0368300041381836,-0.8703511450381679,-7.283600833333334,112.79659766666667,-0.38630585279737656,0.20133580398669965,3.0950484807276157,-0.19048077259812018,0.00935938411291438,0.3153634135602306,0.0008383298283964363,3.095339733219317,-7.283564,112.796598,4.095844813875327,0.09368191721132897
2000-01-01 08:10:35.114357,0.2592728861816407,-0.020630835705566453,-0.7405801526717557,-7.283600833333334,112.79659766666667,-0.38886505065785426,0.2014651116150093,3.0948744497555523,-0.19007576825876576,0.009603886894501201,0.3157906941606769,0.0008110266976941976,3.095135207003942,-7.283564,112.796598,4.095844813875327,0.09368191721132897
2000-01-01 08:10:35.128590,0.3047627177246093,-0.003871424084472719,-0.5497404580152672,-7.283600833333334,112.79659766666667,-0.3915766686866198,0.20160267022406297,3.094737888446983,-0.19051795474685845,0.009664851235209547,0.3160374690692607,0.0007967634134787441,3.0949512391091387,-7.283564,112.796598,4.095844813875327,0.09368191721132897
2000-01-01 08:10:35.141931,0.31433952436523427,-0.027813440686035196,0.22888549618320617,-7.283600833333334,112.79659766666667,-0.39412206590586074,0.20173644077231145,3.0947911829477133,-0.19079579916811892,0.01002706314963143,0.3163741579807408,0.0007786839829753569,3.0948232356151224,-7.283564,112.796598,4.095844813875327,0.09368191721132897
2000-01-01 08:10:35.155656,0.280820701123047,-0.011054029064941462,0.38155725190839695,-7.283600833333334,112.79659766666667,-0.39673997023826113,0.20187576432381044,3.094882580735519,-0.19074588053512204,0.010151399797557092,0.31659272745819683,0.0007707907062347944,3.094878062585144,-7.283564,112.796598,4.095844813875327,0.09368191721132897
2000-01-01 08:10:35.174360,0.3023685160644529,-0.003871424084472719,0.7861374045801527,-7.283600833333334,112.79659766666667,-0.40033980601058317,0.2020679777241731,3.095139211590891,-0.19246406092024776,0.010276627584381448,0.31604120139678965,0.0008048685839523754,3.095002620154038,-7.283564,112.796598,4.095844813875327,0.09368191721132897
2000-01-01 08:10:35.189934,0.2951859110839843,-0.07569747388916015,0.664,-7.283600833333334,112.79659766666667,-0.4033466874368229,0.2022460533437989,3.095319706501533,-0.19306199454424747,0.01143365149175546,0.316058954552237,0.0008083175444835084,3.0952163156368577,-7.283564,112.796598,4.095844813875327,0.09368191721132897
2000-01-01 08:10:35.203186,0.27363809614257795,0.08231983568115231,0.5036946564885496,-7.283600833333334,112.79659766666667,-0.40590170067885434,0.2023825635269333,3.0954362077814555,-0.19280006226857904,0.010300992329762748,0.31641897764987037,0.0008053014427090012,3.09536989449435,-7.283564,112.796598,4.095844813875327,0.09368191721132897
2000-01-01 08:10:35.220326,0.29758011274414065,0.12780966722412102,0.39682442748091606,-7.283600833333334,112.79659766666667,-0.4092274614712834,0.20252277574165758,3.0955549169723597,-0.19403605222880155,0.008180451426721696,0.3161329444366982,0.0008217096698519787,3.0955205736889604,-7.283564,112.796598,4.095844813875327,0.09368191721132897
2000-01-01 08:10:35.234052,0.27124389448242203,0.12302126390380852,-0.023022900763358722,-7.283600833333334,112.79659766666667,-0.4118886062628846,0.2026124300228742,3.095549401518222,-0.19387626138145958,0.006531714063053053,0.31640729524503847,0.0007827210648314778,3.0956156384661138,-7.283564,112.796598,4.095844813875327,0.09368191721132897
2000-01-01 08:10:35.246149,0.2137830546386721,0.0871082390014648,0.09911450381679396,-7.283600833333334,112.79659766666667,-0.4142181524163239,0.20267879372216552,3.0955703271923882,-0.19257789679238652,0.005486125103815795,0.316872521650428,0.0007236647881167024,3.0956107777272592,-7.283564,112.796598,4.095844813875327,0.09368191721132897
2000-01-01 08:10:35.258419,0.22096565961914072,-0.08288007886962889,-0.3665343511450381,-7.283600833333334,112.79659766666667,-0.41656577677306744,0.2027584778867305,3.095491834858076,-0.19133455550564146,0.006494367024298813,0.31722966941404773,0.0006650859643406295,3.095632002828657,-7.283564,112.796598,4.095844813875327,0.09368191721132897
2000-01-01 08:10:35.271081,0.16111061811523442,0.015282189196777374,-0.351267175572519,-7.283600833333334,112.79659766666667,-0.4189655003579762,0.2028378381547077,3.095414203814964,-0.18951375398606837,0.006267331119419407,0.31746862773844947,0.0006289179753040512,3.0955509976963973,-7.283564,112.796598,4.095844813875327,0.09368191721132897
2000-01-01 08:10:35.284352,0.12998599653320309,-0.018236634045410205,0.12201526717557257,-7.283600833333334,112.79659766666667,-0.42145243024275714,0.2029235250933518,3.0954424644972587,-0.18740123180424656,0.006456892069897784,0.3175892170062736,0.0005993911416480094,3.0954696386150355,-7.283564,112.796598,4.095844813875327,0.09368191721132897
2000-01-01 08:10:35.298674,0.1802642313964844,-0.03260184400634769,0.3891908396946565,-7.283600833333334,112.79659766666667,-0.42411868306514616,0.20302236895965742,3.0955397517139795,-0.18615963840289093,0.006901347934931888,0.3175566573389965,0.0005820430054860097,3.095500139142104,-7.283564,112.796598,4.095844813875327,0.09368191721132897
2000-01-01 08:10:35.312667,0.20899465131835937,-0.06133226392822266,0.5571297709923665,-7.283600833333334,112.79659766666667,-0.4267109971635439,0.20313060355120452,3.095675814054923,-0.1852607495683431,0.007735027777550189,0.31759701812279173,0.0005708785918215234,3.095595187404609,-7.283564,112.796598,4.095844813875327,0.09368191721132897
2000-01-01 08:10:35.325976,0.4101075907714844,-0.020630835705566453,0.3281221374045802,-7.283600833333334,112.79659766666667,-0.4291982705515328,0.20323832984233678,3.0957520322021352,-0.18688654509575978,0.008094242660621797,0.3177421670111259,0.0005671400060407624,3.0957246007969443,-7.283564,112.796598,4.095844813875327,0.09368191721132897
2000-01-01 08:10:35.339226,0.29758011274414065,-0.018236634045410205,0.33575572519083974,-7.283600833333334,112.79659766666667,-0.4316760157068384,0.203348911121957,3.0958296784298396,-0.18699804616966118,0.008345686071726803,0.3178512079668258,0.0005677992324314684,3.0958004816957176,-7.283564,112.796598,4.095844813875327,0.09368191721132897
2000-01-01 08:10:35.353186,0.28321490278320294,-0.027813440686035196,0.5342290076335878,-7.283600833333334,112.79659766666667,-0.4342879991388668,0.20347085618026411,3.0959598378295023,-0.1871111699625193,0.008735615337833836,0.31783474888596897,0.0005759587724432453,3.0958822851227117,-7.283564,112.796598,4.095844813875327,0.09368191721132897
2000-01-01 08:10:35.366586,0.26166708784179704,-0.015842432385253957,0.48079389312977105,-7.283600833333334,112.79659766666667,-0.43679102851507995,0.20359045316254024,3.0960722837310675,-0.1867921522448296,0.008925096099007676,0.31790406407377264,0.0005834576806285957,3.0960072281872226,-7.283564,112.796598,4.095844813875327,0.09368191721132897
2000-01-01 08:10:35.381005,0.280820701123047,0.02007059251708987,0.06094656488549624,-7.283600833333334,112.79659766666667,-0.43948799019046536,0.20371509369516644,3.0960876222020293,-0.1870334594276785,0.008643782451472024,0.3178152474379209,0.0005991625196761259,3.096128229972676,-7.283564,112.796598,4.095844813875327,0.09368191721132897
2000-01-01 08:10:35.394768,0.25448448286132797,0.08231983568115231,-0.1451603053435114,-7.283600833333334,112.79659766666667,-0.4420585039304433,0.20381856292674108,3.096052753720141,-0.18677215548838122,0.007518019105428228,0.3178396742937606,0.0006042174924339218,3.0961428697475704,-7.283564,112.796598,4.095844813875327,0.09368191721132897
2000-01-01 08:10:35.408427,0.2688496928222657,0.03922420579833985,-0.13752671755725185,-7.283600833333334,112.79659766666667,-0.44460807915521366,0.2039142745573287,3.096019967530747,-0.18665573237602856,0.007007098410222866,0.3178786891854398,0.0005947618707944727,3.096108263720843,-7.283564,112.796598,4.095844813875327,0.09368191721132897
2000-01-01 08:10:35.422178,0.2856091044433593,-0.0230250373657227,0.32048854961832063,-7.283600833333334,112.79659766666667,-0.4471760852373922,0.20401536982029092,3.0960968836889236,-0.18675332782845164,0.007351959528799295,0.3178990545623853,0.0005814306270851329,3.096075257777967,-7.283564,112.796598,4.095844813875327,0.09368191721132897
2000-01-01 08:10:35.437645,0.24730187788085933,-0.0230250373657227,0.3891908396946565,-7.283600666666667,112.79659766666667,-0.4500643979059075,0.20413482708829164,3.096201942060656,-0.18674694977423406,0.007723637634760256,0.31766533687173565,0.0005840026858986423,3.096161770618835,-7.283564,112.796598,4.077313076090589,0.09368191721132897
2000-01-01 08:10:35.451494,0.2137830546386721,-0.003871424084472719,0.48079389312977105,-7.283600666666667,112.79659766666667,-0.45263902083258895,0.20424219720626002,3.096318154231698,-0.18590810670072222,0.007752970402335702,0.31771765449190004,0.0005807412426103341,3.0962558415150694,-7.283564,112.796598,4.077313076090589,0.09368191721132897
2000-01-01 08:10:35.465339,0.25209028120117205,0.08471403734130856,0.3128549618320611,-7.283600666666667,112.79659766666667,-0.4552094828115786,0.20433363313473416,3.0963937532360135,-0.1856587933688195,0.006604215230501128,0.3177708327725571,0.0005783685245758718,3.096372021675322,-7.283564,112.796598,4.077313076090589,0.09368191721132897
2000-01-01 08:10:35.479049,0.21857145795898436,0.21400092698974604,0.21361832061068706,-7.283600666666667,112.79659766666667,-0.4577460510503636,0.20438480383022864,3.096444870678788,-0.1850091870449866,0.003732227120566482,0.31783690451872765,0.0005623092536283944,3.0964468857860523,-7.283564,112.796598,4.077313076090589,0.09368191721132897
2000-01-01 08:10:35.492560,0.16350481977539078,-0.001477222424316471,0.4884274809160306,-7.283600666666667,112.79659766666667,-0.46022484876190034,0.2044358005904302,3.0965600439248964,-0.1834707929005055,0.003774578290916085,0.3179269749955015,0.0005151117675155606,3.096497257880937,-7.283564,112.796598,4.077313076090589,0.09368191721132897
2000-01-01 08:10:35.506197,0.23533086958007798,0.010493785876464878,0.8014045801526717,-7.283600666666667,112.79659766666667,-0.46271983243548753,0.204486259054873,3.0967507942610366,-0.18294965038569103,0.0036999674693409283,0.31799913822758974,0.0004763853889981829,3.096613513400898,-7.283564,112.796598,4.077313076090589,0.09368191721132897
2000-01-01 08:10:35.520275,0.2592728861816407,0.012887987536621126,1.3586564885496184,-7.283600666666667,112.79659766666667,-0.46529415375986344,0.20453704238662979,3.0970846069965656,-0.18287186213866077,0.0036074915574971166,0.3180015612096578,0.0004442284566492556,3.096810413101021,-7.283564,112.796598,4.077313076090589,0.09368191721132897
2000-01-01 08:10:35.533718,0.2592728861816407,0.044012609118652346,1.6029312977099237,-7.283600666666667,112.79659766666667,-0.46774963712830986,0.20457880796052277,3.0974607072782603,-0.1826524973257255,0.0031067554648604,0.31809687701513595,0.000414353893539344,3.0971291984967517,-7.283564,112.796598,4.077313076090589,0.09368191721132897
2000-01-01 08:10:35.547795,0.24490767622070297,0.11105025560302728,1.4960610687022902,-7.283600666666667,112.79659766666667,-0.47031786143737847,0.20460220270439208,3.097828273166989,-0.18244183887037746,0.0016619187336344905,0.3180863078983408,0.00038508620950203365,3.0975230212352347,-7.283564,112.796598,4.077313076090589,0.09368191721132897
2000-01-01 08:10:35.561423,0.2951859110839843,0.13738647386474612,0.9693435114503817,-7.283600666666667,112.79659766666667,-0.47280928391667804,0.2046017541736039,3.098058841036885,-0.18281156496271048,-3.291156598382328e-05,0.3181459512250926,0.0003427753837913065,3.097878874046721,-7.283564,112.796598,4.077313076090589,0.09368191721132897
2000-01-01 08:10:35.575155,0.23293666791992207,0.13499227220458987,0.9617099236641222,-7.283600666666667,112.79659766666667,-0.4753135223141913,0.20457825215563846,3.0982893319898355,-0.1823657394201556,-0.001711483574563291,0.3181756749440972,0.0002877104171261843,3.098111194525269,-7.283564,112.796598,4.077313076090589,0.09368191721132897
2000-01-01 08:10:35.589470,0.2305424662597657,0.10865605394287103,1.1601832061068702,-7.283600666666667,112.79659766666667,-0.47791902726144764,0.20453443387932538,3.098579192023242,-0.18201513682093098,-0.0030610533158970566,0.31812250422319877,0.00022100723238325086,3.098351468017536,-7.283564,112.796598,4.077313076090589,0.09368191721132897
2000-01-01 08:10:35.603620,0.2305424662597657,0.044012609118652346,1.4426259541984734,-7.283600666666667,112.79659766666667,-0.4804885992205787,0.20448528702864696,3.0989354694187146,-0.1815948903776995,-0.0034732699077140257,0.31810936739633633,0.00014907103641981386,3.098637992081337,-7.283564,112.796598,4.077313076090589,0.09368191721132897
2000-01-01 08:10:35.619450,0.23293666791992207,0.06556042406005858,1.9235419847328246,-7.283600666666667,112.79659766666667,-0.48336361408277806,0.20441772717364234,3.0994669217539577,-0.1816162950845637,-0.00426779378559592,0.3178681384611999,7.863831550386328e-05,3.0990365728964826,-7.283564,112.796598,4.077313076090589,0.09368191721132897
2000-01-01 08:10:35.633382,0.3023685160644529,0.20442412034912105,1.717435114503817,-7.283600666666667,112.79659766666667,-0.4859022833632292,0.20432300877479734,3.099884517422265,-0.18222495366784883,-0.006798859533982393,0.317947541391689,1.5849333916584135e-05,3.0995042836087228,-7.283564,112.796598,4.077313076090589,0.09368191721132897
2000-01-01 08:10:35.647907,0.3406757426269533,-0.06372646558837891,1.5876641221374046,-7.283600666666667,112.79659766666667,-0.48856609735365353,0.20424230124531245,3.100287019445178,-0.18338838521929146,-0.005556252636436281,0.31792061827770113,-6.996302868486436e-05,3.0999396849623033,-7.283564,112.796598,4.077313076090589,0.09368191721132897
2000-01-01 08:10:35.662634,0.3263105326660156,-0.001477222424316471,1.7250687022900764,-7.283600666666667,112.79659766666667,-0.49128215030807537,0.20416525725124873,3.100730425337656,-0.18442531602628132,-0.0052314381168431625,0.31785746759973166,-0.00012762585702780094,3.1003477728408306,-7.283564,112.796598,4.077313076090589,0.09368191721132897
2000-01-01 08:10:35.676462,0.2401192729003907,0.015282189196777374,1.6258320610687023,-7.283600666666667,112.79659766666667,-0.4938264164078906,0.20409332388448145,3.1011228047063577,-0.1839964391792716,-0.005202082967782804,0.31792383061630225,-0.00016805963523945167,3.100764102045168,-7.283564,112.796598,4.077313076090589,0.09368191721132897
2000-01-01 08:10:35.696784,0.1204091898925781,0.012887987536621126,1.2899541984732825,-7.283600666666667,112.79659766666667,-0.4975396159535831,0.20398646173874016,3.1015803216382913,-0.18272281420429703,-0.005258578689747641,0.31705683316528954,-0.00022895641901083633,3.1013407470898526,-7.283564,112.796598,4.077313076090589,0.09368191721132897
2000-01-01 08:10:35.710220,0.280820701123047,0.07992563402099606,1.2899541984732825,-7.283600666666667,112.79659766666667,-0.4999959303198826,0.20390505841479978,3.1018828369255274,-0.1828050883961021,-0.006058239952028805,0.3173700367164426,-0.0002509916567986654,3.1016432623770887,-7.283564,112.796598,4.077313076090589,0.09368191721132897
2000-01-01 08:10:35.723430,0.2401192729003907,-0.0230250373657227,1.297587786259542,-7.283600666666667,112.79659766666667,-0.5024033538605116,0.2038321824400896,3.1021820047814006,-0.18224335025952737,-0.005516753309281834,0.31764826209579045,-0.00027765709804030184,3.1019406702564,-7.283564,112.796598,4.077313076090589,0.09368191721132897
2000-01-01 08:10:35.736206,0.24730187788085933,-0.04217865064697268,1.312854961832061,-7.283600666666667,112.79659766666667,-0.5047243519058193,0.2037713998183786,3.102474744398395,-0.18167174674914907,-0.004757645134839482,0.31793508261722375,-0.000292363711985362,3.1022300056076837,-7.283564,112.796598,4.077313076090589,0.09368191721132897
2000-01-01 08:10:35.749084,0.27124389448242203,-0.04696705396728518,1.3891908396946566,-7.283600666666667,112.79659766666667,-0.5070608952985021,0.2037206939587068,3.102786985258204,-0.18143597178725576,-0.003937383296059379,0.318153162140262,-0.00029722641305162794,3.102525088867934,-7.283564,112.796598,4.077313076090589,0.09368191721132897
2000-01-01 08:10:35.763778,0.2688496928222657,-0.0230250373657227,1.6029312977099237,-7.283600666666667,112.79659766666667,-0.5097302046899763,0.2036710479594617,3.1031980635464462,-0.18166307087292272,-0.0033787183712102016,0.3180711490183371,-0.0002982051436384826,3.1028813525413925,-7.283564,112.796598,4.077313076090589,0.09368191721132897
2000-01-01 08:10:35.779600,0.2664554911621093,-0.03499604566650394,3.6716335877862596,-7.283600666666667,112.79659766666667,-0.5126119383179413,0.20362968214904734,3.1042119509300337,-0.18213810645873527,-0.0026144992402795837,0.3178441310517532,-0.0002949412647206379,3.1033239870746727,-7.283564,112.796598,4.077313076090589,0.09368191721132897
2000-01-01 08:10:35.794034,0.3358873393066406,-0.020630835705566453,1.480793893129771,-7.283600666666667,112.79659766666667,-0.5152566904513728,0.20359944621474446,3.104584990149976,-0.18323248186753457,-0.0020947918762857496,0.31785530419691793,-0.0002790719979974413,3.104248939112803,-7.283564,112.796598,4.077313076090589,0.09368191721132897
2000-01-01 08:10:35.808611,0.38377137250976556,0.010493785876464878,1.4273587786259543,-7.283600666666667,112.79659766666667,-0.517954199306538,0.20357026517463928,3.1049481347573877,-0.18505200613757863,-0.002001850708406153,0.317830268099112,-0.0002596794129735683,3.1046256785318134,-7.283564,112.796598,4.077313076090589,0.09368191721132897
2000-01-01 08:10:35.824282,0.3718003642089842,0.0918966423217773,0.9082748091603055,-7.283600666666667,112.79659766666667,-0.5208865402948981,0.20352067191846193,3.1051965709599916,-0.18710880518529993,-0.0031644801697426066,0.31763017490296935,-0.00024387796857433498,3.105016097368864,-7.283564,112.796598,4.077313076090589,0.09368191721132897
2000-01-01 08:10:35.838956,0.35264675092773423,0.20921252366943355,0.6334656488549618,-7.283600666666667,112.79659766666667,-0.5236532411715514,0.20343374122791785,3.105358808349333,-0.18854355666355863,-0.00592410322225596,0.3175887982303184,-0.0002433969786991009,3.105248716350034,-7.283564,112.796598,4.077313076090589,0.09368191721132897
2000-01-01 08:10:35.853567,0.3023685160644529,0.03922420579833985,0.7098015267175573,-7.283600666666667,112.79659766666667,-0.5264163313339255,0.203342999335265,3.105539806087914,-0.1891194536619821,-0.006210820550284644,0.317545109459079,-0.00027680293830655044,3.1054102486172885,-7.283564,112.796598,4.077313076090589,0.09368191721132897
2000-01-01 08:10:35.867991,0.31433952436523427,0.022464794177246117,0.763236641221374,-7.283600666666667,112.79659766666667,-0.5291539794930797,0.2032529222263854,3.105731957162166,-0.1897891560462651,-0.0062446514232219925,0.31752751517333744,-0.0003074204092229801,3.1055889469639064,-7.283564,112.796598,4.077313076090589,0.09368191721132897
2000-01-01 08:10:35.883465,0.3789829691894533,0.015282189196777374,0.8243053435114505,-7.283600666666667,112.79659766666667,-0.5321209410836572,0.20315781313051923,3.1059545717503756,-0.19174488435690248,-0.006146585330281226,0.3173477643340042,-0.0003387571764624159,3.105795069139299,-7.283564,112.796598,4.077313076090589,0.09368191721132897
2000-01-01 08:10:35.898626,0.35743515424804695,0.06077202073974608,0.747969465648855,-7.283600666666667,112.79659766666667,-0.5350508254117383,0.2030556593959059,3.1061524935229348,-0.19324939349129505,-0.006737858920808241,0.31722421930489436,-0.0003620501068184789,3.106013190308959,-7.283564,112.796598,4.077313076090589,0.09368191721132897
2000-01-01 08:10:35.913738,0.34306994428710924,0.01767639085693362,0.8166717557251908,-7.283600666666667,112.79659766666667,-0.5379897310887753,0.2029546218349017,3.106367898096118,-0.19447135128411294,-0.006685791644304972,0.31711133133265845,-0.00038877135944959796,3.1062104740308127,-7.283564,112.796598,4.077313076090589,0.09368191721132897
2000-01-01 08:10:35.927342,0.290397507763672,0.02007059251708987,0.7021679389312977,-7.283600666666667,112.79659766666667,-0.5406350148674461,0.20286370094336934,3.106534607377764,-0.19446025543350573,-0.006683781881620696,0.3172302570183599,-0.0004024826826732317,3.1064043689015253,-7.283564,112.796598,4.077313076090589,0.09368191721132897
2000-01-01 08:10:35.940806,0.3119453227050779,0.055983617419433584,0.7021679389312977,-7.283600666666667,112.79659766666667,-0.5432566372042151,0.2027675023441812,3.1066996132187343,-0.19471041123367538,-0.0071447624416836825,0.31734063423531306,-0.0004135221823544546,3.1065693747424956,-7.283564,112.796598,4.077313076090589,0.09368191721132897
2000-01-01 08:10:35.956125,0.3215221293457029,0.0416184074584961,0.4731603053435115,-7.283600666666667,112.79659766666667,-0.5462539557938334,0.20265324644573338,3.106826119595398,-0.19566185254482626,-0.007458506690582271,0.317139539447079,-0.00043878438388115354,3.106757109682981,-7.283564,112.796598,4.077313076090589,0.09368191721132897
2000-01-01 08:10:35.970452,0.31433952436523427,0.02964739915771486,0.5189618320610687,-7.283600666666667,112.79659766666667,-0.5490645245812898,0.2025447556117381,3.1069558870918472,-0.19617383336251468,-0.007572510904033661,0.3171157200156778,-0.0004579738005891106,3.106875424411445,-7.283564,112.796598,4.077313076090589,0.09368191721132897
2000-01-01 08:10:35.985239,0.3813771708496092,-0.0062656257446289665,0.5113282442748092,-7.283600666666667,112.79659766666667,-0.5519890465469743,0.20243917846779996,3.1070878555110215,-0.19777073309511206,-0.0071396520182558845,0.31701665155455006,-0.0004782760713243112,3.1070093629790008,-7.283564,112.796598,4.077313076090589,0.09368191721132897
2000-01-01 08:10:36.157704,0.37419456586914057,0.01767639085693362,-0.4428702290076335,-7.283600666666667,112.79659766666667,-0.5750415133282,0.20169571217393267,3.106314901145497,-0.23052466781225672,-0.00743466293867294,0.2971968840220268,-0.0012096102655920734,3.1085485048026924,-7.283564,112.796598,4.077313076090589,0.09368191721132897
2000-01-01 08:10:36.169777,0.34785834760742196,-0.025419239025878948,-0.33599999999999997,-7.283600666666667,112.79659766666667,-0.5778183744608361,0.20161313695145036,3.1062441046364744,-0.23001648558936452,-0.00683997562892642,0.30366806679998215,-0.0009761133101273795,3.1084551903200617,-7.283564,112.796598,4.077313076090589,0.09368191721132897
2000-01-01 08:10:36.182032,0.35743515424804695,-0.04217865064697268,0.3281221374045802,-7.283600666666667,112.79659766666667,-0.5806331946313783,0.20153904935791722,3.106314286446242,-0.2296883621055198,-0.006045522264282696,0.30766807993657513,-0.0008249620878330918,3.1083833235198863,-7.283564,112.796598,4.077313076090589,0.09368191721132897
2000-01-01 08:10:36.195474,0.26166708784179704,-0.008659827404785214,0.32048854961832063,-7.283600666666667,112.79659766666667,-0.5837052876111922,0.2014625711656575,3.1063894782421726,-0.22853555875288617,-0.005689276501502307,0.3101034585223682,-0.0007209887412815643,3.108460306278944,-7.283564,112.796598,4.077313076090589,0.09368191721132897
2000-01-01 08:10:36.211684,0.4555974223144532,0.05837781907958983,0.038045801526717604,-7.283600666666667,112.79659766666667,-0.5874535817502958,0.2013612955230118,3.1064002422111137,-0.23123061458319816,-0.006247649790065012,0.3112898967434366,-0.0006553341309281497,3.1085509793271013,-7.283564,112.796598,4.077313076090589,0.09368191721132897
2000-01-01 08:10:36.228634,0.27842649946289066,0.07034882738037107,-0.5115725190839694,-7.283600666666667,112.79659766666667,-0.5913734873749981,0.20124049491989848,3.1062489061774254,-0.2312692212333572,-0.00712707500672563,0.31188539685225036,-0.0006193994426336306,3.1085622342332715,-7.283564,112.796598,4.077313076090589,0.09368191721132897
2000-01-01 08:10:36.246151,0.45799162397460935,0.07274302904052732,-0.06882442748091597,-7.283600666666667,112.79659766666667,-0.5954819517722291,0.20110115796652026,3.106227864853329,-0.23454513927581247,-0.007954506106561433,0.31212946712356815,-0.0006098383234228942,3.1084058339032308,-7.283564,112.796598,4.077313076090589,0.09368191721132897
