timestamp_unix,timestamp_readable,temp_c,accel_x,accel_y,accel_z,gyro_x,gyro_y,gyro_z
1749735947.9871128,2025-06-12 20:45:47.987,36.53,0.0,0.0,0.0,8.938931297709924,-10.83206106870229,73.42748091603053
1749735947.996747,2025-06-12 20:45:47.996,27.91823529411765,7.615955480957031,-1.2282254516601563,6.1842228881835934,-133.5801526717557,-3.946564885496183,101.47328244274809
1749735948.0063715,2025-06-12 20:45:48.006,27.91823529411765,-5.1140147460937495,-6.981492041015625,7.431601953125,115.38931297709924,-60.02290076335878,-9.725190839694656
1749735948.0159972,2025-06-12 20:45:48.015,27.965294117647062,-10.333374365234375,-0.28730419921875,5.147533569335937,134.6259541984733,10.16030534351145,-3.763358778625954
1749735948.0256526,2025-06-12 20:45:48.025,27.965294117647062,-8.2743609375,4.07971962890625,15.418658691406248,81.70992366412214,-18.671755725190838,15.648854961832061
1749735948.0353749,2025-06-12 20:45:48.035,27.87117647058824,6.902483386230468,-0.296881005859375,5.090072729492187,99.87022900763358,-29.221374045801525,1.8549618320610688
1749735948.0450964,2025-06-12 20:45:48.045,27.87117647058824,4.280832568359375,-8.432378247070313,19.50556092529297,131.9618320610687,66.83206106870229,11.366412213740459
1749735948.0547342,2025-06-12 20:45:48.054,27.87117647058824,10.026916552734374,-3.6152445068359373,10.903194360351561,107.1526717557252,53.603053435114504,-4.969465648854962
1749735948.0643618,2025-06-12 20:45:48.064,27.91823529411765,-7.886500268554687,-0.9193734375,-1.6041151123046875,125.49618320610686,28.755725190839694,-12.526717557251908
1749735948.073998,2025-06-12 20:45:48.073,28.012352941176474,-4.438849877929687,2.829946362304687,3.294421484375,116.58015267175573,64.22900763358778,-13.16030534351145
1749735948.0836627,2025-06-12 20:45:48.083,27.91823529411765,7.491456994628906,-1.7812860351562498,19.61270144958496,134.8320610687023,30.702290076335878,-7.320610687022901
1749735948.09329,2025-06-12 20:45:48.093,28.012352941176474,3.318363500976562,-4.517858532714843,9.765948571777344,123.47328244274809,26.740458015267176,-2.0610687022900764
1749735948.1040044,2025-06-12 20:45:48.104,28.012352941176474,0.6584054565429687,2.195482922363281,3.758896606445312,106.23664122137404,22.3206106870229,12.32824427480916
1749735948.1142879,2025-06-12 20:45:48.114,28.012352941176474,4.395754248046875,-3.296815686035156,11.413159313964844,98.52671755725191,-44.69465648854962,0.9465648854961832
1749735948.1242254,2025-06-12 20:45:48.124,28.059411764705885,-1.426944189453125,-3.909731311035156,10.072406384277343,120.00763358778626,-82.18320610687023,6.938931297709924
1749735948.134379,2025-06-12 20:45:48.134,28.012352941176474,-7.829039428710937,0.9313444458007812,7.319074475097656,116.51908396946565,15.648854961832061,8.49618320610687
1749735948.1443179,2025-06-12 20:45:48.144,27.965294117647062,-2.5665841796874997,7.917624890136718,10.251971508789062,122.38931297709924,39.74045801526717,-0.06870229007633588
1749735948.1544487,2025-06-12 20:45:48.154,27.965294117647062,-3.1004911499023438,-3.4069489624023435,6.4667386840820305,109.70992366412214,2.732824427480916,1.0610687022900764
1749735948.1646576,2025-06-12 20:45:48.164,28.012352941176474,-2.779668127441406,-8.8489693359375,18.365920935058593,119.23664122137404,-35.44274809160305,5.320610687022901
1749735948.1758518,2025-06-12 20:45:48.175,27.965294117647062,11.930306872558592,6.208164904785156,3.4668040039062498,112.26717557251908,-61.213740458015266,-3.9923664122137406
1749735948.1866283,2025-06-12 20:45:48.186,27.965294117647062,-9.4618849609375,-2.4205378784179685,-1.1085153686523437,109.87786259541984,-62.41984732824427,1.4809160305343512
1749735948.1973944,2025-06-12 20:45:48.197,27.965294117647062,-2.4588451049804685,0.00239420166015625,7.206546997070312,122.09923664122137,-94.30534351145039,-4.076335877862595
1749735948.2077487,2025-06-12 20:45:48.207,27.965294117647062,-15.571887597656248,-6.210559106445312,4.491522314453125,112.67175572519083,71.03053435114504,9.022900763358779
1749735948.2211504,2025-06-12 20:45:48.221,27.91823529411765,0.70868369140625,-1.4628572143554686,0.48123453369140623,109.45801526717557,-4.267175572519084,1.6030534351145038
1749735948.2308414,2025-06-12 20:45:48.230,27.965294117647062,-1.0510545288085937,3.6942531616210936,2.2361843505859373,104.74045801526718,-43.37404580152672,-0.030534351145038167
1749735948.2409227,2025-06-12 20:45:48.240,28.059411764705885,-3.821145849609375,-5.9783215454101555,18.452112194824217,138.34351145038167,39.10687022900763,-0.183206106870229
1749735948.250653,2025-06-12 20:45:48.250,28.012352941176474,7.1778165771484375,-5.233724829101562,6.823474731445312,113.86259541984732,45.778625954198475,2.282442748091603
1749735948.2604103,2025-06-12 20:45:48.260,28.059411764705885,-6.629544396972656,2.8107927490234372,0.4908113403320312,120.37404580152672,20.770992366412212,-7.580152671755725
1749735948.2701087,2025-06-12 20:45:48.270,28.15352941176471,5.130774157714844,3.785232824707031,9.572018237304688,109.7175572519084,28.35114503816794,-6.740458015267175
1749735948.2798421,2025-06-12 20:45:48.279,28.012352941176474,12.34689796142578,0.0718260498046875,18.23364129333496,128.35114503816794,-62.541984732824424,0.9312977099236641
1749735948.2895124,2025-06-12 20:45:48.289,28.012352941176474,-0.584185205078125,1.3168109130859373,-1.8626888916015625,125.83969465648855,-36.3206106870229,-11.091603053435115
1749735948.2994056,2025-06-12 20:45:48.299,28.059411764705885,-7.931990100097655,4.398148449707031,5.173869787597656,130.29770992366412,38.99236641221374,0.44274809160305345
1749735948.3090525,2025-06-12 20:45:48.309,28.15352941176471,-2.327164013671875,2.990357873535156,-0.8643067993164062,108.98473282442748,3.0916030534351147,-2.236641221374046
1749735948.318827,2025-06-12 20:45:48.318,28.106470588235297,-6.284779357910156,-8.044517578125,14.61420693359375,129.99236641221373,-5.648854961832061,-0.32061068702290074
1749735948.3293378,2025-06-12 20:45:48.329,27.965294117647062,3.3327287109375,5.884947680664062,4.209006518554688,117.27480916030534,24.81679389312977,-13.877862595419847
1749735948.3393,2025-06-12 20:45:48.339,28.012352941176474,-13.426682910156249,4.218583325195312,4.218583325195312,95.77862595419847,1.7099236641221374,15.450381679389313
1749735948.3489935,2025-06-12 20:45:48.348,28.059411764705885,5.504269616699219,-1.2593500732421874,15.198392138671874,108.43511450381679,2.3969465648854964,-5.236641221374046
1749735948.3586667,2025-06-12 20:45:48.358,28.059411764705885,4.963180041503906,-2.901772412109375,18.497602026367186,120.08396946564885,-21.450381679389313,0.8396946564885496
1749735948.3683538,2025-06-12 20:45:48.368,28.059411764705885,6.72291826171875,0.6775590698242188,6.809109521484374,128.0,-25.236641221374047,4.091603053435114
1749735948.378041,2025-06-12 20:45:48.378,28.106470588235297,-10.445901843261717,2.1452046874999997,-5.5641246582031245,116.32824427480917,-1.8702290076335877,2.6259541984732824
1749735948.387886,2025-06-12 20:45:48.387,28.15352941176471,-1.9800047729492187,1.9847931762695312,11.578359228515625,91.8473282442748,-43.534351145038165,3.0610687022900764
1749735948.3978016,2025-06-12 20:45:48.397,28.059411764705885,3.201047619628906,-6.196193896484375,12.404358801269531,135.5801526717557,-1.8244274809160306,11.732824427480915
1749735948.4074411,2025-06-12 20:45:48.407,28.059411764705885,-3.938461730957031,-1.848323681640625,0.7589619262695312,108.09923664122137,84.17557251908397,-9.748091603053435
1749735948.4171247,2025-06-12 20:45:48.417,28.15352941176471,-16.04354532470703,3.3710359375,-4.355052819824219,124.77099236641222,-5.083969465648855,-8.229007633587786
1749735948.4268174,2025-06-12 20:45:48.426,28.059411764705885,-1.455674609375,-4.6351744140625,8.01818135986328,99.94656488549619,-14.038167938931299,-15.625954198473282
1749735948.4366546,2025-06-12 20:45:48.436,28.059411764705885,-1.9393033447265624,3.806780639648437,19.61270144958496,120.7175572519084,-15.16793893129771,-7.305343511450381
1749735948.4474642,2025-06-12 20:45:48.447,28.012352941176474,-1.9800047729492187,3.299209887695312,7.127538342285156,121.36641221374046,29.236641221374047,-6.4961832061068705
1749735948.4580145,2025-06-12 20:45:48.458,28.059411764705885,-6.797138513183594,4.989516259765625,-2.0063409912109376,121.26717557251908,-2.4580152671755724,-8.84732824427481
1749735948.467717,2025-06-12 20:45:48.467,28.106470588235297,1.9752163696289062,0.51714755859375,18.559851269531247,104.87022900763358,-5.190839694656488,-13.305343511450381
1749735948.4779038,2025-06-12 20:45:48.477,28.059411764705885,0.0718260498046875,-0.6057330200195312,15.581464404296874,130.8320610687023,12.076335877862595,-8.13740458015267
1749735948.4882348,2025-06-12 20:45:48.488,28.012352941176474,6.260837341308593,6.926425402832031,6.801926916503906,104.68702290076335,-16.87786259541985,6.1603053435114505
1749735948.4982786,2025-06-12 20:45:48.498,28.106470588235297,3.708618371582031,1.2713210815429687,1.2665326782226562,122.83206106870229,28.244274809160306,-6.908396946564886
1749735948.5086098,2025-06-12 20:45:48.508,28.059411764705885,2.3582886352539063,-1.3263877197265623,15.741875915527343,126.46564885496183,40.6412213740458,-9.511450381679388
1749735948.518225,2025-06-12 20:45:48.518,28.106470588235297,3.246537451171875,-3.6463691284179687,11.58075343017578,136.15267175572518,50.35114503816794,-1.2595419847328244
1749735948.5282109,2025-06-12 20:45:48.528,28.106470588235297,2.6982652709960937,1.7357962036132812,5.5832782714843745,111.92366412213741,-5.358778625954199,-0.8931297709923665
1749735948.5390773,2025-06-12 20:45:48.539,28.20058823529412,-0.181959326171875,-0.1771709228515625,10.17056865234375,107.65648854961832,13.67175572519084,-5.8320610687022905
1749735948.5508382,2025-06-12 20:45:48.550,28.012352941176474,-0.12689268798828124,-5.066130712890625,5.367800122070312,117.07633587786259,-112.54198473282443,1.2290076335877862
1749735948.5605924,2025-06-12 20:45:48.560,28.15352941176471,-7.343016491699219,3.323151904296875,5.231330627441406,118.06870229007633,76.81679389312977,-2.5801526717557253
1749735948.5702696,2025-06-12 20:45:48.570,27.494705882352942,-6.89530078125,-2.166752502441406,7.967903124999999,116.3206106870229,76.19083969465649,-5.6106870229007635
1749735948.5799274,2025-06-12 20:45:48.579,28.106470588235297,4.129997863769531,1.5298948608398437,17.041927416992188,93.43511450381679,-12.80916030534351,-4.213740458015267
1749735948.5895936,2025-06-12 20:45:48.589,28.059411764705885,12.880804931640624,4.762067102050781,19.61270144958496,115.59541984732824,-59.43511450381679,7.137404580152672
1749735948.599266,2025-06-12 20:45:48.599,28.059411764705885,-3.4811692138671875,4.477157104492187,11.389217297363281,116.6030534351145,-4.931297709923665,13.473282442748092
1749735948.6089458,2025-06-12 20:45:48.608,28.106470588235297,4.374206433105469,0.373495458984375,10.781090075683593,99.61832061068702,7.488549618320611,0.3969465648854962
1749735948.618609,2025-06-12 20:45:48.618,28.059411764705885,11.547234606933593,3.4261025756835934,8.257601525878906,112.16030534351145,-20.671755725190838,-4.33587786259542
1749735948.6282685,2025-06-12 20:45:48.628,28.15352941176471,4.331110803222656,-8.310273962402343,17.64766043701172,123.1145038167939,-21.34351145038168,6.282442748091603
1749735948.6379333,2025-06-12 20:45:48.637,28.106470588235297,7.062894897460937,5.758054992675781,0.7445967163085937,111.08396946564885,6.267175572519084,-9.106870229007633
1749735948.647683,2025-06-12 20:45:48.647,28.106470588235297,-9.82580361328125,7.149086157226562,0.7493851196289062,108.37404580152672,7.687022900763359,6.152671755725191
1749735948.6577258,2025-06-12 20:45:48.657,28.20058823529412,-3.8235400512695312,-3.380612744140625,9.162609753417968,102.16030534351145,-13.458015267175572,0.7251908396946565
1749735948.6674302,2025-06-12 20:45:48.667,28.106470588235297,5.374982727050781,-3.957615344238281,17.25740556640625,121.50381679389314,-11.007633587786259,2.3969465648854964
1749735948.677092,2025-06-12 20:45:48.677,27.494705882352942,0.22744915771484372,-0.852335791015625,-1.4820108276367188,115.66412213740458,-43.656488549618324,-2.2442748091603053
1749735948.6867492,2025-06-12 20:45:48.686,28.20058823529412,-16.31169591064453,4.204218115234375,1.7573440185546874,126.49618320610686,32.23664122137404,4.1679389312977095
1749735948.696401,2025-06-12 20:45:48.696,28.15352941176471,-2.4396914916992185,-1.1731588134765625,5.1140147460937495,105.10687022900764,35.20610687022901,-0.6335877862595419
1749735948.7060606,2025-06-12 20:45:48.706,28.20058823529412,5.193023400878906,-3.1172505615234374,18.99978582458496,131.10687022900763,43.35114503816794,7.702290076335878
1749735948.7157583,2025-06-12 20:45:48.715,28.15352941176471,2.6216508178710938,0.00718260498046875,-0.44532150878906246,119.7557251908397,16.137404580152673,-2.83206106870229
1749735948.7254713,2025-06-12 20:45:48.725,28.106470588235297,-7.467514978027343,6.667851623535156,-8.465897070312499,107.05343511450381,-64.40458015267176,-0.8473282442748091
1749735948.735112,2025-06-12 20:45:48.735,27.494705882352942,-2.4660277099609376,1.4724340209960938,7.230489013671875,103.57251908396947,-74.45038167938931,-4.122137404580153
1749735948.7447567,2025-06-12 20:45:48.744,28.106470588235297,0.21308394775390624,-0.031124621582031248,16.237475659179687,103.26717557251908,-51.93893129770992,6.8320610687022905
1749735948.7544062,2025-06-12 20:45:48.754,28.20058823529412,1.8722656982421875,3.327940307617187,12.74912384033203,119.55725190839695,50.282442748091604,9.465648854961833
1749735948.7649753,2025-06-12 20:45:48.764,27.494705882352942,-0.5482721801757812,1.3239935180664062,6.619967590332031,112.41984732824427,41.908396946564885,-0.366412213740458
1749735948.7745993,2025-06-12 20:45:48.774,28.106470588235297,11.461043347167967,0.5051765502929687,18.102558752441404,99.38931297709924,-55.87022900763359,-1.4580152671755726
1749735948.7842448,2025-06-12 20:45:48.784,28.15352941176471,-1.7717092285156248,-1.5514426757812498,9.057264880371093,124.56488549618321,-65.01526717557252,7.1603053435114505
1749735948.793891,2025-06-12 20:45:48.793,28.059411764705885,11.73398233642578,6.325480786132812,11.427524523925781,111.16793893129771,29.763358778625953,-4.1603053435114505
1749735948.8035746,2025-06-12 20:45:48.803,28.24764705882353,0.488417138671875,3.356670727539062,7.117961535644531,113.2824427480916,16.412213740458014,5.870229007633588
1749735948.8132265,2025-06-12 20:45:48.813,28.15352941176471,8.619125976562499,0.9002198242187499,14.911087939453123,102.21374045801527,-80.16793893129771,-5.175572519083969
1749735948.822869,2025-06-12 20:45:48.822,28.059411764705885,2.482787121582031,-1.9752163696289062,14.657302563476561,118.32824427480917,-35.48091603053435,1.916030534351145
1749735948.8325071,2025-06-12 20:45:48.832,27.494705882352942,2.3056161987304686,0.13646949462890623,8.710105639648438,113.25190839694656,40.786259541984734,15.893129770992367
1749735948.8421483,2025-06-12 20:45:48.842,28.15352941176471,0.08858546142578125,5.453991381835937,6.203376501464843,112.2442748091603,35.37404580152672,0.7633587786259542
1749735948.8524034,2025-06-12 20:45:48.852,28.294705882352943,11.233594189453123,-0.040701428222656245,15.423447094726562,100.87022900763358,-26.083969465648856,1.1984732824427482
1749735948.862048,2025-06-12 20:45:48.862,28.294705882352943,14.532804077148437,5.722141967773437,19.61270144958496,130.25954198473283,-50.87022900763359,2.015267175572519
1749735948.871931,2025-06-12 20:45:48.871,28.20058823529412,9.13627353515625,3.5003228271484375,7.091625317382812,117.6793893129771,5.755725190839694,2.381679389312977
1749735948.88157,2025-06-12 20:45:48.881,28.20058823529412,-5.269637854003906,1.3335703247070312,-6.062118603515625,110.17557251908397,-14.633587786259541,-4.114503816793893
1749735948.8912518,2025-06-12 20:45:48.891,28.20058823529412,6.083666418457031,2.2936451904296873,19.603723193359375,112.80152671755725,8.793893129770993,-0.42748091603053434
1749735948.900913,2025-06-12 20:45:48.900,28.24764705882353,7.9655089233398435,-3.337517114257812,19.55583916015625,115.52671755725191,38.93893129770992,4.366412213740458
1749735948.9105587,2025-06-12 20:45:48.910,28.20058823529412,11.228805786132812,0.028730419921875,14.35802735595703,112.74045801526718,5.122137404580153,-1.6641221374045803
1749735948.9202096,2025-06-12 20:45:48.920,28.106470588235297,-10.436325036621094,3.88818349609375,-4.6255976074218745,108.25190839694656,-17.870229007633586,3.687022900763359
1749735948.9298654,2025-06-12 20:45:48.929,28.20058823529412,0.3016694091796875,-5.099649536132812,18.976442358398437,95.1145038167939,8.145038167938932,-1.5267175572519085
1749735948.939508,2025-06-12 20:45:48.939,27.494705882352942,16.94376514892578,1.5849614990234373,15.780183142089843,127.2824427480916,-59.35114503816794,1.3435114503816794
1749735948.9491532,2025-06-12 20:45:48.949,28.106470588235297,0.8283937744140625,1.1372457885742187,-1.5969325073242187,124.06870229007633,-0.17557251908396945,-1.6870229007633588
1749735948.958791,2025-06-12 20:45:48.958,28.24764705882353,-13.230358374023437,3.153163586425781,-8.068459594726562,117.16030534351145,1.2900763358778626,-3.8396946564885495
1749735948.968427,2025-06-12 20:45:48.968,28.24764705882353,0.7685387329101562,-2.8323405639648436,18.595764294433593,109.25954198473282,71.74045801526718,-2.6106870229007635
1749735948.9794116,2025-06-12 20:45:48.979,27.494705882352942,-4.431667272949219,0.3854664672851562,11.585541833496093,132.26717557251908,14.786259541984732,-2.198473282442748
1749735948.9891174,2025-06-12 20:45:48.989,28.24764705882353,10.637437976074217,7.493851196289062,12.241553088378906,122.13740458015268,56.0,-8.16793893129771
1749735948.9988809,2025-06-12 20:45:48.998,28.106470588235297,6.5577183471679685,2.2936451904296873,5.176263989257812,119.97709923664122,-14.80916030534351,-9.442748091603054
1749735949.008548,2025-06-12 20:45:49.008,28.106470588235297,3.361459130859375,0.23223756103515625,13.09388887939453,107.51908396946565,-57.37404580152672,-5.183206106870229
1749735949.0181932,2025-06-12 20:45:49.018,28.906470588235294,-3.5673604736328124,-1.6400281372070311,12.473790649414061,115.99236641221374,-25.290076335877863,0.21374045801526717
1749735949.0278342,2025-06-12 20:45:49.027,28.906470588235294,-0.9337386474609375,-0.5913678100585937,8.283937744140625,113.86259541984732,51.00763358778626,2.7099236641221376
1749735949.0374722,2025-06-12 20:45:49.037,28.24764705882353,1.7525556152343749,1.6160861206054686,5.645527514648437,108.93129770992367,29.03053435114504,-0.4732824427480916
1749735949.0471482,2025-06-12 20:45:49.047,28.294705882352943,-1.0031704956054688,-2.9735984619140625,13.374010473632811,109.45801526717557,-20.954198473282442,2.045801526717557
1749735949.0567842,2025-06-12 20:45:49.056,28.906470588235294,-8.959102612304687,-3.440467785644531,5.430049365234375,124.86259541984732,-90.61068702290076,-4.786259541984733
1749735949.0664344,2025-06-12 20:45:49.066,28.906470588235294,-12.612654345703124,3.5865140869140624,-3.303998291015625,107.89312977099236,-37.37404580152672,-7.801526717557252
1749735949.0760775,2025-06-12 20:45:49.076,28.81235294117647,-3.9743747558593747,7.211335400390625,6.562506750488281,114.52671755725191,27.198473282442748,-0.6412213740458015
1749735949.085722,2025-06-12 20:45:49.085,27.494705882352942,-4.209006518554688,-3.5506010620117183,17.745822705078123,109.19847328244275,31.69465648854962,-14.755725190839694
1749735949.0959206,2025-06-12 20:45:49.095,27.494705882352942,4.853046765136718,-1.7094599853515624,19.500772521972657,121.81679389312977,80.1526717557252,-7.740458015267175
1749735949.1055894,2025-06-12 20:45:49.105,28.15352941176471,13.328520642089844,1.4413093994140624,14.980519787597656,108.17557251908397,34.25190839694657,5.152671755725191
1749735949.1151605,2025-06-12 20:45:49.115,28.953529411764706,0.07900865478515624,-2.442085693359375,-1.9488801513671874,103.25954198473282,-26.198473282442748,-0.2900763358778626
1749735949.124859,2025-06-12 20:45:49.124,28.953529411764706,-9.49300958251953,-6.208164904785156,0.9433154541015625,113.3587786259542,-9.076335877862595,-15.083969465648854
1749735949.1345546,2025-06-12 20:45:49.134,28.953529411764706,1.1061211669921875,-5.389347937011719,13.915100048828124,133.6030534351145,59.412213740458014,-4.564885496183206
1749735949.1442711,2025-06-12 20:45:49.144,28.20058823529412,13.287819213867186,8.28633194580078,14.851232897949219,132.61832061068702,38.11450381679389,-5.6183206106870225
1749735949.1538968,2025-06-12 20:45:49.153,28.20058823529412,-0.29927520751953124,-1.9632453613281249,1.9728221679687499,120.02290076335878,-36.61068702290076,-9.50381679389313
1749735949.1635625,2025-06-12 20:45:49.163,27.494705882352942,-2.31758720703125,-4.146757275390625,14.736311218261719,103.2824427480916,-66.95419847328245,-2.213740458015267
1749735949.1732237,2025-06-12 20:45:49.173,28.20058823529412,-2.418143676757812,-1.0414777221679687,11.609483850097655,124.45801526717557,-8.717557251908397,-2.053435114503817
1749735949.1828833,2025-06-12 20:45:49.182,28.20058823529412,3.1579519897460937,4.932055419921875,8.288726147460936,130.9236641221374,84.8854961832061,-14.717557251908397
1749735949.192572,2025-06-12 20:45:49.192,27.494705882352942,7.807491613769531,2.3870190551757813,16.201562634277344,107.80916030534351,43.52671755725191,-1.8625954198473282
1749735949.2029564,2025-06-12 20:45:49.202,27.494705882352942,6.907271789550781,-6.706158850097656,12.895170141601561,112.95419847328245,4.068702290076335,-3.053435114503817
1749735949.2126584,2025-06-12 20:45:49.212,28.24764705882353,-1.9512743530273435,2.0087351928710935,7.323862878417969,127.13740458015268,-75.96946564885496,-5.030534351145038
1749735949.222324,2025-06-12 20:45:49.222,28.294705882352943,-4.431667272949219,6.1459156616210935,-8.214505895996094,117.9618320610687,-4.7251908396946565,-17.47328244274809
1749735949.232043,2025-06-12 20:45:49.232,28.20058823529412,-2.1356278808593747,1.7788918334960937,11.286266625976562,115.54198473282443,32.725190839694655,-2.6946564885496183
1749735949.2417426,2025-06-12 20:45:49.241,27.541764705882354,7.4579381713867186,2.0566192260742184,19.05066260986328,105.81679389312977,-66.57251908396947,-1.0534351145038168
1749735949.2514548,2025-06-12 20:45:49.251,28.906470588235294,1.0749965454101562,-0.22026655273437498,11.841721411132811,114.8473282442748,-44.16030534351145,8.435114503816793
1749735949.261923,2025-06-12 20:45:49.261,28.953529411764706,-3.900154504394531,2.2673089721679687,1.465251416015625,110.58015267175573,-96.34351145038168,-4.923664122137405
1749735949.272119,2025-06-12 20:45:49.272,28.24764705882353,-13.316549633789062,0.679953271484375,-5.346252307128906,113.97709923664122,-61.10687022900763,-10.16793893129771
1749735949.2824192,2025-06-12 20:45:49.282,28.20058823529412,-14.628572143554686,-4.759672900390624,10.912771166992187,123.56488549618321,2.015267175572519,-2.618320610687023
1749735949.2933161,2025-06-12 20:45:49.293,27.494705882352942,-1.5658078857421873,1.1875240234375,1.9512743530273435,127.46564885496183,3.900763358778626,-4.488549618320611
1749735949.3032923,2025-06-12 20:45:49.303,28.294705882352943,3.5984850952148437,8.508992700195313,11.310208642578125,122.67175572519083,42.02290076335878,-1.549618320610687
1749735949.3142846,2025-06-12 20:45:49.314,28.953529411764706,4.5585599609375,1.7453730102539062,14.86320390625,98.62595419847328,-14.427480916030534,-7.2748091603053435
1749735949.3249953,2025-06-12 20:45:49.324,27.494705882352942,9.900023864746093,-3.9264907226562498,16.455348010253907,100.92366412213741,-66.9618320610687,-1.6488549618320612
1749735949.335054,2025-06-12 20:45:49.335,28.294705882352943,1.0079588989257813,-0.3902548706054687,10.426748229980468,124.79389312977099,44.52671755725191,-11.65648854961832
1749735949.3458102,2025-06-12 20:45:49.345,28.20058823529412,0.6416460449218749,8.549694128417968,-3.201047619628906,137.61068702290078,47.36641221374046,-11.641221374045802
1749735949.3562894,2025-06-12 20:45:49.356,28.341764705882355,-5.729324572753906,-9.83777462158203,1.8818425048828125,121.74809160305344,12.099236641221374,-26.557251908396946
1749735949.3667235,2025-06-12 20:45:49.366,27.494705882352942,-2.454056701660156,4.965574243164062,12.84489190673828,140.3740458015267,26.946564885496183,1.0458015267175573
1749735949.376537,2025-06-12 20:45:49.376,28.20058823529412,2.2290017456054687,-3.5434184570312497,7.278373046874999,120.4885496183206,-42.732824427480914,-7.244274809160306
1749735949.3861868,2025-06-12 20:45:49.386,28.24764705882353,-4.783614916992187,4.979939453125,4.6064439941406246,112.44274809160305,-23.358778625954198,-5.595419847328245
1749735949.3958564,2025-06-12 20:45:49.395,28.294705882352943,-8.21690009765625,-4.158728283691406,5.829881042480468,118.20610687022901,-50.7557251908397,-9.977099236641221
1749735949.405492,2025-06-12 20:45:49.405,28.294705882352943,-4.50109912109375,3.469198205566406,10.965443603515624,125.27480916030534,-17.229007633587788,-1.1374045801526718
1749735949.4153132,2025-06-12 20:45:49.415,28.953529411764706,-3.162740393066406,4.0988732421875,7.970297326660156,119.05343511450381,26.076335877862597,-0.7938931297709924
1749735949.4262908,2025-06-12 20:45:49.426,28.24764705882353,-5.389347937011719,-0.5219359619140624,12.349292163085936,100.4885496183206,49.70229007633588,-3.954198473282443
1749735949.43618,2025-06-12 20:45:49.436,28.953529411764706,4.979939453125,-8.51617530517578,14.252682482910155,128.61832061068702,32.900763358778626,1.6488549618320612
1749735949.445937,2025-06-12 20:45:49.445,28.20058823529412,-1.7908628417968748,-2.731784094238281,10.184933862304687,112.35114503816794,39.045801526717554,9.748091603053435
1749735949.4555974,2025-06-12 20:45:49.455,28.906470588235294,-9.287108239746093,-2.5665841796874997,-5.0757075195312495,107.20610687022901,6.129770992366412,-0.15267175572519084
1749735949.4654014,2025-06-12 20:45:49.465,28.294705882352943,-1.0558429321289062,3.208230224609375,3.373430139160156,114.02290076335878,56.3587786259542,-9.267175572519085
1749735949.475101,2025-06-12 20:45:49.475,28.341764705882355,-4.84586416015625,-8.616731774902343,11.188104357910156,135.61068702290078,-4.717557251908397,1.1297709923664123
1749735949.4847171,2025-06-12 20:45:49.484,27.494705882352942,-11.281478222656249,-4.934449621582031,6.519411120605469,102.00763358778626,30.549618320610687,-6.396946564885496
1749735949.4943295,2025-06-12 20:45:49.494,28.294705882352943,-14.573505505371093,-3.0238766967773434,2.592920397949219,99.99236641221374,11.603053435114504,7.7251908396946565
1749735949.5039635,2025-06-12 20:45:49.503,28.953529411764706,-2.1164742675781247,-1.0965443603515623,0.8882488159179687,102.34351145038168,-64.40458015267176,-5.526717557251908
1749735949.5135972,2025-06-12 20:45:49.513,28.294705882352943,-1.9033903198242186,-3.399766357421875,11.590330236816406,124.13740458015268,45.67175572519084,-8.213740458015268
1749735949.5232425,2025-06-12 20:45:49.523,28.294705882352943,14.872780712890624,2.9376854370117185,18.54009910583496,141.89312977099237,61.97709923664122,-3.6412213740458017
1749735949.533165,2025-06-12 20:45:49.533,28.294705882352943,4.7189714721679685,0.5746083984375,1.1061211669921875,136.54198473282443,-19.633587786259543,0.8854961832061069
1749735949.542826,2025-06-12 20:45:49.542,28.294705882352943,-9.610325463867188,-2.971204260253906,1.7214309936523438,108.01526717557252,-10.946564885496183,-9.045801526717558
1749735949.5529346,2025-06-12 20:45:49.552,28.953529411764706,-8.951920007324219,-5.5832782714843745,5.9017070922851556,125.97709923664122,-45.908396946564885,-7.374045801526718
1749735949.563098,2025-06-12 20:45:49.563,28.341764705882355,-12.610260144042968,4.75009609375,3.909731311035156,115.22137404580153,32.82442748091603,4.7251908396946565
1749735949.572712,2025-06-12 20:45:49.572,28.24764705882353,5.9974751586914055,6.4092778442382805,14.125789794921873,123.92366412213741,37.06870229007634,1.2366412213740459
1749735949.5823274,2025-06-12 20:45:49.582,28.24764705882353,8.750807067871094,3.7517140014648436,9.959280355834961,102.64885496183206,-28.16030534351145,-6.67175572519084
1749735949.5919466,2025-06-12 20:45:49.591,28.953529411764706,6.404489440917969,-1.13006318359375,10.625466967773438,117.5114503816794,-44.786259541984734,-8.427480916030534
1749735949.6015742,2025-06-12 20:45:49.601,28.20058823529412,-3.318363500976562,-4.2688615600585935,9.842563024902343,121.36641221374046,54.595419847328245,-8.305343511450381
1749735949.6112018,2025-06-12 20:45:49.611,27.541764705882354,-2.7174188842773437,0.4477157104492187,5.834669445800781,120.04580152671755,28.893129770992367,4.2748091603053435
1749735949.6208415,2025-06-12 20:45:49.620,28.953529411764706,2.0973206542968748,3.593696691894531,-1.9321207397460936,111.19083969465649,-5.6183206106870225,-13.091603053435115
1749735949.6304865,2025-06-12 20:45:49.630,28.294705882352943,-7.805097412109374,-8.341398583984375,11.89439384765625,140.87786259541986,-14.778625954198473,-3.9618320610687023
1749735949.641324,2025-06-12 20:45:49.641,28.294705882352943,-2.6767174560546874,-0.2442085693359375,-6.306327172851562,140.14503816793894,-8.335877862595419,-17.137404580152673
1749735949.6514447,2025-06-12 20:45:49.651,27.541764705882354,-19.6133,3.9240965209960934,7.726088757324218,97.74045801526718,19.801526717557252,16.519083969465647
1749735949.6611032,2025-06-12 20:45:49.661,28.341764705882355,10.117896215820313,4.797980126953124,17.386692456054686,99.41984732824427,37.49618320610687,-13.633587786259541
1749735949.6707423,2025-06-12 20:45:49.670,28.294705882352943,11.006145031738281,-0.7445967163085937,19.61270144958496,117.92366412213741,-92.79389312977099,-0.8091603053435115
1749735949.6803844,2025-06-12 20:45:49.680,28.294705882352943,-4.599261389160156,-1.3575123413085937,-1.9943699829101562,116.44274809160305,-87.99236641221374,-1.1755725190839694
1749735949.6900682,2025-06-12 20:45:49.690,28.294705882352943,-19.6133,0.5243301635742187,-3.6727053466796873,112.38931297709924,0.007633587786259542,5.824427480916031
1749735949.6997094,2025-06-12 20:45:49.699,28.294705882352943,-6.136338854980468,2.5258827514648434,8.075642199707032,95.67175572519083,-33.35114503816794,1.1374045801526718
1749735949.7093458,2025-06-12 20:45:49.709,28.435882352941178,7.654262707519531,-9.449913952636718,15.686809277343748,133.25954198473283,33.29770992366412,10.770992366412214
1749735949.7189956,2025-06-12 20:45:49.718,28.294705882352943,-0.8307879760742187,-4.1946413085937495,6.639121203613281,101.6412213740458,47.98473282442748,5.366412213740458
1749735949.728694,2025-06-12 20:45:49.728,28.294705882352943,-9.64623848876953,0.1484405029296875,0.842758984375,124.09160305343511,13.603053435114504,-10.221374045801527
1749735949.7383256,2025-06-12 20:45:49.738,28.294705882352943,-6.423643054199219,0.9911994873046874,14.46097802734375,97.6030534351145,-15.412213740458014,0.4580152671755725
1749735949.749085,2025-06-12 20:45:49.749,28.341764705882355,9.969455712890625,1.4006079711914061,18.75138740234375,116.54961832061069,8.068702290076336,-5.66412213740458
1749735949.758708,2025-06-12 20:45:49.758,28.24764705882353,9.732429748535155,4.027047192382812,13.804966772460936,108.64885496183206,24.984732824427482,16.00763358778626
1749735949.76834,2025-06-12 20:45:49.768,28.341764705882355,3.928884924316406,0.6440402465820312,3.852270471191406,110.1526717557252,-28.740458015267176,1.5648854961832062
1749735949.7780137,2025-06-12 20:45:49.778,28.953529411764706,-2.6216508178710938,0.612915625,8.152256652832031,95.13740458015268,-120.2442748091603,-2.1374045801526718
1749735949.7876456,2025-06-12 20:45:49.787,28.294705882352943,3.9432501342773434,5.7077767578125,13.421894506835937,116.94656488549619,-40.67175572519084,5.511450381679389
1749735949.7972763,2025-06-12 20:45:49.797,28.294705882352943,8.391676818847655,8.066065393066406,12.026074938964843,125.65648854961832,61.68702290076336,-4.984732824427481
1749735949.8069055,2025-06-12 20:45:49.806,28.294705882352943,8.920795385742187,3.1962592163085937,13.316549633789062,99.30534351145039,36.29007633587786,-2.3969465648854964
1749735949.8165643,2025-06-12 20:45:49.816,28.24764705882353,10.180145458984374,-2.090138049316406,9.49959363708496,116.83206106870229,-90.74809160305344,-12.366412213740459
1749735949.826227,2025-06-12 20:45:49.826,28.294705882352943,-15.399505078125,4.572925170898437,8.932766394042968,112.16030534351145,-39.83206106870229,-0.6641221374045801
1749735949.8358297,2025-06-12 20:45:49.835,28.341764705882355,6.694187841796874,6.193799694824218,18.203115222167966,109.38931297709924,18.35114503816794,1.3893129770992367
1749735949.8454616,2025-06-12 20:45:49.845,28.341764705882355,-1.8052280517578123,3.383006945800781,-0.6871358764648438,102.58015267175573,-11.98473282442748,-4.549618320610687
1749735949.8561857,2025-06-12 20:45:49.856,28.341764705882355,0.507570751953125,-5.705382556152343,15.887922216796873,110.78625954198473,-47.396946564885496,-2.8702290076335877
1749735949.865913,2025-06-12 20:45:49.865,28.341764705882355,3.488351818847656,1.0606313354492187,17.336414221191404,128.83969465648855,-28.740458015267176,-5.305343511450381
1749735949.8755872,2025-06-12 20:45:49.875,28.24764705882353,4.656722229003906,10.766724865722656,0.6823474731445313,116.3587786259542,-13.870229007633588,-16.763358778625953
1749735949.885215,2025-06-12 20:45:49.885,28.341764705882355,3.399766357421875,0.7733271362304687,13.28542501220703,100.17557251908397,36.19847328244275,0.1450381679389313
1749735949.8948457,2025-06-12 20:45:49.894,28.24764705882353,7.40526573486328,-0.3184288208007812,10.843339318847656,111.55725190839695,-51.68702290076336,-1.450381679389313
1749735949.9044778,2025-06-12 20:45:49.904,28.294705882352943,-8.702923034667968,5.7891796142578125,11.410765112304686,120.22900763358778,-51.16030534351145,-3.1755725190839694
1749735949.9141083,2025-06-12 20:45:49.914,28.294705882352943,1.7669208251953124,4.048595007324218,10.146626635742187,116.30534351145039,15.022900763358779,-7.068702290076335
1749735949.9237447,2025-06-12 20:45:49.923,28.24764705882353,-2.770091320800781,4.134786267089844,7.635109094238281,107.74809160305344,11.748091603053435,5.236641221374046
1749735949.9333794,2025-06-12 20:45:49.933,28.294705882352943,6.691793640136718,-1.5394716674804687,16.3571857421875,99.37404580152672,-52.37404580152672,4.679389312977099
1749735949.9430137,2025-06-12 20:45:49.943,28.294705882352943,1.0941501586914062,-5.846640454101562,9.773131176757811,123.09923664122137,-40.06106870229008,-2.8244274809160306
1749735949.9526463,2025-06-12 20:45:49.952,28.24764705882353,-4.297591979980469,7.706935144042968,7.211335400390625,97.85496183206106,57.63358778625954,2.480916030534351
1749735949.9623098,2025-06-12 20:45:49.962,28.294705882352943,-2.379836450195312,2.89219560546875,-2.310404602050781,121.16030534351145,-5.580152671755725,-7.740458015267175
1749735949.9729257,2025-06-12 20:45:49.972,28.294705882352943,-4.101267443847656,-2.243366955566406,6.426037255859375,115.73282442748092,-24.717557251908396,-2.816793893129771
1749735949.9828286,2025-06-12 20:45:49.982,28.294705882352943,-1.1180921752929687,1.177947216796875,14.65251416015625,128.35114503816794,-8.114503816793894,-5.862595419847328
1749735949.992462,2025-06-12 20:45:49.992,28.341764705882355,8.238447912597655,0.22266075439453123,13.974955090332031,105.21374045801527,-8.305343511450381,2.7786259541984735
1749735950.00213,2025-06-12 20:45:50.002,28.24764705882353,-2.7150246826171873,5.109226342773437,-0.5291185668945312,112.90839694656489,-10.763358778625955,-9.511450381679388
1749735950.011763,2025-06-12 20:45:50.011,27.588823529411766,5.312733483886719,-0.2705447875976562,19.61270144958496,93.96946564885496,-33.038167938931295,3.5343511450381677
1749735950.0213993,2025-06-12 20:45:50.021,28.341764705882355,0.55545478515625,1.8411410766601561,19.60132899169922,109.1145038167939,22.328244274809162,5.641221374045801
1749735950.0310302,2025-06-12 20:45:50.031,28.341764705882355,12.706028210449219,1.8746598999023436,13.998897106933592,106.7557251908397,8.709923664122137,10.687022900763358
1749735950.040663,2025-06-12 20:45:50.040,28.435882352941178,-0.24899697265624998,-1.7645266235351562,-0.2705447875976562,102.72519083969466,-21.427480916030536,3.3740458015267176
1749735950.0502882,2025-06-12 20:45:50.050,28.388823529411766,-5.348646508789062,-3.6296097167968746,10.87925234375,108.83206106870229,5.435114503816794,-10.80916030534351
1749735950.0599263,2025-06-12 20:45:50.059,28.294705882352943,5.576095666503906,-1.0941501586914062,13.366827868652344,115.94656488549619,-13.50381679389313,-2.366412213740458
1749735950.0695786,2025-06-12 20:45:50.069,28.24764705882353,3.689464758300781,1.39821376953125,2.4013842651367185,118.46564885496183,-47.045801526717554,3.0839694656488548
1749735950.079221,2025-06-12 20:45:50.079,28.388823529411766,-14.252682482910155,2.5905261962890624,-8.947131604003905,115.1145038167939,-68.96946564885496,-4.763358778625954
1749735950.0896118,2025-06-12 20:45:50.089,28.388823529411766,-10.079588989257813,-1.5610194824218748,11.990161914062499,118.61832061068702,5.480916030534351,-15.801526717557252
1749735950.0991511,2025-06-12 20:45:50.099,28.388823529411766,8.228871105957031,-0.8810662109374999,6.7037646484375,131.25954198473283,4.412213740458015,-5.061068702290076
1749735950.1099799,2025-06-12 20:45:50.109,28.294705882352943,5.5832782714843745,5.0206408813476555,8.188169677734374,128.24427480916032,64.54198473282443,0.11450381679389313
1749735950.120895,2025-06-12 20:45:50.120,28.341764705882355,10.347739575195313,2.1930887207031247,19.258958154296874,92.23664122137404,41.274809160305345,0.3893129770992366
1749735950.1308012,2025-06-12 20:45:50.130,28.341764705882355,8.073247998046874,-10.158597644042969,7.824251025390624,124.48091603053435,-77.6793893129771,6.8320610687022905
1749735950.1404958,2025-06-12 20:45:50.140,28.341764705882355,-10.156203442382813,2.7078420776367187,-2.6096798095703124,120.29770992366412,-63.717557251908396,-2.9389312977099236
1749735950.1501348,2025-06-12 20:45:50.150,28.294705882352943,-13.33091484375,3.1747114013671873,-10.108319409179687,123.90076335877863,48.656488549618324,-10.183206106870228
1749735950.1597695,2025-06-12 20:45:50.159,28.388823529411766,6.696582043457031,1.9105729248046874,13.242329382324218,117.02290076335878,92.83206106870229,-8.816793893129772
1749735950.169406,2025-06-12 20:45:50.169,28.294705882352943,8.353369592285155,-10.330980163574218,19.61270144958496,142.90076335877862,30.931297709923665,1.534351145038168
1749735950.1790516,2025-06-12 20:45:50.179,28.341764705882355,-2.5857377929687497,-2.3295582153320313,-4.012681982421875,118.10687022900764,-32.954198473282446,-4.870229007633588
1749735950.1886275,2025-06-12 20:45:50.188,28.294705882352943,-17.851167578125,10.977414611816405,-2.166752502441406,130.0763358778626,58.00763358778626,-4.5038167938931295
1749735950.1995575,2025-06-12 20:45:50.199,28.388823529411766,-8.769960681152343,1.5682020874023437,5.839457849121094,101.22900763358778,-19.6793893129771,-8.045801526717558
1749735950.2091825,2025-06-12 20:45:50.209,28.341764705882355,11.745953344726562,2.2290017456054687,19.45947254333496,126.66412213740458,32.32824427480916,7.343511450381679
1749735950.218824,2025-06-12 20:45:50.218,28.24764705882353,16.519991455078124,2.133233679199219,12.41094285583496,123.97709923664122,42.229007633587784,19.297709923664122
1749735950.2285557,2025-06-12 20:45:50.228,28.341764705882355,0.9648632690429687,0.25139117431640623,1.7262193969726563,106.03053435114504,-22.229007633587788,8.435114503816793
1749735950.238174,2025-06-12 20:45:50.238,28.294705882352943,-12.89038173828125,3.153163586425781,-1.946485949707031,104.93129770992367,-7.419847328244275,-0.6412213740458015
1749735950.247829,2025-06-12 20:45:50.247,28.341764705882355,-5.595249279785156,-9.727641345214844,15.751452722167969,139.2824427480916,-20.610687022900763,5.66412213740458
1749735950.2576015,2025-06-12 20:45:50.257,28.341764705882355,-2.1260510742187497,3.5506010620117183,3.392583752441406,101.74045801526718,-6.847328244274809,-3.1068702290076335
1749735950.2694118,2025-06-12 20:45:50.269,28.24764705882353,-4.525041137695312,2.2074539306640624,-5.406107348632812,112.87786259541984,-88.94656488549619,4.511450381679389
1749735950.2794292,2025-06-12 20:45:50.279,28.341764705882355,-8.741230261230468,0.07900865478515624,10.309432348632813,105.98473282442748,-30.18320610687023,-8.740458015267176
1749735950.2903411,2025-06-12 20:45:50.290,28.341764705882355,-5.923254907226562,0.10773907470703124,10.146626635742187,106.02290076335878,-39.030534351145036,-9.229007633587786
1749735950.3002722,2025-06-12 20:45:50.300,28.435882352941178,10.283096130371094,5.046977099609375,14.944606762695312,113.72519083969466,48.52671755725191,3.0381679389312977
1749735950.310282,2025-06-12 20:45:50.310,28.294705882352943,-4.709394665527343,2.4109610717773435,4.311957189941406,113.82442748091603,34.89312977099237,-5.206106870229007
1749735950.324331,2025-06-12 20:45:50.324,28.341764705882355,-1.3862427612304686,-5.5258174316406246,16.546327673339842,135.57251908396947,0.8473282442748091,-3.404580152671756
1749735950.3342922,2025-06-12 20:45:50.334,28.435882352941178,-8.817844714355468,1.2234370483398436,-6.246472131347656,130.95419847328245,-21.52671755725191,-8.083969465648854
1749735950.3440917,2025-06-12 20:45:50.344,28.388823529411766,-16.474501623535154,2.1691467041015624,0.3232172241210937,136.90076335877862,19.671755725190838,-9.801526717557252
1749735950.3538792,2025-06-12 20:45:50.353,28.341764705882355,7.685387329101562,0.8834604125976562,14.867992309570312,93.44274809160305,-4.541984732824427,-2.1755725190839694
1749735950.363914,2025-06-12 20:45:50.363,28.435882352941178,7.563283044433593,-0.19871873779296872,19.61270144958496,106.12213740458016,-45.55725190839695,6.351145038167939
1749735950.373564,2025-06-12 20:45:50.373,28.341764705882355,7.4962453979492185,1.6304513305664061,8.228871105957031,134.85496183206106,29.755725190839694,14.045801526717558
1749735950.3833513,2025-06-12 20:45:50.383,28.341764705882355,-0.086191259765625,-0.20350714111328125,0.4261678955078125,110.19083969465649,19.114503816793892,1.3511450381679388
1749735950.3958948,2025-06-12 20:45:50.395,28.341764705882355,0.05027823486328125,-1.24498486328125,19.57259857177734,105.2824427480916,16.572519083969464,-0.3893129770992366
1749735950.4055696,2025-06-12 20:45:50.405,28.388823529411766,8.291120349121094,4.378994836425781,16.72110439453125,125.50381679389314,-32.6412213740458,-5.435114503816794
1749735950.4152792,2025-06-12 20:45:50.415,28.435882352941178,4.146757275390625,0.01915361328125,8.990227233886719,116.90839694656489,-62.79389312977099,1.282442748091603
1749735950.4263275,2025-06-12 20:45:50.426,28.341764705882355,-1.3670891479492187,1.9656395629882812,-4.75009609375,107.64885496183206,-134.4198473282443,4.9465648854961835
1749735950.435946,2025-06-12 20:45:50.435,28.388823529411766,-19.6133,-5.149927770996094,0.8906430175781249,108.25954198473282,35.93129770992366,-3.16793893129771
1749735950.4455616,2025-06-12 20:45:50.445,28.388823529411766,3.1771056030273437,4.809951135253906,7.493851196289062,102.22900763358778,64.77862595419847,1.2900763358778626
1749735950.4552526,2025-06-12 20:45:50.455,28.388823529411766,17.152060693359374,-0.06464344482421874,13.048399047851563,113.29770992366412,28.69465648854962,2.282442748091603
1749735950.4649985,2025-06-12 20:45:50.464,28.294705882352943,6.947973217773437,2.808398547363281,8.667010009765624,117.09160305343511,-8.442748091603054,0.5267175572519084
1749735950.4747062,2025-06-12 20:45:50.474,28.341764705882355,0.4165910888671875,-4.860229370117187,11.355698474121093,88.0,-85.33587786259542,-0.4961832061068702
1749735950.4843931,2025-06-12 20:45:50.484,28.435882352941178,-6.457161877441406,2.5474305664062498,4.247313745117188,130.16030534351145,-43.396946564885496,-3.7480916030534353
1749735950.494185,2025-06-12 20:45:50.494,28.435882352941178,3.095702746582031,10.862492932128905,11.750741748046874,116.54961832061069,21.786259541984734,-2.045801526717557
1749735950.503872,2025-06-12 20:45:50.503,28.388823529411766,1.9201497314453124,-1.0941501586914062,6.081272216796875,116.74045801526718,-7.847328244274809,-9.931297709923664
1749735950.5134933,2025-06-12 20:45:50.513,28.48294117647059,-2.5067291381835934,-2.3582886352539063,14.07790576171875,120.93129770992367,20.015267175572518,-9.16793893129771
1749735950.523165,2025-06-12 20:45:50.523,28.341764705882355,4.6639048339843745,0.14604630126953125,10.86009873046875,132.12977099236642,11.053435114503817,-4.259541984732825
1749735950.5368083,2025-06-12 20:45:50.536,28.388823529411766,-5.755660791015624,3.399766357421875,-2.04943662109375,129.8091603053435,11.206106870229007,-10.641221374045802
1749735950.5464365,2025-06-12 20:45:50.546,28.388823529411766,-1.675941162109375,2.0446482177734375,10.036493359375,115.38931297709924,44.091603053435115,-2.564885496183206
1749735950.5560927,2025-06-12 20:45:50.556,28.388823529411766,-5.070919116210937,-3.2920272827148436,10.601524951171875,139.23664122137404,13.83969465648855,-7.320610687022901
1749735950.565829,2025-06-12 20:45:50.565,28.388823529411766,2.916137622070312,5.008669873046875,11.501744775390625,120.32824427480917,77.74045801526718,-1.4580152671755726
1749735950.5754519,2025-06-12 20:45:50.575,28.388823529411766,-1.467645617675781,0.9600748657226562,3.342305517578125,126.89312977099236,17.450381679389313,-7.67175572519084
1749735950.585137,2025-06-12 20:45:50.585,28.341764705882355,3.852270471191406,3.5027170288085934,13.151349719238281,95.0,7.5038167938931295,-3.595419847328244
1749735950.5948114,2025-06-12 20:45:50.594,28.294705882352943,4.3813890380859375,-8.228871105957031,17.049110021972655,110.4885496183206,-38.916030534351144,4.030534351145038
1749735950.6045313,2025-06-12 20:45:50.604,28.388823529411766,-0.7254431030273437,4.031835595703125,-0.5243301635742187,128.55725190839695,-32.732824427480914,3.7480916030534353
1749735950.6142418,2025-06-12 20:45:50.614,28.435882352941178,-10.151415039062499,1.5107412475585937,-1.458068811035156,118.02290076335878,2.8702290076335877,-4.8396946564885495
1749735950.6239269,2025-06-12 20:45:50.623,28.435882352941178,-1.5658078857421873,-0.7038952880859375,4.714183068847656,106.77862595419847,-13.580152671755725,-4.412213740458015
1749735950.6346657,2025-06-12 20:45:50.634,28.341764705882355,5.178658190917968,-3.5793314819335937,17.0467158203125,145.93893129770993,4.885496183206107,5.175572519083969
1749735950.6452954,2025-06-12 20:45:50.645,28.388823529411766,6.469132885742187,2.9281086303710935,3.651157531738281,120.89312977099236,14.870229007633588,-7.740458015267175
1749735950.654967,2025-06-12 20:45:50.654,28.341764705882355,-0.7134720947265625,-0.06464344482421874,9.521740002441407,94.68702290076335,9.435114503816793,5.6106870229007635
1749735950.6646698,2025-06-12 20:45:50.664,28.388823529411766,4.570530969238281,-2.4444798950195312,8.106766821289062,99.05343511450381,-94.09923664122137,-2.8244274809160306
1749735950.6743543,2025-06-12 20:45:50.674,28.294705882352943,-1.2282254516601563,-5.128379956054687,9.5001921875,114.76335877862596,-51.954198473282446,5.343511450381679
1749735950.6840227,2025-06-12 20:45:50.684,28.48294117647059,1.199495031738281,3.4548329956054684,5.633556506347656,125.19847328244275,3.0610687022900764,5.351145038167939
1749735950.6936657,2025-06-12 20:45:50.693,28.388823529411766,-1.8076222534179687,5.437231970214843,1.656787548828125,122.44274809160305,12.076335877862595,-4.770992366412214
1749735950.7033226,2025-06-12 20:45:50.703,28.388823529411766,0.2537853759765625,-4.69263525390625,9.49959363708496,96.66412213740458,-85.68702290076335,-0.183206106870229
1749735950.7130146,2025-06-12 20:45:50.713,28.388823529411766,-3.4069489624023435,1.4317325927734375,11.197681164550781,126.97709923664122,-58.18320610687023,7.67175572519084
1749735950.7226985,2025-06-12 20:45:50.722,28.341764705882355,-0.32082302246093747,10.702081420898438,-1.8315642700195311,112.64885496183206,-28.786259541984734,-12.259541984732824
1749735950.7324138,2025-06-12 20:45:50.732,28.435882352941178,-9.418789331054686,0.2154781494140625,3.1771056030273437,98.49618320610686,27.893129770992367,3.030534351145038
1749735950.7420685,2025-06-12 20:45:50.742,28.341764705882355,-3.6008792968749996,-0.16998831787109375,16.812084057617188,109.02290076335878,-22.198473282442748,0.1984732824427481
1749735950.7527063,2025-06-12 20:45:50.752,28.388823529411766,3.366247534179687,2.403778466796875,12.241553088378906,124.17557251908397,-27.763358778625953,-0.9007633587786259
1749735950.7623963,2025-06-12 20:45:50.762,28.388823529411766,-6.038176586914062,1.68551796875,4.680664245605469,110.5114503816794,-10.213740458015268,-2.4885496183206106
1749735950.7720866,2025-06-12 20:45:50.772,28.388823529411766,-7.884106066894531,1.7405846069335937,-3.3327287109375,106.47328244274809,-33.89312977099237,7.122137404580153
1749735950.781784,2025-06-12 20:45:50.781,28.341764705882355,-1.7812860351562498,-5.087678527832031,12.907141149902342,94.91603053435115,-85.89312977099236,-4.061068702290076
1749735950.7914937,2025-06-12 20:45:50.791,28.388823529411766,-1.6424223388671875,-1.0103531005859374,16.381127758789063,132.13740458015266,0.6183206106870229,2.648854961832061
1749735950.801196,2025-06-12 20:45:50.801,28.294705882352943,7.60398447265625,6.548141540527343,11.111489904785156,116.53435114503817,-14.236641221374045,8.320610687022901
1749735950.8108723,2025-06-12 20:45:50.810,28.341764705882355,-1.5322890624999999,0.6488286499023437,1.9632453613281249,116.51908396946565,-54.06106870229008,-4.885496183206107
1749735950.8205497,2025-06-12 20:45:50.820,28.341764705882355,-4.6998178588867185,-0.612915625,11.803414184570311,102.16030534351145,-59.20610687022901,-5.580152671755725
1749735950.830256,2025-06-12 20:45:50.830,28.435882352941178,-6.057330200195312,-1.7621324218749999,18.555062866210935,122.27480916030534,53.70229007633588,-0.9923664122137404
1749735950.8399458,2025-06-12 20:45:50.839,28.294705882352943,12.050016955566406,0.3280056274414062,11.257536206054686,107.80152671755725,0.4732824427480916,-6.106870229007634
1749735950.8495948,2025-06-12 20:45:50.849,28.435882352941178,3.9815573608398434,7.601590270996093,8.99501563720703,123.68702290076335,24.801526717557252,0.7557251908396947
1749735950.8598936,2025-06-12 20:45:50.859,28.341764705882355,5.66946953125,-2.5522189697265625,18.08041238708496,89.89312977099236,-4.412213740458015,-6.847328244274809
1749735950.8695557,2025-06-12 20:45:50.869,28.341764705882355,16.646884143066405,5.600037683105469,19.61270144958496,127.45801526717557,-11.442748091603054,7.488549618320611
1749735950.8793204,2025-06-12 20:45:50.879,28.435882352941178,1.0342951171875,0.4261678955078125,4.486733911132812,119.12977099236642,-3.2061068702290076,4.8320610687022905
1749735950.8889406,2025-06-12 20:45:50.888,28.435882352941178,-5.504269616699219,0.354341845703125,2.770091320800781,114.69465648854961,13.282442748091603,-0.916030534351145
1749735950.8985827,2025-06-12 20:45:50.898,28.341764705882355,0.9840168823242187,-2.27927998046875,19.469647900390623,107.8854961832061,19.435114503816795,-1.0610687022900764
1749735950.9082375,2025-06-12 20:45:50.908,28.388823529411766,9.641450085449218,7.3932947265625,19.61270144958496,123.53435114503817,-26.19083969465649,-0.32061068702290074
1749735950.9178848,2025-06-12 20:45:50.917,28.388823529411766,6.579266162109374,8.001421948242188,5.008669873046875,114.7175572519084,-57.35114503816794,-1.786259541984733
1749735950.9275224,2025-06-12 20:45:50.927,28.294705882352943,-3.450044592285156,5.533000036621093,-2.4157494750976563,121.58015267175573,-22.549618320610687,-2.6793893129770994
1749735950.9371967,2025-06-12 20:45:50.937,28.388823529411766,4.996698864746094,2.5354595581054684,15.41147608642578,115.08396946564885,6.076335877862595,-5.312977099236641
1749735950.9468489,2025-06-12 20:45:50.946,28.388823529411766,8.245630517578125,-4.733336682128906,19.61270144958496,131.2290076335878,48.404580152671755,4.183206106870229
1749735950.9565182,2025-06-12 20:45:50.956,28.388823529411766,16.474501623535154,7.240065820312499,17.60695900878906,126.33587786259542,71.3206106870229,1.900763358778626
1749735950.9668229,2025-06-12 20:45:50.966,28.341764705882355,9.332598071289063,5.070919116210937,2.7365724975585937,108.26717557251908,-31.96946564885496,1.083969465648855
1749735950.976517,2025-06-12 20:45:50.976,28.388823529411766,2.3151930053710936,-2.750937707519531,7.663839514160156,106.32824427480917,-81.8473282442748,-5.030534351145038
1749735950.986183,2025-06-12 20:45:50.986,28.48294117647059,-8.027758166503906,-0.852335791015625,14.494496850585938,126.99236641221374,34.63358778625954,3.6259541984732824
1749735950.9958494,2025-06-12 20:45:50.995,28.388823529411766,8.262389929199218,-0.8810662109374999,16.75222901611328,100.1526717557252,88.19083969465649,3.6106870229007635
1749735951.0055218,2025-06-12 20:45:51.005,28.48294117647059,2.6288334228515624,3.4620156005859375,6.825868933105468,107.76335877862596,3.5343511450381677,4.068702290076335
1749735951.0151706,2025-06-12 20:45:51.015,28.388823529411766,11.192892761230468,-3.758896606445312,15.78197879333496,109.6412213740458,-56.908396946564885,-2.366412213740458
1749735951.0248454,2025-06-12 20:45:51.024,28.48294117647059,1.5634136840820312,-2.9759926635742184,9.236830004882812,138.89312977099237,1.5114503816793894,-4.534351145038168
1749735951.0344892,2025-06-12 20:45:51.034,28.388823529411766,6.567295153808593,5.473144995117187,1.7118541870117185,136.54961832061068,72.93129770992367,-4.763358778625954
1749735951.0442312,2025-06-12 20:45:51.044,28.341764705882355,-0.040701428222656245,1.8746598999023436,-4.050989208984375,119.69465648854961,-14.053435114503817,-6.519083969465649
1749735951.053903,2025-06-12 20:45:51.053,28.341764705882355,2.712630480957031,-1.2114660400390624,12.993332409667968,118.41221374045801,-5.122137404580153,-10.267175572519085
1749735951.0636547,2025-06-12 20:45:51.063,28.435882352941178,4.127603662109375,-2.2744915771484373,13.213598962402344,132.9083969465649,-16.015267175572518,-3.931297709923664
1749735951.0735433,2025-06-12 20:45:51.073,28.341764705882355,-1.8602946899414061,0.7015010864257812,1.2401964599609374,121.06106870229007,-39.58015267175573,1.0
1749735951.0832489,2025-06-12 20:45:51.083,28.341764705882355,-9.543287817382812,3.201047619628906,-4.551377355957031,117.29770992366412,20.984732824427482,-2.7938931297709924
1749735951.092915,2025-06-12 20:45:51.092,28.388823529411766,3.0885201416015624,-0.29448680419921874,19.539079748535155,108.53435114503817,1.9236641221374047,-10.625954198473282
1749735951.1025996,2025-06-12 20:45:51.102,28.388823529411766,7.9272016967773435,2.4349030883789062,17.010802795410154,124.25954198473282,2.053435114503817,-7.458015267175573
1749735951.1122441,2025-06-12 20:45:51.112,28.388823529411766,2.940079638671875,-1.2761094848632812,7.654262707519531,110.32824427480917,-38.74809160305343,6.885496183206107
1749735951.1219354,2025-06-12 20:45:51.121,28.388823529411766,-11.9135474609375,3.1316157714843746,2.020706201171875,110.02290076335878,-16.129770992366414,-3.267175572519084
1749735951.131623,2025-06-12 20:45:51.131,28.53,-11.911153259277343,-3.9169139160156248,9.97903251953125,115.34351145038168,31.091603053435115,-19.267175572519083
1749735951.1413138,2025-06-12 20:45:51.141,28.435882352941178,12.246341491699217,3.1651345947265623,19.58696378173828,144.26717557251908,42.64885496183206,-3.984732824427481
1749735951.150982,2025-06-12 20:45:51.150,28.48294117647059,13.536816186523437,9.993397729492187,10.824185705566405,119.37404580152672,24.85496183206107,-4.809160305343512
1749735951.1605494,2025-06-12 20:45:51.160,28.435882352941178,-7.340622290039062,0.6057330200195312,-0.8834604125976562,117.00763358778626,-55.38931297709924,-7.2748091603053435
1749735951.1702118,2025-06-12 20:45:51.170,28.435882352941178,-6.612784985351562,-1.1013327636718748,11.427524523925781,110.3969465648855,-71.54198473282443,-2.404580152671756
1749735951.1803968,2025-06-12 20:45:51.180,28.435882352941178,-7.517793212890624,0.44053310546874996,12.679691992187498,113.7557251908397,-35.969465648854964,2.015267175572519
1749735951.1920235,2025-06-12 20:45:51.192,28.341764705882355,-9.294290844726563,3.191470812988281,-1.0749965454101562,125.62595419847328,12.030534351145038,4.877862595419847
1749735951.2016804,2025-06-12 20:45:51.201,28.435882352941178,-2.4013842651367185,-0.44053310546874996,2.9089550170898435,109.18320610687023,47.79389312977099,-6.770992366412214
1749735951.2113547,2025-06-12 20:45:51.211,28.48294117647059,7.161057165527343,-1.7238251953125,13.350068457031249,116.25954198473282,6.0458015267175576,-9.793893129770993
1749735951.2210863,2025-06-12 20:45:51.221,28.48294117647059,6.7803791015625,-3.4261025756835934,14.669273571777342,131.58778625954199,15.106870229007633,-0.29770992366412213
1749735951.2307458,2025-06-12 20:45:51.230,28.341764705882355,-4.829104748535156,3.0980969482421874,2.068590234375,111.73282442748092,-39.25190839694657,9.458015267175572
1749735951.2404022,2025-06-12 20:45:51.240,28.53,-6.030993981933594,-0.5889736083984375,-0.13646949462890623,104.41221374045801,-34.229007633587784,-9.229007633587786
1749735951.2501671,2025-06-12 20:45:51.250,28.435882352941178,-8.597578161621094,-4.917690209960937,8.480262280273436,122.27480916030534,-3.2213740458015265,-7.526717557251908
1749735951.259884,2025-06-12 20:45:51.259,28.435882352941178,3.402160559082031,-5.032611889648437,12.08592998046875,129.78625954198472,32.54961832061068,-9.473282442748092
1749735951.269561,2025-06-12 20:45:51.269,28.341764705882355,1.7980454467773437,8.808267907714843,11.104307299804686,117.03053435114504,-10.755725190839694,-1.16793893129771
1749735951.2792604,2025-06-12 20:45:51.279,28.435882352941178,0.7062894897460937,-1.9225439331054686,-0.814028564453125,115.06106870229007,-21.83969465648855,-9.13740458015267
1749735951.288939,2025-06-12 20:45:51.288,28.435882352941178,-0.8667010009765624,-4.378994836425781,11.762712756347655,134.93893129770993,26.137404580152673,-6.427480916030534
1749735951.2987661,2025-06-12 20:45:51.298,28.435882352941178,3.402160559082031,-0.3136404174804687,5.248090039062499,111.59541984732824,-5.679389312977099,5.33587786259542
1749735951.3086877,2025-06-12 20:45:51.308,28.435882352941178,-0.5315127685546874,0.15322890625,1.2713210815429687,119.59541984732824,21.290076335877863,-4.633587786259542
1749735951.3183494,2025-06-12 20:45:51.318,28.435882352941178,-3.0142998901367184,2.77727392578125,4.201823913574218,122.82442748091603,25.770992366412212,-4.2748091603053435
1749735951.3280032,2025-06-12 20:45:51.328,28.435882352941178,2.5234885498046875,1.62805712890625,19.61270144958496,111.92366412213741,-40.50381679389313,-0.5801526717557252
1749735951.337676,2025-06-12 20:45:51.337,28.341764705882355,-0.7852981445312499,-1.149216796875,8.17141026611328,130.12213740458014,-40.70992366412214,-8.541984732824428
1749735951.3473332,2025-06-12 20:45:51.347,28.53,-10.40041201171875,4.1563340820312495,4.8314989501953125,116.08396946564885,25.52671755725191,18.412213740458014
1749735951.3569815,2025-06-12 20:45:51.356,28.388823529411766,-3.758896606445312,-0.9409212524414062,-2.6288334228515624,118.25954198473282,-6.549618320610687,-9.389312977099237
1749735951.3666387,2025-06-12 20:45:51.366,28.435882352941178,-9.502586389160156,-0.4381389038085937,9.088389501953124,110.53435114503817,35.7557251908397,-7.977099236641221
1749735951.3762884,2025-06-12 20:45:51.376,28.388823529411766,2.844311572265625,-2.722207287597656,5.851428857421874,140.59541984732823,-94.95419847328245,8.648854961832061
1749735951.3859441,2025-06-12 20:45:51.385,28.48294117647059,-8.240842114257813,3.727771984863281,5.7508723876953125,105.07633587786259,-31.404580152671755,-2.6793893129770994
1749735951.3956058,2025-06-12 20:45:51.395,28.388823529411766,-5.7125651611328125,3.5338416503906247,1.8052280517578123,100.57251908396947,-17.595419847328245,11.335877862595419
1749735951.4052608,2025-06-12 20:45:51.405,28.435882352941178,-4.659116430664063,-6.739677673339843,13.429077111816406,116.86259541984732,-8.045801526717558,2.381679389312977
1749735951.4159923,2025-06-12 20:45:51.415,28.435882352941178,-0.18914193115234373,1.3862427612304686,6.818686328125,140.7709923664122,-26.72519083969466,1.015267175572519
1749735951.4262793,2025-06-12 20:45:51.426,28.48294117647059,-15.796942553710936,-6.37815322265625,-3.337517114257812,103.16793893129771,-49.83206106870229,-2.8244274809160306
1749735951.4398284,2025-06-12 20:45:51.439,28.341764705882355,9.828197814941406,-7.936778503417968,7.781155395507812,137.22137404580153,-62.091603053435115,-1.8015267175572518
1749735951.453474,2025-06-12 20:45:51.453,28.48294117647059,-19.503166723632813,-0.6272808349609375,-5.03740029296875,119.77862595419847,16.229007633587788,-6.862595419847328
1749735951.4631054,2025-06-12 20:45:51.463,28.388823529411766,-11.010933435058593,4.244919543457031,6.076483813476562,131.77862595419847,97.25190839694656,-12.007633587786259
1749735951.4728038,2025-06-12 20:45:51.472,28.388823529411766,12.69166300048828,-1.5658078857421873,14.197615844726561,119.23664122137404,42.12213740458015,-11.793893129770993
1749735951.4824958,2025-06-12 20:45:51.482,28.341764705882355,-4.8889597900390624,1.905784521484375,17.726669091796875,122.3969465648855,-64.40458015267176,-11.954198473282442
1749735951.492171,2025-06-12 20:45:51.492,28.341764705882355,-3.725377783203125,-1.8363526733398436,6.461950280761719,127.19847328244275,52.54961832061068,-10.259541984732824
1749735951.5019403,2025-06-12 20:45:51.501,28.388823529411766,-10.678139404296875,3.3686417358398435,5.9376201171875,111.03053435114504,19.0381679389313,17.69465648854962
1749735951.5116534,2025-06-12 20:45:51.511,28.48294117647059,5.219359619140625,1.0678139404296874,6.2392895263671875,94.23664122137404,-8.86259541984733,-5.366412213740458
1749735951.5226045,2025-06-12 20:45:51.522,28.48294117647059,9.085995300292968,-4.395754248046875,19.30624363708496,123.6793893129771,-24.068702290076335,10.648854961832061
1749735951.532269,2025-06-12 20:45:51.532,28.48294117647059,2.5474305664062498,0.2657563842773437,8.406042028808594,120.8473282442748,-12.366412213740459,-0.3816793893129771
1749735951.5419638,2025-06-12 20:45:51.541,28.435882352941178,-1.1635820068359375,6.564900952148437,-1.13006318359375,126.08396946564885,-7.6106870229007635,-5.580152671755725
1749735951.55159,2025-06-12 20:45:51.551,28.435882352941178,-12.86404552001953,-1.9512743530273435,-1.2593500732421874,118.25190839694656,-0.183206106870229,-9.229007633587786
1749735951.5612202,2025-06-12 20:45:51.561,28.435882352941178,-6.047753393554687,-2.9472622436523435,15.78197879333496,113.96946564885496,-12.610687022900763,4.137404580152672
1749735951.5709436,2025-06-12 20:45:51.570,28.435882352941178,3.8379052612304685,1.2473790649414063,4.383783239746093,118.31297709923665,-51.3587786259542,-2.877862595419847
1749735951.5805647,2025-06-12 20:45:51.580,28.435882352941178,-9.775525378417969,-2.6048914062499997,5.379771130371093,116.79389312977099,28.27480916030534,14.053435114503817
1749735951.5902479,2025-06-12 20:45:51.590,28.435882352941178,-9.624690673828125,-6.907271789550781,-0.48123453369140623,104.51908396946565,19.206106870229007,3.0610687022900764
1749735951.600515,2025-06-12 20:45:51.600,28.341764705882355,-5.480327600097656,-3.1579519897460937,8.403647827148436,120.47328244274809,34.50381679389313,-17.541984732824428
1749735951.610234,2025-06-12 20:45:51.610,28.341764705882355,-3.1028853515624997,-10.855310327148437,13.84087979736328,144.35114503816794,134.0763358778626,2.2748091603053435
1749735951.6199527,2025-06-12 20:45:51.619,28.53,4.99909306640625,8.44674345703125,8.252813122558594,124.19847328244275,35.02290076335878,-0.4580152671755725
1749735951.629559,2025-06-12 20:45:51.629,28.341764705882355,-4.800374328613281,2.123656872558594,-4.237736938476562,122.0,71.38167938931298,-10.82442748091603
1749735951.6405625,2025-06-12 20:45:51.640,28.435882352941178,0.6607996582031249,-9.442731347656249,15.026009619140623,124.38167938931298,-22.290076335877863,-1.015267175572519
1749735951.6502604,2025-06-12 20:45:51.650,28.388823529411766,-6.150704064941406,1.4173673828125,-1.1947066284179686,129.15267175572518,4.923664122137405,-0.8015267175572519
1749735951.6599288,2025-06-12 20:45:51.659,28.435882352941178,-6.8402341430664055,6.593631372070312,10.512939489746094,94.23664122137404,-59.38167938931298,17.267175572519083
1749735951.6695826,2025-06-12 20:45:51.669,28.435882352941178,-1.9105729248046874,2.5522189697265625,-1.43652099609375,94.29007633587786,-108.74045801526718,-4.00763358778626
1749735951.6792426,2025-06-12 20:45:51.679,28.435882352941178,-0.93852705078125,2.501940734863281,15.32229207458496,119.4885496183206,-40.64885496183206,6.961832061068702
1749735951.6888938,2025-06-12 20:45:51.688,28.435882352941178,4.220977526855468,-2.6886884643554687,9.639055883789062,128.7175572519084,10.374045801526718,-3.351145038167939
1749735951.6985416,2025-06-12 20:45:51.698,28.435882352941178,-6.60799658203125,-0.9552864624023437,-0.5506663818359374,114.45801526717557,0.8854961832061069,0.08396946564885496
1749735951.7082446,2025-06-12 20:45:51.708,28.53,-1.0726023437499999,-0.18914193115234373,3.6248213134765623,110.34351145038168,11.786259541984732,-1.8702290076335877
1749735951.7178907,2025-06-12 20:45:51.717,28.435882352941178,-1.218648645019531,-8.872911352539061,13.582306018066406,136.77862595419847,-0.015267175572519083,-0.0916030534351145
1749735951.727555,2025-06-12 20:45:51.727,28.48294117647059,2.8323405639648436,-3.459621398925781,2.4660277099609376,109.18320610687023,12.931297709923664,-1.3053435114503817
1749735951.7372015,2025-06-12 20:45:51.737,28.624117647058824,-7.659051110839843,-0.699106884765625,-5.236119030761718,126.01526717557252,7.633587786259542,3.2061068702290076
1749735951.747723,2025-06-12 20:45:51.747,28.48294117647059,-3.42849677734375,1.1755530151367186,4.814739538574218,110.67175572519083,-53.587786259541986,-2.50381679389313
1749735951.7573912,2025-06-12 20:45:51.757,28.53,6.751648681640624,-2.612074011230469,19.498378320312497,116.25954198473282,35.38167938931298,1.5572519083969465
1749735951.7670422,2025-06-12 20:45:51.767,28.388823529411766,10.024522351074218,0.2537853759765625,13.256694592285156,131.206106870229,16.954198473282442,9.022900763358779
1749735951.7766988,2025-06-12 20:45:51.776,28.341764705882355,-9.375693701171874,2.0302830078125,1.20667763671875,124.61068702290076,-19.946564885496183,2.015267175572519
1749735951.7863476,2025-06-12 20:45:51.786,28.48294117647059,-2.9089550170898435,3.2537200561523436,10.970232006835937,98.44274809160305,-28.633587786259543,-2.053435114503817
1749735951.7959957,2025-06-12 20:45:51.795,28.48294117647059,1.0654197387695312,-6.880935571289062,17.238251953124998,127.14503816793894,21.46564885496183,12.587786259541986
1749735951.8056374,2025-06-12 20:45:51.805,28.388823529411766,3.727771984863281,2.5665841796874997,8.650250598144531,108.26717557251908,47.954198473282446,8.954198473282442
1749735951.8152914,2025-06-12 20:45:51.815,28.388823529411766,-4.414907861328125,-4.185064501953125,4.948814831542968,103.56488549618321,5.122137404580153,1.4351145038167938
1749735951.824933,2025-06-12 20:45:51.824,28.435882352941178,-4.015076184082031,-1.9680337646484374,7.232883215332031,90.47328244274809,-94.58778625954199,-1.4351145038167938
1749735951.8346145,2025-06-12 20:45:51.834,28.53,0.8116343627929687,-3.066972326660156,12.31577333984375,122.5114503816794,-40.603053435114504,7.709923664122138
1749735951.8442738,2025-06-12 20:45:51.844,28.48294117647059,6.677428430175781,1.8243816650390623,16.172832214355466,127.55725190839695,55.38167938931298,8.854961832061068
1749735951.855099,2025-06-12 20:45:51.855,28.435882352941178,-0.4644751220703125,-1.005564697265625,1.4413093994140624,120.9618320610687,8.816793893129772,-1.4045801526717556
1749735951.8647513,2025-06-12 20:45:51.864,28.48294117647059,3.0071172851562498,0.603338818359375,4.541800549316406,115.66412213740458,-2.0229007633587788,-8.572519083969466
1749735951.8745592,2025-06-12 20:45:51.874,28.388823529411766,3.8235400512695312,-4.11802685546875,19.61270144958496,134.6030534351145,21.34351145038168,3.282442748091603
1749735951.8842268,2025-06-12 20:45:51.884,28.435882352941178,10.302249743652343,5.295974072265625,4.987122058105468,113.79389312977099,-23.51145038167939,-15.13740458015267
1749735951.893888,2025-06-12 20:45:51.893,28.435882352941178,1.0989385620117187,1.9512743530273435,5.0182466796875,101.04580152671755,-74.77862595419847,-0.5038167938931297
1749735951.9035347,2025-06-12 20:45:51.903,28.435882352941178,-6.0333881835937495,-1.3024457031249999,-3.689464758300781,113.66412213740458,-32.86259541984733,-3.801526717557252
1749735951.9131987,2025-06-12 20:45:51.913,28.53,-0.05985504150390625,-5.566518859863281,15.320496423339844,112.58015267175573,-61.74045801526717,3.8702290076335877
1749735951.922837,2025-06-12 20:45:51.922,28.435882352941178,-10.283096130371094,-0.9864110839843749,4.244919543457031,116.4885496183206,33.083969465648856,10.709923664122137
1749735951.9324784,2025-06-12 20:45:51.932,28.435882352941178,2.0374656127929685,5.604826086425781,9.90241806640625,132.05343511450383,72.6793893129771,-0.45038167938931295
1749735951.942139,2025-06-12 20:45:51.942,28.53,1.4963760375976562,4.939238024902344,9.655815295410155,114.98473282442748,34.23664122137404,-7.717557251908397
1749735951.951816,2025-06-12 20:45:51.951,28.435882352941178,4.661510632324219,-1.6328455322265625,16.53675086669922,124.14503816793894,-9.183206106870228,1.0916030534351144
1749735951.9623203,2025-06-12 20:45:51.962,28.388823529411766,0.19632453613281248,3.1483751831054687,0.7972691528320313,107.91603053435115,-9.099236641221374,-2.816793893129771
1749735951.9719942,2025-06-12 20:45:51.971,28.388823529411766,-3.1555577880859373,4.752490295410156,6.5505357421875,114.41984732824427,-7.931297709923665,-4.259541984732825
1749735951.981662,2025-06-12 20:45:51.981,28.48294117647059,-2.2577321655273437,-1.6472107421875,8.959102612304687,101.93893129770993,4.854961832061068,-5.938931297709924
1749735951.9913318,2025-06-12 20:45:51.991,28.48294117647059,-0.10773907470703124,-3.564966271972656,15.931017846679687,107.64885496183206,-16.366412213740457,7.541984732824427
1749735952.0009723,2025-06-12 20:45:52.000,28.388823529411766,6.339845996093749,-0.08858546142578125,17.463306909179686,129.72519083969465,83.70992366412214,4.33587786259542
1749735952.0106957,2025-06-12 20:45:52.010,28.388823529411766,5.279214660644531,1.4939818359375,13.165714929199218,108.50381679389314,22.50381679389313,1.4732824427480915
1749735952.0203424,2025-06-12 20:45:52.020,28.48294117647059,0.6009446166992187,2.214636535644531,2.597708801269531,107.12977099236642,-7.862595419847328,-1.6564885496183206
1749735952.030027,2025-06-12 20:45:52.030,28.48294117647059,-11.621454858398437,-9.572018237304688,12.073958972167969,130.77862595419847,-7.198473282442748,-6.908396946564886
1749735952.0396764,2025-06-12 20:45:52.039,28.53,0.28490999755859375,5.044582897949218,-0.5482721801757812,121.51908396946565,-0.9618320610687023,-6.0534351145038165
1749735952.0493298,2025-06-12 20:45:52.049,28.53,-1.0606313354492187,3.7397429931640622,16.18959162597656,116.25190839694656,39.86259541984733,-2.450381679389313
1749735952.059027,2025-06-12 20:45:52.059,28.435882352941178,0.852335791015625,2.2673089721679687,8.748412866210938,108.0,-35.458015267175576,-1.6717557251908397
1749735952.0693135,2025-06-12 20:45:52.069,28.388823529411766,2.099714855957031,-5.4707507934570305,4.256890551757812,119.41221374045801,-87.06106870229007,0.732824427480916
1749735952.0789933,2025-06-12 20:45:52.078,28.388823529411766,-14.38436357421875,-0.086191259765625,-7.407659936523437,117.77862595419847,-8.297709923664122,0.8091603053435115
1749735952.088682,2025-06-12 20:45:52.088,28.388823529411766,-2.5905261962890624,2.77727392578125,7.321468676757812,106.41984732824427,61.3587786259542,3.381679389312977
1749735952.0983233,2025-06-12 20:45:52.098,28.53,4.005499377441406,-0.028730419921875,6.809109521484374,120.52671755725191,14.732824427480915,-3.3969465648854964
1749735952.1079981,2025-06-12 20:45:52.107,28.435882352941178,4.074931225585937,-6.086060620117187,10.793061083984375,141.61832061068702,9.145038167938932,-10.473282442748092
1749735952.1176794,2025-06-12 20:45:52.117,28.53,4.127603662109375,-0.19632453613281248,6.6510922119140625,125.86259541984732,55.20610687022901,-0.9923664122137404
1749735952.1273577,2025-06-12 20:45:52.127,28.341764705882355,-15.969325073242187,3.0454245117187497,-8.034940771484374,93.65648854961832,-45.61068702290076,6.534351145038168
1749735952.1370294,2025-06-12 20:45:52.137,28.53,-5.702988354492187,3.8283284545898435,7.074865905761718,99.38167938931298,-106.8854961832061,-6.6183206106870225
1749735952.1466908,2025-06-12 20:45:52.146,28.48294117647059,0.00718260498046875,-0.17956512451171874,19.56062756347656,100.5114503816794,31.419847328244273,8.801526717557252
1749735952.1563954,2025-06-12 20:45:52.156,28.435882352941178,14.947000964355468,1.3718775512695311,14.666879370117186,121.54198473282443,26.633587786259543,6.030534351145038
1749735952.1660583,2025-06-12 20:45:52.166,28.53,-5.65031591796875,0.3806780639648437,3.4739866088867184,117.69465648854961,-20.328244274809162,-0.3435114503816794
1749735952.176255,2025-06-12 20:45:52.176,28.48294117647059,0.4860229370117187,-4.256890551757812,11.832144604492187,90.62595419847328,-47.85496183206107,-3.1068702290076335
1749735952.1864517,2025-06-12 20:45:52.186,28.388823529411766,1.6400281372070311,3.4356793823242184,13.192051147460937,136.89312977099237,-47.48854961832061,4.603053435114504
1749735952.1966004,2025-06-12 20:45:52.196,28.435882352941178,-2.013523596191406,4.927267016601562,13.069946862792968,129.0916030534351,4.557251908396947,0.7862595419847328
1749735952.2061903,2025-06-12 20:45:52.206,28.48294117647059,-3.450044592285156,0.08858546142578125,2.003946789550781,106.63358778625954,23.259541984732824,-2.3587786259541983
1749735952.2159417,2025-06-12 20:45:52.215,28.435882352941178,-2.528276953125,-7.824251025390624,16.8168724609375,122.12977099236642,11.007633587786259,-7.572519083969466
1749735952.2254841,2025-06-12 20:45:52.225,28.48294117647059,1.3958195678710936,2.099714855957031,14.772224243164061,116.74045801526718,-28.977099236641223,-0.183206106870229
1749735952.235411,2025-06-12 20:45:52.235,28.53,-2.8514941772460936,2.5617957763671875,5.236119030761718,102.20610687022901,-48.30534351145038,-1.3282442748091603
1749735952.2458842,2025-06-12 20:45:52.245,28.48294117647059,-10.819397302246093,3.258508459472656,-1.7836802368164062,113.07633587786259,-83.76335877862596,-4.022900763358779
1749735952.2556734,2025-06-12 20:45:52.255,28.435882352941178,-15.006856005859374,-6.849810949707031,16.18480322265625,118.89312977099236,-36.61068702290076,-11.198473282442748
1749735952.2654507,2025-06-12 20:45:52.265,28.48294117647059,-2.300827795410156,-2.8275521606445313,19.335572607421874,107.21374045801527,14.404580152671755,-0.2595419847328244
1749735952.27515,2025-06-12 20:45:52.275,28.48294117647059,4.244919543457031,-0.033518823242187495,13.79000301208496,96.34351145038168,12.083969465648854,14.488549618320612
1749735952.284773,2025-06-12 20:45:52.284,28.53,-0.8116343627929687,-6.629544396972656,-1.7190367919921874,117.26717557251908,15.007633587786259,-3.969465648854962
1749735952.2962072,2025-06-12 20:45:52.296,28.53,-2.118868469238281,-0.29927520751953124,14.896722729492186,110.4885496183206,-2.7022900763358777,-7.877862595419847
1749735952.3058677,2025-06-12 20:45:52.305,28.435882352941178,12.895170141601561,-1.139639990234375,13.036428039550781,127.87022900763358,15.213740458015268,-5.679389312977099
1749735952.31548,2025-06-12 20:45:52.315,28.48294117647059,-5.987898352050781,2.185906115722656,10.702081420898438,126.43511450381679,-9.16793893129771,-7.221374045801527
1749735952.3251262,2025-06-12 20:45:52.325,28.48294117647059,-8.578424548339843,2.39420166015625,-5.667075329589843,119.06870229007633,-24.717557251908396,-5.824427480916031
1749735952.3347642,2025-06-12 20:45:52.334,28.48294117647059,-4.333505004882812,-0.7015010864257812,17.408240270996092,110.5114503816794,-33.57251908396947,-10.458015267175572
1749735952.3445363,2025-06-12 20:45:52.344,28.435882352941178,3.7229835815429686,1.6903063720703124,13.560758203125,128.6259541984733,-7.9465648854961835,-11.977099236641221
1749735952.354239,2025-06-12 20:45:52.354,28.577058823529413,-7.524975817871093,1.4149731811523436,4.134786267089844,110.57251908396947,42.595419847328245,0.08396946564885496
1749735952.3638787,2025-06-12 20:45:52.363,28.48294117647059,2.9544448486328125,-3.4332851806640625,5.722141967773437,118.8473282442748,48.786259541984734,-9.50381679389313
1749735952.3743503,2025-06-12 20:45:52.374,28.48294117647059,2.384624853515625,-1.5610194824218748,9.89523546142578,119.19847328244275,14.954198473282442,-3.984732824427481
1749735952.3850183,2025-06-12 20:45:52.385,28.53,4.735730883789063,-0.7709329345703124,16.68279716796875,119.67175572519083,24.778625954198475,8.16793893129771
1749735952.3986278,2025-06-12 20:45:52.398,28.53,3.4859576171874997,2.741360900878906,4.046200805664062,120.30534351145039,-10.748091603053435,-2.3587786259541983
1749735952.4123433,2025-06-12 20:45:52.412,28.388823529411766,-2.27927998046875,0.7398083129882812,14.640543151855468,110.10687022900764,-26.51145038167939,-7.404580152671755
1749735952.4219704,2025-06-12 20:45:52.421,28.435882352941178,0.49799394531249996,1.8650830932617186,9.885658654785155,119.6793893129771,-37.50381679389313,2.618320610687023
1749735952.4315968,2025-06-12 20:45:52.431,28.53,4.929661218261718,-1.7238251953125,7.017405065917968,108.2824427480916,-4.916030534351145,0.2900763358778626
1749735952.4412181,2025-06-12 20:45:52.441,28.53,1.707065783691406,-2.568978381347656,4.498704919433593,117.01526717557252,-18.450381679389313,-4.00763358778626
1749735952.450844,2025-06-12 20:45:52.450,28.48294117647059,-3.8235400512695312,-0.39983167724609375,8.700528833007812,117.73282442748092,-23.572519083969464,-3.9618320610687023
1749735952.4604645,2025-06-12 20:45:52.460,28.48294117647059,-4.934449621582031,0.7254431030273437,12.071564770507813,114.07633587786259,33.62595419847328,-2.435114503816794
1749735952.4700682,2025-06-12 20:45:52.470,28.53,8.40125362548828,0.08858546142578125,7.371746911621093,115.13740458015268,25.885496183206108,-2.900763358778626
1749735952.479684,2025-06-12 20:45:52.479,28.53,2.980781066894531,0.7398083129882812,4.912901806640625,117.29007633587786,-22.297709923664122,-1.3053435114503817
1749735952.489299,2025-06-12 20:45:52.489,28.53,4.331110803222656,-1.0271125122070313,9.239224206542968,110.34351145038168,-45.38931297709924,-3.0763358778625953
1749735952.4989228,2025-06-12 20:45:52.498,28.53,0.8714894042968749,2.2577321655273437,15.1313544921875,129.64885496183206,-25.541984732824428,1.9083969465648856
1749735952.5085425,2025-06-12 20:45:52.508,28.577058823529413,1.4317325927734375,4.357447021484375,4.089296435546875,104.21374045801527,-4.916030534351145,-0.12213740458015267
1749735952.5181644,2025-06-12 20:45:52.518,28.48294117647059,-3.246537451171875,3.0885201416015624,4.7955859252929685,111.6030534351145,-7.534351145038168,-1.1603053435114503
1749735952.527782,2025-06-12 20:45:52.527,28.48294117647059,0.13168109130859373,-1.4891934326171874,5.908889697265625,117.6412213740458,6.778625954198473,-6.1603053435114505
1749735952.5374117,2025-06-12 20:45:52.537,28.48294117647059,4.218583325195312,-3.31357509765625,19.232621936035155,120.18320610687023,16.916030534351144,-0.8396946564885496
1749735952.5470214,2025-06-12 20:45:52.547,28.435882352941178,12.404358801269531,5.363011718749999,7.644685900878906,124.07633587786259,-9.16030534351145,-12.694656488549619
1749735952.5566223,2025-06-12 20:45:52.556,28.48294117647059,-0.9983820922851562,2.427720483398437,0.7613561279296874,123.35114503816794,-34.961832061068705,-10.396946564885496
1749735952.5662396,2025-06-12 20:45:52.566,28.48294117647059,-0.8690952026367187,-0.4429273071289062,7.184999182128906,109.19083969465649,4.67175572519084,-9.007633587786259
1749735952.575865,2025-06-12 20:45:52.575,28.435882352941178,0.9121908325195311,-3.2441432495117186,14.85602130126953,127.0381679389313,31.633587786259543,4.091603053435114
1749735952.5854883,2025-06-12 20:45:52.585,28.577058823529413,6.0525417968749995,-0.2346317626953125,11.494562170410155,130.3587786259542,75.56488549618321,2.045801526717557
1749735952.5951211,2025-06-12 20:45:52.595,28.48294117647059,-0.45010991210937495,3.6487633300781246,7.544129431152343,106.80152671755725,30.114503816793892,1.366412213740458
1749735952.6047823,2025-06-12 20:45:52.604,28.53,4.110844250488281,-1.2641384765625,12.528857287597656,108.19847328244275,0.6870229007633588,-2.9083969465648853
1749735952.614938,2025-06-12 20:45:52.614,28.48294117647059,8.475473876953124,-2.9927520751953125,18.069039929199217,121.83206106870229,-30.702290076335878,5.763358778625954
1749735952.6252308,2025-06-12 20:45:52.625,28.388823529411766,1.1516109985351561,2.6599580444335937,5.039794494628906,106.81679389312977,-8.320610687022901,0.3816793893129771
1749735952.634872,2025-06-12 20:45:52.634,28.48294117647059,-9.991003527832031,3.775656018066406,0.41898529052734373,122.93129770992367,-17.34351145038168,-0.48091603053435117
1749735952.6448562,2025-06-12 20:45:52.644,28.53,-0.7805097412109374,-4.431667272949219,16.646884143066405,123.17557251908397,25.84732824427481,-9.229007633587786
1749735952.6567266,2025-06-12 20:45:52.656,28.53,-7.307103466796875,1.9416975463867185,1.4891934326171874,117.32824427480917,-11.931297709923664,-17.083969465648856
1749735952.6666355,2025-06-12 20:45:52.666,28.435882352941178,-1.35990654296875,5.389347937011719,9.969455712890625,106.20610687022901,61.32824427480916,-0.8320610687022901
1749735952.6762364,2025-06-12 20:45:52.676,28.48294117647059,6.818686328125,-1.687912170410156,6.72291826171875,109.45038167938931,-17.72519083969466,-2.7404580152671754
1749735952.6858733,2025-06-12 20:45:52.685,28.48294117647059,-12.531251489257812,-7.979874133300781,5.307945080566406,127.80152671755725,-31.755725190839694,-4.572519083969466
1749735952.6955557,2025-06-12 20:45:52.695,28.435882352941178,-4.819527941894531,3.9312791259765625,4.04141240234375,132.77862595419847,65.35114503816794,-6.099236641221374
1749735952.7051933,2025-06-12 20:45:52.705,28.435882352941178,4.398148449707031,1.5179238525390624,14.858415502929686,110.50381679389314,58.55725190839695,-8.648854961832061
1749735952.714841,2025-06-12 20:45:52.714,28.577058823529413,4.709394665527343,1.7549498168945312,4.599261389160156,120.27480916030534,11.206106870229007,-4.6183206106870225
1749735952.7245076,2025-06-12 20:45:52.724,28.53,-7.117961535644531,-1.8531120849609375,10.261548315429687,120.70229007633588,-56.51908396946565,-5.8396946564885495
1749735952.7341554,2025-06-12 20:45:52.734,28.53,-6.301538769531249,3.6750995483398436,8.710105639648438,121.42748091603053,-5.8320610687022905,-17.404580152671755
1749735952.7438073,2025-06-12 20:45:52.743,28.48294117647059,-6.332663391113281,0.86191259765625,8.961496813964843,113.20610687022901,65.2824427480916,-0.5801526717557252
1749735952.753443,2025-06-12 20:45:52.753,28.435882352941178,-0.16519991455078123,-1.2856862915039062,5.370194323730469,116.41984732824427,6.916030534351145,-7.190839694656488
1749735952.7639062,2025-06-12 20:45:52.763,28.53,2.93050283203125,-3.0885201416015624,4.446032482910156,128.33587786259542,8.946564885496183,-8.427480916030534
1749735952.7735481,2025-06-12 20:45:52.773,28.577058823529413,5.65031591796875,0.40462008056640625,12.504915270996094,120.25954198473282,-6.00763358778626,-9.412213740458014
1749735952.7832575,2025-06-12 20:45:52.783,28.577058823529413,-13.311761230468749,-3.4835634155273434,2.2385785522460937,107.62595419847328,10.32824427480916,0.7022900763358778
1749735952.7928858,2025-06-12 20:45:52.792,28.48294117647059,-5.942408520507812,-2.8514941772460936,-1.1180921752929687,113.80916030534351,3.3206106870229006,-6.32824427480916
1749735952.8025193,2025-06-12 20:45:52.802,28.577058823529413,0.1149216796875,-0.8403647827148437,14.939818359375,118.8473282442748,7.870229007633588,-8.534351145038167
1749735952.8121395,2025-06-12 20:45:52.812,28.53,6.074089611816406,1.8842367065429686,8.410830432128906,116.02290076335878,-55.12977099236641,-3.4580152671755724
1749735952.821767,2025-06-12 20:45:52.821,28.53,-5.051765502929687,5.4515971801757805,4.024652990722656,120.30534351145039,-13.748091603053435,-5.0458015267175576
1749735952.8314636,2025-06-12 20:45:52.831,28.53,-4.218583325195312,0.9313444458007812,5.066130712890625,115.76335877862596,44.916030534351144,-7.106870229007634
1749735952.8410919,2025-06-12 20:45:52.841,28.435882352941178,4.220977526855468,-0.37828386230468747,15.79454835205078,110.80916030534351,8.511450381679388,-5.083969465648855
1749735952.850729,2025-06-12 20:45:52.850,28.53,6.845022546386718,0.7565677246093749,9.871293444824218,117.58015267175573,-33.221374045801525,1.9236641221374047
1749735952.8603601,2025-06-12 20:45:52.860,28.577058823529413,-2.987963671875,2.2026655273437497,10.110713610839843,118.19083969465649,-4.427480916030534,-2.763358778625954
1749735952.8705559,2025-06-12 20:45:52.870,28.388823529411766,-6.619967590332031,2.308010400390625,-2.1835119140624997,111.47328244274809,-33.70992366412214,-3.4656488549618323
1749735952.8802276,2025-06-12 20:45:52.880,28.53,-3.1292215698242187,-0.181959326171875,13.41950030517578,115.0,-33.61832061068702,-8.274809160305344
1749735952.889863,2025-06-12 20:45:52.889,28.435882352941178,2.8107927490234372,-1.455674609375,14.987702392578123,112.9618320610687,15.358778625954198,-5.183206106870229
1749735952.8994968,2025-06-12 20:45:52.899,28.53,4.110844250488281,3.3303345092773435,12.433089221191405,117.85496183206106,29.83206106870229,-0.2366412213740458
1749735952.9091291,2025-06-12 20:45:52.909,28.48294117647059,-2.8036101440429686,1.13006318359375,4.61602080078125,114.76335877862596,4.435114503816794,-4.022900763358779
1749735952.9187677,2025-06-12 20:45:52.918,28.48294117647059,-2.442085693359375,-2.9185318237304685,9.129090930175781,113.43511450381679,-42.2442748091603,-4.793893129770993
1749735952.9283614,2025-06-12 20:45:52.928,28.53,-3.4069489624023435,3.086125939941406,11.051634863281249,121.85496183206106,-9.564885496183207,-0.3435114503816794
1749735952.9379976,2025-06-12 20:45:52.937,28.435882352941178,1.678335363769531,3.0142998901367184,11.4538607421875,105.19847328244275,19.061068702290076,-13.236641221374045
1749735952.9475598,2025-06-12 20:45:52.947,28.48294117647059,-1.6208745239257811,0.22505495605468748,4.879382983398437,127.06870229007633,-2.099236641221374,4.190839694656488
1749735952.9572313,2025-06-12 20:45:52.957,28.435882352941178,0.4572925170898437,-5.0948611328124995,13.127407702636718,110.78625954198473,-43.534351145038165,-4.33587786259542
1749735952.966865,2025-06-12 20:45:52.966,28.53,-6.828263134765624,2.3965958618164063,8.540117321777343,127.08396946564885,-16.595419847328245,-0.1450381679389313
1749735952.9765015,2025-06-12 20:45:52.976,28.48294117647059,6.011840368652344,4.848258361816406,6.0525417968749995,116.41221374045801,16.458015267175572,-1.3129770992366412
1749735952.9866219,2025-06-12 20:45:52.986,28.53,-2.96881005859375,-1.2425906616210938,2.01112939453125,117.99236641221374,-11.13740458015267,-4.282442748091603
1749735952.9962826,2025-06-12 20:45:52.996,28.388823529411766,0.4333505004882812,-0.33518823242187495,7.694964135742187,112.14503816793894,-60.44274809160305,-2.946564885496183
1749735953.0059447,2025-06-12 20:45:53.005,28.48294117647059,-5.746083984375,1.3670891479492187,7.575254052734374,127.48091603053435,-27.053435114503817,-7.717557251908397
1749735953.0156994,2025-06-12 20:45:53.015,28.53,1.2689268798828124,2.8275521606445313,10.168174450683592,111.86259541984732,11.129770992366412,-4.015267175572519
1749735953.0253625,2025-06-12 20:45:53.025,28.53,-2.6599580444335937,2.166752502441406,1.4724340209960938,101.77099236641222,9.725190839694656,-2.2977099236641223
1749735953.0349934,2025-06-12 20:45:53.034,28.624117647058824,3.8187516479492185,-3.9815573608398434,12.665326782226561,118.46564885496183,-38.44274809160305,-5.1603053435114505
1749735953.044653,2025-06-12 20:45:53.044,28.53,-1.6639701538085936,-0.1005564697265625,10.448296044921875,143.45038167938932,-30.80916030534351,0.2595419847328244
1749735953.0542812,2025-06-12 20:45:53.054,28.53,-2.3535002319335936,2.916137622070312,12.23915888671875,122.52671755725191,45.091603053435115,-5.312977099236641
1749735953.063916,2025-06-12 20:45:53.063,28.577058823529413,4.642357019042969,4.503493322753906,3.392583752441406,116.8854961832061,-22.206106870229007,1.381679389312977
1749735953.0735412,2025-06-12 20:45:53.073,28.48294117647059,-0.06464344482421874,-4.88417138671875,6.205770703124999,109.27480916030534,-28.519083969465647,-3.7099236641221376
1749735953.083175,2025-06-12 20:45:53.083,28.53,-1.0558429321289062,0.6751648681640625,10.91037696533203,119.49618320610686,-41.213740458015266,-8.17557251908397
1749735953.0936258,2025-06-12 20:45:53.093,28.53,1.4939818359375,2.6336218261718747,7.0102224609374995,113.77862595419847,8.885496183206106,-8.290076335877863
1749735953.1033838,2025-06-12 20:45:53.103,28.53,-6.404489440917969,2.6575638427734374,-0.016759411621093748,116.34351145038168,15.770992366412214,-2.267175572519084
1749735953.113027,2025-06-12 20:45:53.113,28.53,6.60799658203125,-0.8212111694335937,18.55266866455078,99.29007633587786,-34.56488549618321,-2.7404580152671754
1749735953.122667,2025-06-12 20:45:53.122,28.53,5.066130712890625,1.70467158203125,17.76018791503906,112.2442748091603,-18.977099236641223,0.3511450381679389
1749735953.1323462,2025-06-12 20:45:53.132,28.53,10.08677159423828,5.851428857421874,11.03248125,124.42748091603053,-32.37404580152672,1.0
1749735953.1419852,2025-06-12 20:45:53.141,28.53,0.5626373901367188,3.871424084472656,0.33039982910156246,116.25190839694656,-9.740458015267176,1.4351145038167938
1749735953.1516113,2025-06-12 20:45:53.151,28.53,-4.886565588378906,-7.752424975585937,6.998251452636718,113.20610687022901,-13.007633587786259,-4.519083969465649
1749735953.1612754,2025-06-12 20:45:53.161,28.624117647058824,-5.839457849121094,-0.17238251953125,7.094019519042968,132.33587786259542,-31.564885496183205,3.946564885496183
1749735953.1709123,2025-06-12 20:45:53.170,28.53,-1.0917559570312498,2.0542250244140625,7.625532287597656,98.12213740458016,-9.885496183206106,-6.091603053435114
1749735953.1806166,2025-06-12 20:45:53.180,28.53,0.5363011718749999,4.304774584960938,1.66636435546875,111.58778625954199,-15.610687022900763,-0.6259541984732825
1749735953.190291,2025-06-12 20:45:53.190,28.53,-8.74601866455078,-9.064447485351561,8.295908752441406,129.63358778625954,-27.671755725190838,-3.282442748091603
1749735953.2007656,2025-06-12 20:45:53.200,28.53,-4.7189714721679685,-1.3455413330078123,4.65432802734375,127.7175572519084,-10.885496183206106,0.7633587786259542
1749735953.2109387,2025-06-12 20:45:53.210,28.435882352941178,-3.5314474487304683,2.272097375488281,4.082113830566406,104.21374045801527,-8.916030534351146,-5.801526717557252
1749735953.2207377,2025-06-12 20:45:53.220,28.48294117647059,1.2569558715820313,0.11731588134765625,11.513715783691406,103.25190839694656,-9.213740458015268,-1.5954198473282444
1749735953.2303934,2025-06-12 20:45:53.230,28.53,2.0829554443359375,-3.4644098022460934,13.472172741699218,125.23664122137404,14.877862595419847,7.557251908396947
1749735953.240095,2025-06-12 20:45:53.240,28.53,7.615955480957031,0.8020575561523438,9.030928662109375,116.76335877862596,23.396946564885496,0.3053435114503817
1749735953.2499282,2025-06-12 20:45:53.249,28.624117647058824,-9.962273107910155,-0.6200982299804687,-3.7708676147460936,114.09160305343511,-2.2442748091603053,1.8244274809160306
1749735953.259573,2025-06-12 20:45:53.259,28.53,-4.426878869628906,0.4477157104492187,1.618480322265625,116.90076335877863,19.076335877862597,-11.98473282442748
1749735953.269306,2025-06-12 20:45:53.269,28.53,-0.9409212524414062,-6.150704064941406,14.923058947753905,136.13740458015266,56.19847328244275,-1.2595419847328244
1749735953.2789524,2025-06-12 20:45:53.278,28.53,8.954314208984375,0.9983820922851562,3.883395092773437,127.00763358778626,27.6793893129771,-5.633587786259542
1749735953.2885253,2025-06-12 20:45:53.288,28.577058823529413,-2.6886884643554687,8.104372619628906,-4.493916516113281,107.45801526717557,58.49618320610687,-3.0381679389312977
1749735953.2998035,2025-06-12 20:45:53.299,28.53,8.257601525878906,-2.1739351074218747,8.513781103515624,105.56488549618321,-52.62595419847328,-3.045801526717557
1749735953.3098557,2025-06-12 20:45:53.309,28.53,8.796296899414061,2.7461493041992187,18.334796313476563,121.66412213740458,36.778625954198475,3.6106870229007635
1749735953.3209004,2025-06-12 20:45:53.320,28.53,9.394847314453125,0.4477157104492187,16.03636271972656,107.62595419847328,60.38167938931298,-5.900763358778626
1749735953.3306267,2025-06-12 20:45:53.330,28.53,-4.685452648925781,-2.446874096679687,4.534617944335937,112.65648854961832,12.534351145038167,2.0229007633587788
1749735953.3405573,2025-06-12 20:45:53.340,28.53,-0.35194764404296874,0.44053310546874996,13.709198706054687,109.07633587786259,-4.679389312977099,-0.7633587786259542
1749735953.350757,2025-06-12 20:45:53.350,28.53,10.579977136230468,-3.7995980346679685,16.08843660583496,130.9083969465649,-0.21374045801526717,4.916030534351145
1749735953.3606787,2025-06-12 20:45:53.360,28.48294117647059,13.838485595703125,7.943961108398437,7.654262707519531,118.2442748091603,-45.61068702290076,-5.022900763358779
1749735953.3704112,2025-06-12 20:45:53.370,28.48294117647059,-8.920795385742187,1.0295067138671874,-0.06703764648437499,106.81679389312977,-29.03053435114504,3.3053435114503817
1749735953.3804855,2025-06-12 20:45:53.380,28.53,-7.704540942382812,-1.867477294921875,11.654973681640625,111.25954198473282,23.16030534351145,-7.297709923664122
1749735953.3902788,2025-06-12 20:45:53.390,28.48294117647059,13.275848205566405,3.0526071166992184,19.603723193359375,128.94656488549617,30.061068702290076,-2.801526717557252
1749735953.4000053,2025-06-12 20:45:53.400,28.53,0.6584054565429687,0.49320554199218747,10.352527978515624,120.07633587786259,-17.587786259541986,-4.206106870229007
1749735953.4096189,2025-06-12 20:45:53.409,28.435882352941178,-6.232106921386718,3.337517114257812,-2.8036101440429686,116.55725190839695,-45.80916030534351,-5.404580152671755
1749735953.4194527,2025-06-12 20:45:53.419,28.53,-5.185840795898438,0.6751648681640625,9.811438403320311,101.45038167938931,-0.366412213740458,-7.770992366412214
1749735953.4311,2025-06-12 20:45:53.431,28.48294117647059,6.9910688476562495,2.43250888671875,13.192051147460937,130.72519083969465,25.076335877862597,-4.687022900763359
1749735953.4425094,2025-06-12 20:45:53.442,28.435882352941178,9.09796630859375,13.500903161621093,13.833697192382811,130.1145038167939,74.90839694656489,0.6641221374045801
1749735953.4526908,2025-06-12 20:45:53.452,28.48294117647059,1.8315642700195311,-0.9528922607421875,-3.1364041748046874,117.41984732824427,-21.519083969465647,-4.916030534351145
1749735953.4623003,2025-06-12 20:45:53.462,28.53,-8.12113203125,-1.6927005737304686,13.486537951660155,116.7557251908397,22.99236641221374,-11.022900763358779
1749735953.4719813,2025-06-12 20:45:53.471,28.53,1.5562310791015623,0.5578489868164063,10.711658227539061,126.08396946564885,10.541984732824428,-1.4427480916030535
1749735953.4816227,2025-06-12 20:45:53.481,28.53,-5.2624552490234375,2.35589443359375,3.308786694335937,128.13740458015266,25.72519083969466,-0.42748091603053434
1749735953.4913979,2025-06-12 20:45:53.491,28.53,-12.08592998046875,-0.277727392578125,-3.84987626953125,112.72519083969466,-12.618320610687023,-3.816793893129771
1749735953.5010464,2025-06-12 20:45:53.501,28.53,2.3343466186523436,-2.2194249389648437,14.279018701171875,100.06106870229007,15.931297709923664,0.9465648854961832
1749735953.5106356,2025-06-12 20:45:53.510,28.53,16.211139440917968,-0.8355763793945312,18.811242443847654,138.9083969465649,-58.9236641221374,6.1603053435114505
1749735953.520275,2025-06-12 20:45:53.520,28.53,-2.379836450195312,0.08858546142578125,-1.5777788940429687,118.95419847328245,-7.129770992366412,-9.694656488549619
1749735953.529896,2025-06-12 20:45:53.529,28.624117647058824,7.934384301757812,2.4109610717773435,11.384428894042967,115.34351145038168,22.81679389312977,-0.5419847328244275
1749735953.5398574,2025-06-12 20:45:53.539,28.48294117647059,7.587225061035156,-3.1076737548828124,19.61270144958496,103.3587786259542,60.83969465648855,-10.221374045801527
1749735953.5499024,2025-06-12 20:45:53.549,28.53,-3.986345764160156,0.21308394775390624,11.298237634277344,117.90076335877863,-48.19083969465649,5.015267175572519
1749735953.5595362,2025-06-12 20:45:53.559,28.577058823529413,1.024718310546875,5.125985754394531,1.5131354492187499,124.37404580152672,-36.57251908396947,-4.076335877862595
1749735953.569151,2025-06-12 20:45:53.569,28.48294117647059,-10.826579907226561,4.158728283691406,1.3455413330078123,104.54961832061069,12.549618320610687,-0.3511450381679389
1749735953.5787919,2025-06-12 20:45:53.578,28.48294117647059,-1.158793603515625,-1.0007762939453124,17.642872033691404,111.43511450381679,-39.51908396946565,5.282442748091603
1749735953.588413,2025-06-12 20:45:53.588,28.577058823529413,3.488351818847656,2.0183119995117185,16.486472631835937,121.22137404580153,-38.847328244274806,3.6564885496183206
1749735953.5980954,2025-06-12 20:45:53.598,28.53,-2.4492682983398435,3.8666356811523435,13.95580147705078,103.23664122137404,-60.717557251908396,13.221374045801527
1749735953.6077762,2025-06-12 20:45:53.607,28.53,-4.905719201660156,3.6200329101562496,-1.0606313354492187,115.34351145038168,-26.00763358778626,-2.9770992366412212
1749735953.6174455,2025-06-12 20:45:53.617,28.53,-11.85608662109375,-6.739677673339843,13.148955517578123,109.94656488549619,-15.229007633587786,-6.030534351145038
1749735953.6270945,2025-06-12 20:45:53.627,28.577058823529413,-1.9297265380859374,2.3367408203125,10.376469995117187,123.77862595419847,46.18320610687023,-5.106870229007634
1749735953.6367307,2025-06-12 20:45:53.636,28.53,1.4149731811523436,0.7254431030273437,15.753846923828124,118.82442748091603,36.954198473282446,-4.038167938931298
1749735953.647044,2025-06-12 20:45:53.647,28.48294117647059,-3.4093431640625,-1.5729904907226562,-0.22505495605468748,112.93893129770993,15.358778625954198,-3.931297709923664
1749735953.657771,2025-06-12 20:45:53.657,28.48294117647059,-0.8475473876953125,-5.846640454101562,19.61270144958496,99.29770992366412,-56.70992366412214,3.0076335877862594
1749735953.6677525,2025-06-12 20:45:53.667,28.48294117647059,-3.071760729980469,-2.528276953125,16.82884346923828,127.85496183206106,-16.83969465648855,13.564885496183207
1749735953.6773896,2025-06-12 20:45:53.677,28.435882352941178,-0.8595183959960937,-1.455674609375,14.580688110351561,84.7175572519084,31.748091603053435,24.47328244274809
1749735953.6870747,2025-06-12 20:45:53.687,28.48294117647059,-11.724405529785155,-3.229778039550781,1.4628572143554686,145.41221374045801,-9.49618320610687,-12.381679389312977
1749735953.6967082,2025-06-12 20:45:53.696,28.53,-3.749319799804687,1.7381904052734374,9.866505041503906,109.34351145038168,71.29007633587786,-19.19083969465649
1749735953.7063386,2025-06-12 20:45:53.706,28.53,8.21690009765625,7.970297326660156,19.61270144958496,123.04580152671755,-13.32824427480916,0.5190839694656488
1749735953.7159722,2025-06-12 20:45:53.715,28.53,-5.336675500488281,1.4867992309570313,4.965574243164062,120.19083969465649,2.8931297709923665,-12.465648854961833
1749735953.7256012,2025-06-12 20:45:53.725,28.671176470588236,-9.746794958496093,0.2609679809570312,-1.2880804931640624,122.3969465648855,-50.0,0.6946564885496184
1749735953.735325,2025-06-12 20:45:53.735,28.53,-8.054094384765625,-1.2904746948242187,11.781866369628906,114.78625954198473,-13.053435114503817,-2.5572519083969465
1749735953.7449586,2025-06-12 20:45:53.744,28.53,7.225700610351562,3.284844677734375,9.734823950195311,119.6030534351145,31.480916030534353,-9.198473282442748
1749735953.7553518,2025-06-12 20:45:53.755,28.53,-3.9240965209960934,3.2609026611328122,11.997344519042969,100.40458015267176,6.778625954198473,7.656488549618321
1749735953.7649703,2025-06-12 20:45:53.764,28.48294117647059,-0.040701428222656245,3.2441432495117186,1.120486376953125,108.43511450381679,20.81679389312977,-6.175572519083969
1749735953.7746289,2025-06-12 20:45:53.774,28.577058823529413,-4.505887524414062,-8.79150849609375,14.573505505371093,138.55725190839695,52.81679389312977,-5.6106870229007635
1749735953.784272,2025-06-12 20:45:53.784,28.388823529411766,8.283937744140625,1.608903515625,11.487379565429686,119.25954198473282,30.557251908396946,3.2061068702290076
1749735953.7939165,2025-06-12 20:45:53.793,28.48294117647059,-8.403647827148436,-0.7517793212890624,-2.7581203125,102.53435114503817,5.412213740458015,3.50381679389313
1749735953.8035553,2025-06-12 20:45:53.803,28.577058823529413,-14.121001391601562,-3.81156904296875,-1.7381904052734374,110.5114503816794,3.8625954198473282,-3.648854961832061
1749735953.8131886,2025-06-12 20:45:53.813,28.48294117647059,-0.27293898925781246,-4.376600634765625,17.98524287109375,99.01526717557252,-2.8625954198473282,-3.4427480916030535
1749735953.8228264,2025-06-12 20:45:53.822,28.48294117647059,-0.16280571289062498,-3.5960908935546874,16.79053624267578,123.41984732824427,9.801526717557252,1.450381679389313
1749735953.8324783,2025-06-12 20:45:53.832,28.53,5.523423229980469,-4.386177441406249,16.041151123046873,120.34351145038168,70.94656488549619,12.389312977099237
1749735953.8420935,2025-06-12 20:45:53.842,28.624117647058824,-11.128249316406249,-3.5817256835937497,-1.93451494140625,109.58778625954199,-22.358778625954198,0.4351145038167939
1749735953.8517532,2025-06-12 20:45:53.851,28.577058823529413,-0.09576806640624999,0.5434837768554687,2.8754361938476563,111.66412213740458,19.625954198473284,-6.1679389312977095
1749735953.8620713,2025-06-12 20:45:53.862,28.577058823529413,2.530671154785156,-0.23223756103515625,19.591752185058592,131.206106870229,15.038167938931299,-2.2748091603053435
1749735953.8719022,2025-06-12 20:45:53.871,28.53,8.276755139160155,5.681440539550781,12.409147204589843,113.3969465648855,31.236641221374047,1.1374045801526718
1749735953.8815582,2025-06-12 20:45:53.881,28.577058823529413,0.7852981445312499,2.300827795410156,5.813121630859374,113.9618320610687,-13.48091603053435,-6.259541984732825
1749735953.8912866,2025-06-12 20:45:53.891,28.48294117647059,-4.290409374999999,-2.3918074584960936,8.422801440429687,115.63358778625954,-68.01526717557252,-10.763358778625955
1749735953.9009519,2025-06-12 20:45:53.900,28.48294117647059,-11.034875451660156,0.9265560424804687,11.504138977050781,121.54198473282443,1.9465648854961832,1.0687022900763359
1749735953.9105997,2025-06-12 20:45:53.910,28.53,-6.574477758789062,5.2456958374023435,12.53843409423828,94.87022900763358,42.61068702290076,4.847328244274809
1749735953.9202855,2025-06-12 20:45:53.920,28.624117647058824,12.67250938720703,2.607285607910156,5.906495495605468,120.33587786259542,111.07633587786259,-2.572519083969466
1749735953.9299216,2025-06-12 20:45:53.929,28.577058823529413,15.861585998535155,-4.422090466308593,17.92718348083496,122.81679389312977,29.17557251908397,-2.984732824427481
1749735953.9395545,2025-06-12 20:45:53.939,28.48294117647059,4.867411975097656,-5.051765502929687,4.010287780761718,118.56488549618321,-30.786259541984734,-2.2213740458015265
1749735953.9491765,2025-06-12 20:45:53.949,28.624117647058824,-8.67658681640625,-0.1771709228515625,3.1028853515624997,125.38167938931298,-15.412213740458014,-8.992366412213741
1749735953.9588768,2025-06-12 20:45:53.958,28.435882352941178,-7.038952880859375,4.388571643066406,-1.8435352783203125,112.54198473282443,-0.2748091603053435,-0.8854961832061069
1749735953.9685063,2025-06-12 20:45:53.968,28.48294117647059,2.77727392578125,-13.237540979003905,17.54231556396484,121.61068702290076,44.51145038167939,-2.0381679389312977
1749735953.978883,2025-06-12 20:45:53.978,28.53,8.588001354980468,-0.4860229370117187,13.259088793945311,122.91603053435115,34.9236641221374,-9.297709923664122
1749735953.98852,2025-06-12 20:45:53.988,28.48294117647059,-11.499350573730467,1.3718775512695311,1.3311761230468748,113.52671755725191,27.19083969465649,-11.0
1749735953.998152,2025-06-12 20:45:53.998,28.624117647058824,-0.7924807495117187,-1.3407529296874998,1.2641384765625,118.29007633587786,2.0839694656488548,-0.9541984732824428
1749735954.0077865,2025-06-12 20:45:54.007,28.718235294117648,-8.846575134277343,-5.906495495605468,6.622361791992187,121.16030534351145,-11.427480916030534,-12.351145038167939
1749735954.0174553,2025-06-12 20:45:54.017,28.577058823529413,-8.530540515136718,-4.967968444824218,7.764395983886718,112.50381679389314,20.30534351145038,-5.297709923664122
1749735954.027092,2025-06-12 20:45:54.027,28.53,-3.756502404785156,4.271255761718749,-7.053318090820312,123.3587786259542,31.893129770992367,-0.7557251908396947
1749735954.0367467,2025-06-12 20:45:54.036,28.53,-11.647791076660155,2.2026655273437497,-1.62805712890625,113.83206106870229,-2.0610687022900764,-0.3511450381679389
1749735954.0463908,2025-06-12 20:45:54.046,28.53,7.692569934082031,-2.061407629394531,19.61270144958496,111.22900763358778,-96.93129770992367,-2.0
1749735954.0560465,2025-06-12 20:45:54.056,28.53,-0.8355763793945312,-0.6631938598632812,9.868899243164062,117.6793893129771,-92.21374045801527,-7.351145038167939
1749735954.0657098,2025-06-12 20:45:54.065,28.53,-19.610905798339843,5.827486840820312,-13.57272921142578,98.1145038167939,-124.6793893129771,6.633587786259542
1749735954.0753448,2025-06-12 20:45:54.075,28.435882352941178,-18.38746875,-3.1651345947265623,6.256048937988281,113.89312977099236,85.70229007633588,-20.259541984732824
1749735954.085389,2025-06-12 20:45:54.085,28.53,2.152387292480469,-4.264073156738281,7.254431030273437,119.99236641221374,49.213740458015266,-8.587786259541986
1749735954.0950317,2025-06-12 20:45:54.095,28.577058823529413,8.916006982421875,3.3016040893554686,17.13530128173828,112.03053435114504,-3.9083969465648853,-17.12213740458015
1749735954.1046753,2025-06-12 20:45:54.104,28.577058823529413,8.547299926757812,-0.00239420166015625,15.758635327148436,115.93129770992367,40.32824427480916,1.099236641221374
1749735954.114347,2025-06-12 20:45:54.114,28.624117647058824,-2.5354595581054684,-0.3016694091796875,-4.747701892089843,110.90839694656489,-71.78625954198473,-7.66412213740458
1749735954.1240797,2025-06-12 20:45:54.124,28.624117647058824,-12.837709301757812,-0.9433154541015625,6.430825659179687,109.87786259541984,-60.55725190839695,-17.022900763358777
1749735954.133819,2025-06-12 20:45:54.133,28.624117647058824,-6.461950280761719,1.4963760375976562,7.764395983886718,125.59541984732824,16.389312977099237,-12.198473282442748
1749735954.1436021,2025-06-12 20:45:54.143,28.53,-0.9504980590820312,0.39743747558593745,4.42448466796875,91.16030534351145,21.763358778625953,10.0
1749735954.1537526,2025-06-12 20:45:54.153,28.577058823529413,-9.229647399902344,3.1364041748046874,2.013523596191406,118.22137404580153,-15.16793893129771,-4.076335877862595
1749735954.1637495,2025-06-12 20:45:54.163,28.671176470588236,-10.165780249023436,-8.353369592285155,6.150704064941406,126.73282442748092,-21.14503816793893,1.0305343511450382
1749735954.1734316,2025-06-12 20:45:54.173,28.624117647058824,-0.7613561279296874,0.7230489013671875,13.776236352539062,126.5114503816794,13.969465648854962,0.7251908396946565
1749735954.1830769,2025-06-12 20:45:54.183,28.577058823529413,-2.269703173828125,-0.9552864624023437,3.31357509765625,110.87786259541984,-1.3969465648854962,0.7251908396946565
1749735954.1926575,2025-06-12 20:45:54.192,28.53,-3.423708374023437,1.1755530151367186,3.0837317382812497,106.09160305343511,-11.679389312977099,-7.015267175572519
1749735954.203918,2025-06-12 20:45:54.203,28.577058823529413,-5.011064074707031,-5.444414575195312,16.517597253417968,126.03053435114504,-16.442748091603054,3.4580152671755724
1749735954.2136185,2025-06-12 20:45:54.213,28.53,-0.7015010864257812,-0.35194764404296874,5.080495922851562,125.43511450381679,50.42748091603053,9.244274809160306
1749735954.2243989,2025-06-12 20:45:54.224,28.624117647058824,12.497732666015624,1.7812860351562498,13.713987109375,115.13740458015268,58.12977099236641,-4.877862595419847
1749735954.234061,2025-06-12 20:45:54.234,28.577058823529413,4.862623571777344,2.1691467041015624,8.997409838867187,115.74809160305344,-42.847328244274806,1.3740458015267176
1749735954.2439501,2025-06-12 20:45:54.243,28.577058823529413,16.57266389160156,-6.210559106445312,13.491326354980467,115.46564885496183,-77.16793893129771,-7.67175572519084
1749735954.2536492,2025-06-12 20:45:54.253,28.53,-16.922217333984374,2.365471240234375,2.427720483398437,123.65648854961832,24.778625954198475,11.778625954198473
1749735954.2633717,2025-06-12 20:45:54.263,28.53,0.44532150878906246,2.750937707519531,9.6917283203125,108.51908396946565,68.70229007633588,-2.045801526717557
1749735954.2730427,2025-06-12 20:45:54.273,28.48294117647059,7.663839514160156,1.4413093994140624,8.56166513671875,107.65648854961832,11.610687022900763,-1.1755725190839694
1749735954.2827132,2025-06-12 20:45:54.282,28.53,-5.303156677246093,-6.586448767089843,4.848258361816406,125.74809160305344,-59.770992366412216,-4.145038167938932
1749735954.292395,2025-06-12 20:45:54.292,28.577058823529413,-7.161057165527343,2.152387292480469,-3.6343981201171873,134.31297709923663,-9.450381679389313,-21.236641221374047
1749735954.3021324,2025-06-12 20:45:54.302,28.53,-5.5832782714843745,8.264784130859374,14.025233325195313,99.3969465648855,10.465648854961833,1.0381679389312977
1749735954.3125114,2025-06-12 20:45:54.312,28.624117647058824,4.601655590820312,-3.383006945800781,8.374917407226562,108.20610687022901,-0.4198473282442748,-4.763358778625954
1749735954.3222067,2025-06-12 20:45:54.322,28.53,0.3447650390625,-4.656722229003906,14.992490795898437,131.8320610687023,10.511450381679388,-2.9618320610687023
1749735954.3318584,2025-06-12 20:45:54.331,28.53,1.6208745239257811,1.1013327636718748,8.377311608886718,119.61832061068702,68.83206106870229,12.641221374045802
1749735954.34152,2025-06-12 20:45:54.341,28.624117647058824,0.8930372192382812,-1.7836802368164062,5.9783215454101555,100.58015267175573,25.717557251908396,-2.068702290076336
1749735954.3515785,2025-06-12 20:45:54.351,28.577058823529413,3.1675287963867187,0.16041151123046873,15.722722302246092,104.80916030534351,-57.465648854961835,-5.412213740458015
1749735954.3615165,2025-06-12 20:45:54.361,28.53,2.3343466186523436,-3.289633081054687,11.860875024414062,128.12977099236642,-19.984732824427482,5.984732824427481
1749735954.3713076,2025-06-12 20:45:54.371,28.624117647058824,8.56166513671875,0.22266075439453123,11.97100830078125,124.70992366412214,61.33587786259542,0.21374045801526717
1749735954.3809829,2025-06-12 20:45:54.380,28.624117647058824,-2.5163059448242184,1.1180921752929687,0.737414111328125,103.78625954198473,5.404580152671755,0.7480916030534351
1749735954.3906667,2025-06-12 20:45:54.390,28.577058823529413,9.404424121093749,3.265691064453125,19.553444958496094,117.59541984732824,-5.229007633587786,-2.7480916030534353
1749735954.4022617,2025-06-12 20:45:54.402,28.577058823529413,0.7422025146484375,-0.277727392578125,4.295197778320312,121.29770992366412,23.206106870229007,-5.778625954198473
1749735954.414864,2025-06-12 20:45:54.414,28.624117647058824,-5.176263989257812,-1.3455413330078123,8.501810095214843,107.31297709923665,0.6106870229007634,-4.534351145038168
1749735954.429948,2025-06-12 20:45:54.429,28.435882352941178,1.3144167114257812,-0.21308394775390624,7.1395093505859375,109.77099236641222,-46.404580152671755,-0.9312977099236641
1749735954.43979,2025-06-12 20:45:54.439,28.577058823529413,0.8283937744140625,-5.216965417480468,15.418658691406248,134.1145038167939,-37.12977099236641,2.381679389312977
1749735954.4494822,2025-06-12 20:45:54.449,28.577058823529413,2.3247698120117186,3.8043864379882812,-0.3399766357421875,105.90076335877863,-63.05343511450382,-8.526717557251908
1749735954.4591513,2025-06-12 20:45:54.459,28.624117647058824,-7.8338278320312495,1.3287819213867187,1.9321207397460936,111.19083969465649,-39.725190839694655,5.854961832061068
1749735954.4688666,2025-06-12 20:45:54.468,28.48294117647059,-1.5873557006835937,1.7597382202148437,6.260837341308593,109.06106870229007,-36.48854961832061,-2.1908396946564888
1749735954.478554,2025-06-12 20:45:54.478,28.53,6.4356140625,-3.907337109375,19.591752185058592,110.21374045801527,40.83206106870229,-6.137404580152672
1749735954.4882388,2025-06-12 20:45:54.488,28.577058823529413,14.602235925292968,-1.4341267944335936,6.679822631835937,112.33587786259542,-65.79389312977099,5.0
1749735954.4978685,2025-06-12 20:45:54.497,28.53,-19.033903198242186,1.3263877197265623,-4.572925170898437,112.63358778625954,-79.57251908396947,2.053435114503817
1749735954.5076056,2025-06-12 20:45:54.507,28.53,-15.969325073242187,0.0143652099609375,-0.033518823242187495,106.8473282442748,-58.12977099236641,-4.625954198473282
1749735954.5173106,2025-06-12 20:45:54.517,28.48294117647059,8.700528833007812,-0.7206546997070312,16.685191369628907,122.93893129770993,57.70992366412214,7.7251908396946565
1749735954.526992,2025-06-12 20:45:54.526,28.53,19.61270144958496,1.3024457031249999,8.947131604003905,110.97709923664122,-51.67175572519084,-8.679389312977099
1749735954.5366356,2025-06-12 20:45:54.536,28.624117647058824,-0.852335791015625,-3.890577697753906,-5.9400143188476555,108.80152671755725,-122.53435114503817,0.030534351145038167
1749735954.5463388,2025-06-12 20:45:54.546,28.577058823529413,-19.52471453857422,-1.2689268798828124,-2.990357873535156,106.00763358778626,-1.702290076335878,-5.419847328244275
1749735954.5559676,2025-06-12 20:45:54.555,28.577058823529413,12.715605017089842,-3.1962592163085937,19.584569580078124,124.22137404580153,127.46564885496183,6.5038167938931295
1749735954.5657063,2025-06-12 20:45:54.565,28.53,19.46485949707031,-5.813121630859374,17.255011364746093,99.65648854961832,60.786259541984734,5.465648854961832
1749735954.5752506,2025-06-12 20:45:54.575,28.577058823529413,12.607865942382812,2.9185318237304685,-0.5147533569335937,112.21374045801527,-85.86259541984732,1.8091603053435115
1749735954.5849707,2025-06-12 20:45:54.584,28.577058823529413,-8.367734802246094,1.6615759521484375,-7.491456994628906,112.23664122137404,-36.11450381679389,-6.748091603053435
1749735954.5946581,2025-06-12 20:45:54.594,28.53,-5.6024318847656245,-6.361393811035156,9.006986645507812,130.4885496183206,4.595419847328245,-1.5114503816793894
1749735954.6043377,2025-06-12 20:45:54.604,28.53,0.9265560424804687,1.1324573852539062,13.654132067871092,109.27480916030534,2.648854961832061,-11.587786259541986
1749735954.6140044,2025-06-12 20:45:54.614,28.53,-7.819462622070312,9.37808790283203,7.1203557373046875,115.8854961832061,44.14503816793893,-2.4122137404580153
1749735954.623821,2025-06-12 20:45:54.623,28.577058823529413,8.489839086914062,-0.3711012573242187,12.78743106689453,105.47328244274809,15.404580152671755,4.633587786259542
1749735954.633499,2025-06-12 20:45:54.633,28.577058823529413,11.247959399414063,-3.5577836669921874,14.604630126953124,113.82442748091603,-64.09160305343511,-10.366412213740459
1749735954.6436644,2025-06-12 20:45:54.643,28.577058823529413,-7.548917834472656,-5.791573815917968,3.957615344238281,119.96946564885496,1.5725190839694656,11.702290076335878
1749735954.653344,2025-06-12 20:45:54.653,28.48294117647059,-9.931148486328125,-1.1180921752929687,0.4572925170898437,116.26717557251908,1.4961832061068703,-7.786259541984733
1749735954.663015,2025-06-12 20:45:54.663,28.577058823529413,-8.334215979003906,-3.6008792968749996,4.225765930175781,117.43511450381679,32.725190839694655,-5.587786259541985
1749735954.6726859,2025-06-12 20:45:54.672,28.577058823529413,0.16041151123046873,-3.423708374023437,16.869544897460937,126.77862595419847,40.274809160305345,-6.702290076335878
1749735954.6823921,2025-06-12 20:45:54.682,28.53,6.045359191894531,1.3551181396484375,6.064512805175781,132.4198473282443,29.00763358778626,3.5572519083969465
1749735954.6920621,2025-06-12 20:45:54.692,28.577058823529413,-0.9050082275390624,5.7508723876953125,8.525752111816406,102.77099236641222,-9.763358778625955,-5.412213740458015
1749735954.7017088,2025-06-12 20:45:54.701,28.577058823529413,3.356670727539062,3.5027170288085934,11.6837041015625,96.53435114503817,-61.45038167938932,1.6488549618320612
1749735954.7113533,2025-06-12 20:45:54.711,28.577058823529413,-2.6719290527343746,-1.7788918334960937,15.454571716308592,112.9618320610687,-18.16030534351145,2.0763358778625953
1749735954.7210214,2025-06-12 20:45:54.721,28.577058823529413,4.548983154296875,2.5953145996093747,10.366893188476562,117.97709923664122,18.419847328244273,4.488549618320611
1749735954.7306647,2025-06-12 20:45:54.730,28.577058823529413,3.0789433349609374,-7.8338278320312495,12.260706701660155,118.72519083969466,32.0,1.9465648854961832
1749735954.7403312,2025-06-12 20:45:54.740,28.671176470588236,-2.422932080078125,-1.2569558715820313,-3.227383837890625,114.53435114503817,-13.198473282442748,-8.717557251908397
1749735954.750752,2025-06-12 20:45:54.750,28.624117647058824,-0.6272808349609375,-6.016628771972656,9.986215124511718,133.6946564885496,-14.709923664122137,-9.641221374045802
1749735954.7603962,2025-06-12 20:45:54.760,28.53,-4.309562988281249,4.774038110351563,-4.977545251464844,116.02290076335878,0.12213740458015267,-20.709923664122137
1749735954.770058,2025-06-12 20:45:54.770,28.624117647058824,-8.197746484375,4.50109912109375,-0.8858546142578124,115.40458015267176,53.534351145038165,-3.900763358778626
1749735954.7797332,2025-06-12 20:45:54.779,28.624117647058824,11.786654772949218,4.170699291992188,14.927847351074218,96.89312977099236,56.80916030534351,-2.6106870229007635
1749735954.789383,2025-06-12 20:45:54.789,28.53,17.57104598388672,-6.789955908203124,19.61270144958496,111.70229007633588,-63.66412213740458,5.648854961832061
1749735954.7990284,2025-06-12 20:45:54.799,28.577058823529413,-1.6711527587890624,-0.4333505004882812,-0.8978256225585937,121.46564885496183,-23.47328244274809,8.13740458015267
1749735954.8086808,2025-06-12 20:45:54.808,28.671176470588236,-12.835315100097656,5.360617517089843,4.5322237426757805,116.33587786259542,41.97709923664122,-1.16793893129771
1749735954.818327,2025-06-12 20:45:54.818,28.577058823529413,8.382100012207031,0.32561142578124996,12.988544006347656,105.38931297709924,18.435114503816795,-4.229007633587786
