timestamp_unix,timestamp_readable,temp_c,accel_x,accel_y,accel_z,gyro_x,gyro_y,gyro_z
1749747709.637559,2025-06-13 00:01:49.637,36.53,0.0,0.0,0.14125789794921875,-61.51145038167939,-32.83969465648855,92.0381679389313
1749747709.6476555,2025-06-13 00:01:49.647,30.741764705882353,0.5291185668945312,-0.0430956298828125,8.774749084472656,-190.9236641221374,-0.40458015267175573,104.20610687022901
1749747709.6578763,2025-06-13 00:01:49.657,30.835882352941177,0.12210428466796874,0.11252747802734374,8.698134631347656,116.67175572519083,-0.5419847328244275,-2.4732824427480917
1749747709.6684482,2025-06-13 00:01:49.668,30.835882352941177,0.3711012573242187,-0.105344873046875,8.652644799804687,115.12977099236642,0.40458015267175573,-2.0076335877862594
1749747709.678068,2025-06-13 00:01:49.678,30.882941176470588,0.29927520751953124,-0.0143652099609375,8.566453540039062,114.69465648854961,-0.2900763358778626,-2.114503816793893
1749747709.6876786,2025-06-13 00:01:49.687,30.788823529411765,0.1484405029296875,0.1867477294921875,8.70771143798828,114.59541984732824,1.9389312977099236,-2.068702290076336
1749747709.6972866,2025-06-13 00:01:49.697,30.93,0.2442085693359375,0.09337386474609374,8.59278975830078,114.89312977099236,0.17557251908396945,-2.053435114503817
1749747709.7068925,2025-06-13 00:01:49.706,30.882941176470588,0.296881005859375,0.09337386474609374,8.834604125976561,114.74809160305344,-0.6946564885496184,-2.1068702290076335
1749747709.716504,2025-06-13 00:01:49.716,30.93,0.25139117431640623,0.15322890625,8.559270935058594,114.8854961832061,-1.9389312977099236,-2.099236641221374
1749747709.726116,2025-06-13 00:01:49.726,30.835882352941177,0.1580173095703125,-0.14604630126953125,8.779537487792968,114.6030534351145,1.9236641221374047,-2.1297709923664123
1749747709.7357419,2025-06-13 00:01:49.735,30.835882352941177,0.3399766357421875,0.028730419921875,8.688557824707031,114.54961832061069,-0.11450381679389313,-2.3282442748091605
1749747709.7480135,2025-06-13 00:01:49.748,30.882941176470588,0.1771709228515625,0.05746083984375,8.712499841308594,114.90839694656489,-0.48091603053435117,-2.114503816793893
1749747709.7621696,2025-06-13 00:01:49.762,30.835882352941177,0.24899697265624998,0.0143652099609375,8.652644799804687,114.8473282442748,-0.13740458015267176,-2.045801526717557
1749747709.7718356,2025-06-13 00:01:49.771,30.97705882352941,0.23223756103515625,0.0047884033203125,8.647856396484375,114.7175572519084,-0.061068702290076333,-2.2977099236641223
1749747709.7814512,2025-06-13 00:01:49.781,30.93,0.18914193115234373,0.1005564697265625,8.580818749999999,114.82442748091603,-1.099236641221374,-2.114503816793893
1749747709.7910945,2025-06-13 00:01:49.791,30.835882352941177,0.10295067138671875,0.143652099609375,8.655039001464843,114.6030534351145,1.6870229007633588,-2.0763358778625953
1749747709.8007438,2025-06-13 00:01:49.800,30.93,0.11013327636718749,0.055066638183593745,8.78432589111328,114.94656488549619,0.3053435114503817,-2.0229007633587788
1749747709.8106182,2025-06-13 00:01:49.810,30.97705882352941,0.11731588134765625,0.08379705810546874,8.686163623046875,114.6793893129771,-0.7099236641221374,-2.099236641221374
1749747709.8207006,2025-06-13 00:01:49.820,30.97705882352941,0.258573779296875,0.17956512451171874,8.74601866455078,114.82442748091603,0.48091603053435117,-2.2290076335877864
1749747709.8303344,2025-06-13 00:01:49.830,30.882941176470588,0.3327940307617187,-0.0047884033203125,8.815450512695312,115.01526717557252,0.31297709923664124,-2.16793893129771
1749747709.839941,2025-06-13 00:01:49.839,30.882941176470588,0.39264907226562495,0.040701428222656245,8.757989672851561,114.78625954198473,0.3053435114503817,-1.7938931297709924
1749747709.8495617,2025-06-13 00:01:49.849,30.93,0.15322890625,-0.011971008300781249,8.678981018066406,114.7557251908397,-0.1297709923664122,-2.0839694656488548
1749747709.8591988,2025-06-13 00:01:49.859,30.97705882352941,0.3112462158203125,-0.143652099609375,8.765172277832031,114.55725190839695,-0.04580152671755725,-2.2290076335877864
1749747709.868823,2025-06-13 00:01:49.868,30.882941176470588,0.2561795776367187,-0.05985504150390625,8.681375219726561,114.6030534351145,-0.0916030534351145,-2.2900763358778624
1749747709.878475,2025-06-13 00:01:49.878,30.93,0.201112939453125,0.01915361328125,8.616731774902343,115.05343511450381,-0.1984732824427481,-2.1297709923664123
1749747709.8881178,2025-06-13 00:01:49.888,30.882941176470588,0.27293898925781246,-0.009576806640625,8.667010009765624,114.81679389312977,1.916030534351145,-2.2442748091603053
1749747709.8977563,2025-06-13 00:01:49.897,30.93,0.23702596435546874,0.08140285644531249,8.726865051269531,114.87022900763358,-0.022900763358778626,-2.0763358778625953
1749747709.9074101,2025-06-13 00:01:49.907,30.93,0.19153613281249998,0.09337386474609374,8.731653454589843,115.09923664122137,-0.05343511450381679,-2.0763358778625953
1749747709.9171114,2025-06-13 00:01:49.917,30.97705882352941,0.19393033447265623,0.15322890625,8.71489404296875,114.7175572519084,0.030534351145038167,-2.114503816793893
1749747709.9267783,2025-06-13 00:01:49.926,30.93,0.19393033447265623,0.1149216796875,8.717288244628906,114.86259541984732,-0.10687022900763359,-2.0839694656488548
1749747709.9363964,2025-06-13 00:01:49.936,30.882941176470588,0.24660277099609373,0.09337386474609374,8.678981018066406,114.86259541984732,0.1450381679389313,-0.08396946564885496
1749747709.9460442,2025-06-13 00:01:49.946,30.93,0.24181436767578124,0.18435352783203124,8.705317236328124,114.61832061068702,0.26717557251908397,-2.045801526717557
1749747709.9556925,2025-06-13 00:01:49.955,31.071176470588235,0.229843359375,0.12210428466796874,8.79150849609375,114.81679389312977,1.8625954198473282,-2.183206106870229
1749747709.9671717,2025-06-13 00:01:49.967,30.93,0.229843359375,0.08379705810546874,8.67658681640625,114.70992366412214,-0.4961832061068702,-2.0
1749747709.9768426,2025-06-13 00:01:49.976,30.97705882352941,0.19871873779296872,-0.12689268798828124,8.611943371582031,114.69465648854961,-0.12213740458015267,-2.1908396946564888
1749747709.9864118,2025-06-13 00:01:49.986,30.97705882352941,0.2537853759765625,0.016759411621093748,8.70771143798828,114.79389312977099,-0.030534351145038167,-2.1297709923664123
1749747709.9960642,2025-06-13 00:01:49.996,30.882941176470588,0.29448680419921874,-0.06703764648437499,8.664615808105468,114.93893129770993,1.9389312977099236,-2.053435114503817
1749747710.0056856,2025-06-13 00:01:50.005,31.118235294117646,0.2705447875976562,-0.08140285644531249,8.597578161621094,114.7175572519084,0.3435114503816794,-2.068702290076336
1749747710.0158243,2025-06-13 00:01:50.015,30.97705882352941,0.1771709228515625,0.0047884033203125,8.779537487792968,114.81679389312977,0.03816793893129771,-2.2061068702290076
1749747710.0254486,2025-06-13 00:01:50.025,31.024117647058823,0.39264907226562495,0.031124621582031248,8.645462194824217,114.78625954198473,1.8473282442748091,-2.1908396946564888
1749747710.0350938,2025-06-13 00:01:50.035,30.97705882352941,0.26336218261718747,-0.0047884033203125,8.588001354980468,114.9618320610687,-0.061068702290076333,-2.2290076335877864
1749747710.0451403,2025-06-13 00:01:50.045,30.97705882352941,0.277727392578125,0.01915361328125,8.681375219726561,114.91603053435115,0.08396946564885496,-2.267175572519084
1749747710.054816,2025-06-13 00:01:50.054,30.93,0.22744915771484372,0.11013327636718749,8.686163623046875,114.80916030534351,-1.9465648854961832,-2.068702290076336
1749747710.0647106,2025-06-13 00:01:50.064,30.97705882352941,0.2705447875976562,0.12449848632812499,8.719682446289061,114.9618320610687,0.022900763358778626,-3.900763358778626
1749747710.0757086,2025-06-13 00:01:50.075,30.97705882352941,0.2825157958984375,0.09337386474609374,8.590395556640624,114.6412213740458,0.06870229007633588,-2.1526717557251906
1749747710.0859067,2025-06-13 00:01:50.085,31.024117647058823,0.19393033447265623,0.08140285644531249,8.671798413085938,114.7175572519084,-0.06870229007633588,-2.3053435114503817
1749747710.095521,2025-06-13 00:01:50.095,30.97705882352941,0.19153613281249998,0.07900865478515624,8.717288244628906,114.62595419847328,0.007633587786259542,-2.1755725190839694
1749747710.1051838,2025-06-13 00:01:50.105,31.024117647058823,0.21308394775390624,-0.12449848632812499,8.628702783203124,114.73282442748092,-0.022900763358778626,-2.2900763358778624
1749747710.1158867,2025-06-13 00:01:50.115,30.93,0.34237083740234375,0.023942016601562498,8.664615808105468,114.64885496183206,-1.9541984732824427,-0.13740458015267176
1749747710.1255643,2025-06-13 00:01:50.125,30.97705882352941,0.2657563842773437,-0.033518823242187495,8.710105639648438,114.93129770992367,-1.9465648854961832,-2.198473282442748
1749747710.135207,2025-06-13 00:01:50.135,30.97705882352941,0.2442085693359375,0.08140285644531249,8.616731774902343,114.87022900763358,-1.786259541984733,-2.1297709923664123
1749747710.144963,2025-06-13 00:01:50.144,30.97705882352941,0.23223756103515625,0.10773907470703124,8.70771143798828,114.7175572519084,-1.9312977099236641,-2.2061068702290076
1749747710.154585,2025-06-13 00:01:50.154,31.024117647058823,0.2609679809570312,0.023942016601562498,8.75320126953125,114.80152671755725,0.05343511450381679,-2.213740458015267
1749747710.1642406,2025-06-13 00:01:50.164,31.024117647058823,0.22505495605468748,0.06943184814453125,8.705317236328124,115.1145038167939,-0.10687022900763359,-2.33587786259542
1749747710.1738799,2025-06-13 00:01:50.173,31.071176470588235,0.2346317626953125,0.0143652099609375,8.710105639648438,114.64885496183206,1.9312977099236641,-0.015267175572519083
1749747710.1847978,2025-06-13 00:01:50.184,31.071176470588235,0.26336218261718747,0.11013327636718749,8.690952026367187,115.01526717557252,-0.10687022900763359,-2.1755725190839694
1749747710.1947713,2025-06-13 00:01:50.194,31.024117647058823,0.20829554443359374,0.06464344482421874,8.645462194824217,114.69465648854961,0.0916030534351145,-2.198473282442748
1749747710.2043867,2025-06-13 00:01:50.204,31.024117647058823,0.22026655273437498,0.05985504150390625,8.722076647949219,114.90076335877863,-1.816793893129771,-2.0381679389312977
1749747710.2140355,2025-06-13 00:01:50.214,31.071176470588235,0.28012159423828126,0.15083470458984374,8.858546142578124,114.79389312977099,0.1984732824427481,-2.236641221374046
1749747710.2236626,2025-06-13 00:01:50.223,31.071176470588235,0.34237083740234375,0.028730419921875,8.659827404785156,114.6412213740458,0.32061068702290074,-0.06870229007633588
1749747710.2333431,2025-06-13 00:01:50.233,30.97705882352941,0.28012159423828126,0.00239420166015625,8.698134631347656,114.9618320610687,-0.007633587786259542,-0.15267175572519084
1749747710.2431126,2025-06-13 00:01:50.243,31.024117647058823,0.23223756103515625,0.0430956298828125,8.647856396484375,114.97709923664122,-0.022900763358778626,-2.0381679389312977
1749747710.2530706,2025-06-13 00:01:50.253,31.071176470588235,0.19632453613281248,0.06943184814453125,8.74601866455078,114.58015267175573,-0.05343511450381679,-2.3053435114503817
1749747710.2629583,2025-06-13 00:01:50.262,30.882941176470588,0.258573779296875,0.04548983154296875,8.772354882812499,114.85496183206106,-0.35877862595419846,-2.198473282442748
1749747710.2725868,2025-06-13 00:01:50.272,31.071176470588235,0.23223756103515625,0.0526724365234375,8.705317236328124,114.69465648854961,-0.06870229007633588,-1.9312977099236641
1749747710.2822506,2025-06-13 00:01:50.282,31.118235294117646,0.15562310791015624,0.08379705810546874,8.690952026367187,114.8473282442748,-0.1450381679389313,-2.0916030534351147
1749747710.2930248,2025-06-13 00:01:50.293,30.97705882352941,0.1867477294921875,0.016759411621093748,8.698134631347656,114.77099236641222,0.29770992366412213,-1.9770992366412214
1749747710.3026571,2025-06-13 00:01:50.302,31.071176470588235,0.2920926025390625,0.10295067138671875,8.700528833007812,114.58778625954199,0.07633587786259542,-2.045801526717557
1749747710.3124855,2025-06-13 00:01:50.312,31.071176470588235,0.24899697265624998,0.06464344482421874,8.628702783203124,114.8473282442748,0.030534351145038167,-2.2213740458015265
1749747710.3221204,2025-06-13 00:01:50.322,31.118235294117646,0.181959326171875,0.00718260498046875,8.80347950439453,115.00763358778626,1.8854961832061068,-2.1755725190839694
1749747710.3317769,2025-06-13 00:01:50.331,30.97705882352941,0.13407529296874998,0.1149216796875,8.712499841308594,114.83206106870229,-0.15267175572519084,-2.1374045801526718
1749747710.341412,2025-06-13 00:01:50.341,31.024117647058823,0.17956512451171874,0.02154781494140625,8.667010009765624,114.78625954198473,-0.3435114503816794,-2.2061068702290076
1749747710.3510509,2025-06-13 00:01:50.351,31.118235294117646,0.1771709228515625,0.0909796630859375,8.774749084472656,115.01526717557252,-0.08396946564885496,-2.3282442748091605
1749747710.3607175,2025-06-13 00:01:50.360,31.071176470588235,0.17477672119140625,0.02633621826171875,8.657433203124999,114.8473282442748,-0.1450381679389313,-0.03816793893129771
1749747710.3703408,2025-06-13 00:01:50.370,31.071176470588235,0.25139117431640623,0.01915361328125,8.640673791503906,114.94656488549619,-0.03816793893129771,-2.2748091603053435
1749747710.3800907,2025-06-13 00:01:50.380,31.071176470588235,0.42377369384765623,0.04548983154296875,8.755595471191405,114.8854961832061,-1.9312977099236641,-2.282442748091603
1749747710.3897185,2025-06-13 00:01:50.389,31.212352941176473,0.24899697265624998,0.055066638183593745,8.657433203124999,114.97709923664122,-1.8396946564885497,-2.267175572519084
1749747710.3994293,2025-06-13 00:01:50.399,31.024117647058823,0.2825157958984375,0.031124621582031248,8.84178673095703,114.78625954198473,0.0916030534351145,-2.0763358778625953
1749747710.4095156,2025-06-13 00:01:50.409,31.071176470588235,0.277727392578125,0.031124621582031248,8.827421520996094,114.6030534351145,1.9389312977099236,-2.2442748091603053
1749747710.4191744,2025-06-13 00:01:50.419,31.118235294117646,0.277727392578125,-0.00718260498046875,8.767566479492187,114.77862595419847,0.17557251908396945,-2.1603053435114505
1749747710.428855,2025-06-13 00:01:50.428,31.024117647058823,0.2705447875976562,0.08140285644531249,8.678981018066406,114.7175572519084,0.26717557251908397,-2.1297709923664123
1749747710.43847,2025-06-13 00:01:50.438,30.97705882352941,0.26336218261718747,0.05027823486328125,8.59278975830078,114.49618320610686,-0.17557251908396945,-2.236641221374046
1749747710.4481037,2025-06-13 00:01:50.448,31.118235294117646,0.21787235107421873,0.01915361328125,8.690952026367187,114.62595419847328,1.8625954198473282,-2.4198473282442747
1749747710.457792,2025-06-13 00:01:50.457,31.071176470588235,0.2059013427734375,0.033518823242187495,8.688557824707031,114.83969465648855,-0.12213740458015267,-2.236641221374046
1749747710.4674447,2025-06-13 00:01:50.467,31.024117647058823,0.21308394775390624,-0.12210428466796874,8.67658681640625,114.80916030534351,-0.3816793893129771,-2.282442748091603
1749747710.4770918,2025-06-13 00:01:50.477,31.118235294117646,0.2657563842773437,0.07900865478515624,8.760383874511719,114.81679389312977,0.007633587786259542,-2.053435114503817
1749747710.486777,2025-06-13 00:01:50.486,31.071176470588235,0.24660277099609373,0.076614453125,8.63109698486328,114.98473282442748,-0.1297709923664122,-2.068702290076336
1749747710.4964232,2025-06-13 00:01:50.496,31.118235294117646,0.19153613281249998,0.0383072265625,8.683769421386717,114.83206106870229,-0.061068702290076333,-1.9923664122137406
1749747710.5060368,2025-06-13 00:01:50.506,31.118235294117646,0.24899697265624998,0.05985504150390625,8.858546142578124,114.63358778625954,0.25190839694656486,-2.2595419847328246
1749747710.5174353,2025-06-13 00:01:50.517,31.071176470588235,0.239420166015625,0.040701428222656245,8.717288244628906,114.93129770992367,-0.3053435114503817,-2.015267175572519
1749747710.5271034,2025-06-13 00:01:50.527,31.024117647058823,0.2657563842773437,0.02633621826171875,8.724470849609375,114.54198473282443,-0.2748091603053435,-2.1374045801526718
1749747710.5367568,2025-06-13 00:01:50.536,31.071176470588235,0.239420166015625,0.01915361328125,8.74601866455078,114.77099236641222,-0.05343511450381679,-2.2442748091603053
1749747710.5464187,2025-06-13 00:01:50.546,31.024117647058823,0.181959326171875,0.03591302490234375,8.693346228027343,114.77099236641222,-1.9236641221374047,-2.1603053435114505
1749747710.5560358,2025-06-13 00:01:50.556,31.118235294117646,0.2442085693359375,0.04548983154296875,8.78432589111328,114.76335877862596,-0.1450381679389313,-1.9770992366412214
1749747710.5657752,2025-06-13 00:01:50.565,31.024117647058823,0.28490999755859375,0.10295067138671875,8.722076647949219,114.90076335877863,-0.061068702290076333,-2.0381679389312977
1749747710.5754175,2025-06-13 00:01:50.575,31.16529411764706,0.24181436767578124,0.062249243164062495,8.71489404296875,114.95419847328245,-1.9236641221374047,-2.0610687022900764
1749747710.58507,2025-06-13 00:01:50.585,31.024117647058823,0.2346317626953125,-0.09576806640624999,8.858546142578124,114.77099236641222,1.9083969465648856,-2.053435114503817
1749747710.5947993,2025-06-13 00:01:50.594,31.071176470588235,0.239420166015625,0.08858546142578125,8.813056311035156,114.83206106870229,0.22137404580152673,-2.1068702290076335
1749747710.6044374,2025-06-13 00:01:50.604,31.118235294117646,0.2920926025390625,-0.009576806640625,8.84178673095703,114.61832061068702,-0.22137404580152673,-1.984732824427481
1749747710.6144085,2025-06-13 00:01:50.614,31.16529411764706,0.19871873779296872,0.07422025146484375,8.585607153320312,114.74045801526718,-0.13740458015267176,-2.1374045801526718
1749747710.6260746,2025-06-13 00:01:50.626,31.024117647058823,0.23702596435546874,0.028730419921875,8.643067993164061,114.86259541984732,0.07633587786259542,-2.045801526717557
1749747710.6390057,2025-06-13 00:01:50.639,31.118235294117646,0.29927520751953124,0.09337386474609374,8.683769421386717,114.80152671755725,-0.022900763358778626,-2.3053435114503817
1749747710.6486433,2025-06-13 00:01:50.648,31.118235294117646,0.27293898925781246,0.062249243164062495,8.88009395751953,114.94656488549619,-0.32061068702290074,-2.2213740458015265
1749747710.6582994,2025-06-13 00:01:50.658,30.97705882352941,0.16280571289062498,0.040701428222656245,8.765172277832031,114.89312977099236,-1.9389312977099236,-2.0916030534351147
1749747710.6679204,2025-06-13 00:01:50.667,31.071176470588235,0.229843359375,0.02154781494140625,8.736441857910156,114.87786259541984,-0.42748091603053434,-2.145038167938931
1749747710.6775465,2025-06-13 00:01:50.677,31.024117647058823,0.23223756103515625,0.00239420166015625,8.762778076171875,114.77099236641222,0.0,-2.015267175572519
1749747710.687171,2025-06-13 00:01:50.687,31.16529411764706,0.19632453613281248,0.00239420166015625,8.748412866210938,114.80916030534351,-0.030534351145038167,-2.1297709923664123
1749747710.6967852,2025-06-13 00:01:50.696,31.16529411764706,0.21068974609375,0.03591302490234375,8.75320126953125,114.81679389312977,0.10687022900763359,-0.04580152671755725
1749747710.706405,2025-06-13 00:01:50.706,31.071176470588235,0.23702596435546874,0.028730419921875,8.724470849609375,114.83206106870229,0.030534351145038167,-2.183206106870229
1749747710.716072,2025-06-13 00:01:50.716,31.16529411764706,0.1771709228515625,0.06943184814453125,8.71489404296875,114.54198473282443,-0.2900763358778626,-2.122137404580153
1749747710.725693,2025-06-13 00:01:50.725,31.16529411764706,0.2561795776367187,0.023942016601562498,8.74601866455078,114.6412213740458,0.08396946564885496,-2.122137404580153
1749747710.73554,2025-06-13 00:01:50.735,31.118235294117646,0.27293898925781246,0.023942016601562498,8.602366564941406,114.74809160305344,0.1984732824427481,-2.16793893129771
1749747710.7453556,2025-06-13 00:01:50.745,31.071176470588235,0.43574470214843747,0.031124621582031248,8.667010009765624,114.74045801526718,-0.17557251908396945,-2.2519083969465647
1749747710.7558038,2025-06-13 00:01:50.755,31.16529411764706,0.2825157958984375,0.08379705810546874,8.757989672851561,114.82442748091603,0.04580152671755725,-2.236641221374046
1749747710.7657835,2025-06-13 00:01:50.765,31.212352941176473,0.2657563842773437,0.055066638183593745,8.774749084472656,114.9618320610687,0.183206106870229,-2.068702290076336
1749747710.7754066,2025-06-13 00:01:50.775,31.118235294117646,0.23223756103515625,0.14125789794921875,8.877699755859375,114.91603053435115,-0.1450381679389313,-0.03816793893129771
1749747710.7850463,2025-06-13 00:01:50.785,31.212352941176473,0.3327940307617187,0.02154781494140625,8.846575134277343,114.65648854961832,0.22900763358778625,-2.1526717557251906
1749747710.7947457,2025-06-13 00:01:50.794,31.118235294117646,0.181959326171875,-0.02154781494140625,8.609549169921875,114.87022900763358,-0.1984732824427481,-1.9694656488549618
1749747710.804372,2025-06-13 00:01:50.804,31.16529411764706,0.22266075439453123,0.0526724365234375,8.863334545898438,114.83206106870229,0.03816793893129771,-2.236641221374046
1749747710.8140368,2025-06-13 00:01:50.814,31.118235294117646,0.201112939453125,0.07422025146484375,8.731653454589843,114.65648854961832,0.0916030534351145,-2.213740458015267
1749747710.8236566,2025-06-13 00:01:50.823,31.118235294117646,0.28730419921875,0.0430956298828125,8.671798413085938,114.6793893129771,-0.0916030534351145,-2.312977099236641
1749747710.833307,2025-06-13 00:01:50.833,31.16529411764706,0.2609679809570312,0.0383072265625,8.616731774902343,114.70229007633588,0.08396946564885496,-2.16793893129771
1749747710.8429627,2025-06-13 00:01:50.842,31.212352941176473,0.2705447875976562,0.086191259765625,8.863334545898438,114.87786259541984,0.2366412213740458,-2.0229007633587788
1749747710.8550274,2025-06-13 00:01:50.855,31.118235294117646,0.23223756103515625,0.10773907470703124,8.678981018066406,114.5114503816794,-0.4580152671755725,-2.1297709923664123
1749747710.8654327,2025-06-13 00:01:50.865,31.16529411764706,0.2753331909179687,0.023942016601562498,8.681375219726561,114.77862595419847,-0.09923664122137404,-1.9694656488549618
1749747710.8799736,2025-06-13 00:01:50.879,31.16529411764706,0.22266075439453123,0.04548983154296875,8.702923034667968,114.62595419847328,0.03816793893129771,-2.2595419847328246
1749747710.8895783,2025-06-13 00:01:50.889,30.506470588235295,0.229843359375,0.04548983154296875,8.710105639648438,114.92366412213741,-1.9083969465648856,-2.2213740458015265
1749747710.8992374,2025-06-13 00:01:50.899,31.071176470588235,0.25139117431640623,0.12689268798828124,8.585607153320312,114.86259541984732,-1.8702290076335877,-2.2442748091603053
1749747710.9088655,2025-06-13 00:01:50.908,31.118235294117646,0.27293898925781246,-0.047884033203124995,8.793902697753905,114.77862595419847,-1.8778625954198473,-2.312977099236641
1749747710.918521,2025-06-13 00:01:50.918,31.16529411764706,0.3280056274414062,0.055066638183593745,8.767566479492187,114.58778625954199,0.1297709923664122,-2.198473282442748
1749747710.9281678,2025-06-13 00:01:50.928,31.118235294117646,0.258573779296875,0.02633621826171875,8.772354882812499,114.56488549618321,0.3435114503816794,-2.3053435114503817
1749747710.9378083,2025-06-13 00:01:50.937,31.071176470588235,0.4525041137695312,0.040701428222656245,8.580818749999999,114.80152671755725,0.07633587786259542,-2.0
1749747710.9474645,2025-06-13 00:01:50.947,31.212352941176473,0.22266075439453123,-0.02633621826171875,8.755595471191405,114.77099236641222,-0.1450381679389313,-2.114503816793893
1749747710.9570925,2025-06-13 00:01:50.957,31.118235294117646,0.16759411621093748,0.0,8.724470849609375,114.64885496183206,0.3282442748091603,-3.885496183206107
1749747710.9676263,2025-06-13 00:01:50.967,31.824117647058824,0.26336218261718747,0.07422025146484375,8.657433203124999,114.83969465648855,-0.24427480916030533,-2.282442748091603
1749747710.9778311,2025-06-13 00:01:50.977,31.91823529411765,0.16280571289062498,0.062249243164062495,8.702923034667968,114.61832061068702,0.10687022900763359,-1.984732824427481
1749747710.9874933,2025-06-13 00:01:50.987,31.16529411764706,0.18914193115234373,0.09337386474609374,8.590395556640624,114.7557251908397,-1.8778625954198473,-2.122137404580153
1749747710.997142,2025-06-13 00:01:50.997,31.16529411764706,0.181959326171875,-0.09576806640624999,8.772354882812499,114.7557251908397,-0.10687022900763359,-2.015267175572519
1749747711.0067883,2025-06-13 00:01:51.006,31.212352941176473,0.26336218261718747,0.06943184814453125,8.805873706054687,114.87786259541984,0.17557251908396945,-2.2290076335877864
1749747711.0164788,2025-06-13 00:01:51.016,31.118235294117646,0.24181436767578124,0.055066638183593745,8.726865051269531,114.73282442748092,0.0916030534351145,-2.0839694656488548
1749747711.0261,2025-06-13 00:01:51.026,31.16529411764706,0.181959326171875,0.0,8.736441857910156,114.6030534351145,0.1450381679389313,-2.2442748091603053
1749747711.0357442,2025-06-13 00:01:51.035,31.212352941176473,0.21308394775390624,0.0718260498046875,8.59997236328125,114.80152671755725,0.0916030534351145,-2.099236641221374
1749747711.045522,2025-06-13 00:01:51.045,31.118235294117646,0.19871873779296872,0.01915361328125,8.722076647949219,114.74045801526718,-0.08396946564885496,-2.068702290076336
1749747711.0552666,2025-06-13 00:01:51.055,31.16529411764706,0.22505495605468748,0.05027823486328125,8.710105639648438,114.68702290076335,1.9389312977099236,-2.312977099236641
1749747711.0649412,2025-06-13 00:01:51.064,31.118235294117646,0.18435352783203124,0.05746083984375,8.700528833007812,114.93129770992367,-0.05343511450381679,-3.8625954198473282
1749747711.0745845,2025-06-13 00:01:51.074,31.91823529411765,0.201112939453125,0.028730419921875,8.695740429687499,114.77862595419847,-0.03816793893129771,-3.83206106870229
1749747711.0842383,2025-06-13 00:01:51.084,31.91823529411765,0.16041151123046873,0.0718260498046875,8.88009395751953,114.54198473282443,0.1297709923664122,-2.1908396946564888
1749747711.0943396,2025-06-13 00:01:51.094,31.212352941176473,0.2346317626953125,0.040701428222656245,8.719682446289061,114.55725190839695,0.1984732824427481,-0.1297709923664122
1749747711.104086,2025-06-13 00:01:51.104,31.16529411764706,0.2825157958984375,0.07422025146484375,8.755595471191405,114.7175572519084,0.31297709923664124,-2.1374045801526718
1749747711.1137407,2025-06-13 00:01:51.113,31.071176470588235,0.2154781494140625,0.031124621582031248,8.736441857910156,114.77862595419847,0.37404580152671757,-2.183206106870229
1749747711.1233647,2025-06-13 00:01:51.123,31.16529411764706,0.30885201416015623,0.03591302490234375,8.645462194824217,114.6412213740458,0.183206106870229,-2.2213740458015265
1749747711.1330054,2025-06-13 00:01:51.133,31.16529411764706,0.2753331909179687,0.086191259765625,8.834604125976561,114.70992366412214,0.19083969465648856,-2.122137404580153
1749747711.142629,2025-06-13 00:01:51.142,31.118235294117646,0.2442085693359375,0.05985504150390625,8.738836059570312,114.83969465648855,-0.007633587786259542,-2.1908396946564888
1749747711.1522703,2025-06-13 00:01:51.152,30.506470588235295,0.19632453613281248,0.0143652099609375,8.671798413085938,114.62595419847328,1.8931297709923665,-1.8778625954198473
1749747711.1619284,2025-06-13 00:01:51.161,31.259411764705884,0.23702596435546874,0.03591302490234375,8.580818749999999,114.70229007633588,-0.25190839694656486,-2.0916030534351147
1749747711.1715639,2025-06-13 00:01:51.171,31.16529411764706,0.239420166015625,0.016759411621093748,8.726865051269531,114.80152671755725,-0.3053435114503817,-2.1374045801526718
1749747711.1812136,2025-06-13 00:01:51.181,31.16529411764706,0.17477672119140625,0.06464344482421874,8.657433203124999,114.90839694656489,-0.061068702290076333,-2.16793893129771
1749747711.1908495,2025-06-13 00:01:51.190,31.212352941176473,0.2705447875976562,0.062249243164062495,8.662221606445312,114.8473282442748,-0.13740458015267176,-2.1297709923664123
1749747711.2013936,2025-06-13 00:01:51.201,31.91823529411765,0.28969840087890625,0.02633621826171875,8.88009395751953,114.63358778625954,-0.0916030534351145,-2.2061068702290076
1749747711.2119248,2025-06-13 00:01:51.211,31.16529411764706,0.2154781494140625,0.0526724365234375,8.86812294921875,114.79389312977099,0.15267175572519084,-2.1297709923664123
1749747711.224329,2025-06-13 00:01:51.224,31.91823529411765,0.3016694091796875,0.02154781494140625,8.588001354980468,114.70229007633588,-1.9083969465648856,-2.1374045801526718
1749747711.2338908,2025-06-13 00:01:51.233,30.506470588235295,0.2753331909179687,0.0383072265625,8.851363537597656,114.70229007633588,0.183206106870229,-2.16793893129771
1749747711.2435212,2025-06-13 00:01:51.243,31.16529411764706,0.28012159423828126,0.08858546142578125,8.767566479492187,115.09160305343511,0.022900763358778626,-2.045801526717557
1749747711.253243,2025-06-13 00:01:51.253,31.965294117647062,0.2561795776367187,0.0526724365234375,8.882488159179687,114.77862595419847,-0.09923664122137404,-2.213740458015267
1749747711.2628918,2025-06-13 00:01:51.262,31.212352941176473,0.23702596435546874,0.0143652099609375,8.762778076171875,114.80916030534351,1.8778625954198473,-2.0610687022900764
1749747711.2727222,2025-06-13 00:01:51.272,31.212352941176473,0.28490999755859375,0.05027823486328125,8.655039001464843,114.80152671755725,-0.05343511450381679,-3.8625954198473282
1749747711.282388,2025-06-13 00:01:51.282,31.91823529411765,0.24660277099609373,-0.12449848632812499,8.690952026367187,114.83969465648855,-0.19083969465648856,-1.9465648854961832
1749747711.2920191,2025-06-13 00:01:51.292,31.965294117647062,0.3016694091796875,0.06464344482421874,8.731653454589843,114.7175572519084,0.09923664122137404,-2.0610687022900764
1749747711.3016398,2025-06-13 00:01:51.301,31.965294117647062,0.26815058593749996,0.15083470458984374,8.734047656249999,114.96946564885496,-0.2748091603053435,-2.2290076335877864
1749747711.3118474,2025-06-13 00:01:51.311,31.212352941176473,0.28730419921875,0.05985504150390625,8.628702783203124,114.7557251908397,-0.183206106870229,-1.9618320610687023
1749747711.324211,2025-06-13 00:01:51.324,31.824117647058824,0.2561795776367187,0.062249243164062495,8.635885388183594,114.94656488549619,-1.900763358778626,-2.045801526717557
1749747711.3339312,2025-06-13 00:01:51.333,31.259411764705884,0.2825157958984375,0.05746083984375,8.769960681152343,114.70992366412214,0.061068702290076333,-2.2442748091603053
1749747711.3435636,2025-06-13 00:01:51.343,31.212352941176473,0.26815058593749996,0.023942016601562498,8.611943371582031,114.5114503816794,-1.9389312977099236,-2.0076335877862594
1749747711.353187,2025-06-13 00:01:51.353,31.16529411764706,0.296881005859375,0.08140285644531249,8.719682446289061,114.78625954198473,-1.8625954198473282,-2.33587786259542
1749747711.3628356,2025-06-13 00:01:51.362,31.16529411764706,0.19632453613281248,0.09337386474609374,8.698134631347656,114.80916030534351,0.06870229007633588,-2.3969465648854964
1749747711.3736732,2025-06-13 00:01:51.373,31.212352941176473,0.16998831787109375,0.13407529296874998,8.78432589111328,114.6412213740458,0.2748091603053435,-1.8549618320610688
1749747711.3833425,2025-06-13 00:01:51.383,30.506470588235295,0.24899697265624998,0.10773907470703124,8.817844714355468,114.83969465648855,-0.007633587786259542,-2.213740458015267
1749747711.3932087,2025-06-13 00:01:51.393,31.16529411764706,0.239420166015625,0.00718260498046875,8.82981572265625,114.68702290076335,-0.16030534351145037,-2.0229007633587788
1749747711.4035254,2025-06-13 00:01:51.403,31.965294117647062,0.2753331909179687,0.023942016601562498,8.693346228027343,114.87022900763358,-0.061068702290076333,-3.877862595419847
1749747711.4132073,2025-06-13 00:01:51.413,31.91823529411765,0.2753331909179687,0.04548983154296875,8.810662109374999,114.90076335877863,-0.35877862595419846,-2.2748091603053435
1749747711.4261732,2025-06-13 00:01:51.426,31.965294117647062,0.21308394775390624,0.031124621582031248,8.724470849609375,114.7557251908397,-0.1297709923664122,-2.0839694656488548
1749747711.4366014,2025-06-13 00:01:51.436,30.553529411764707,0.28012159423828126,-0.11731588134765625,8.583212951660157,114.74045801526718,-1.9465648854961832,-3.9083969465648853
1749747711.4462917,2025-06-13 00:01:51.446,31.965294117647062,0.2537853759765625,0.016759411621093748,8.825027319335938,114.49618320610686,1.8244274809160306,-2.114503816793893
1749747711.4574914,2025-06-13 00:01:51.457,30.506470588235295,0.181959326171875,0.09816226806640624,8.75320126953125,114.77099236641222,-1.9312977099236641,-2.1068702290076335
1749747711.4671707,2025-06-13 00:01:51.467,31.91823529411765,0.23223756103515625,0.1388636962890625,8.88009395751953,114.67175572519083,-0.2824427480916031,-2.1603053435114505
1749747711.4769225,2025-06-13 00:01:51.476,31.306470588235296,0.2442085693359375,-0.00239420166015625,8.590395556640624,114.79389312977099,0.15267175572519084,-2.33587786259542
1749747711.4865751,2025-06-13 00:01:51.486,31.259411764705884,0.19153613281249998,0.009576806640625,8.671798413085938,114.70992366412214,-0.25190839694656486,-2.0763358778625953
1749747711.4962444,2025-06-13 00:01:51.496,31.259411764705884,0.22505495605468748,0.08140285644531249,8.652644799804687,114.76335877862596,-0.15267175572519084,-2.213740458015267
1749747711.5058303,2025-06-13 00:01:51.505,30.553529411764707,0.15322890625,0.09337386474609374,8.863334545898438,114.94656488549619,-0.2595419847328244,-2.2061068702290076
1749747711.5154774,2025-06-13 00:01:51.515,30.506470588235295,0.258573779296875,0.062249243164062495,8.872911352539061,114.87022900763358,1.9083969465648856,-2.0839694656488548
1749747711.5265248,2025-06-13 00:01:51.526,31.965294117647062,0.2346317626953125,0.14604630126953125,8.729259252929687,114.79389312977099,1.8778625954198473,-2.2977099236641223
1749747711.5380728,2025-06-13 00:01:51.538,31.306470588235296,0.28969840087890625,0.086191259765625,8.741230261230468,114.8473282442748,-0.05343511450381679,-2.3587786259541983
1749747711.5478084,2025-06-13 00:01:51.547,31.965294117647062,0.28012159423828126,0.076614453125,8.786720092773438,114.87786259541984,0.1297709923664122,-2.2595419847328246
1749747711.5574946,2025-06-13 00:01:51.557,31.212352941176473,0.2609679809570312,0.03591302490234375,8.70771143798828,114.80916030534351,-1.9389312977099236,-2.015267175572519
1749747711.5671914,2025-06-13 00:01:51.567,31.16529411764706,0.17238251953125,0.016759411621093748,8.674192614746094,114.77099236641222,0.0916030534351145,-2.0076335877862594
1749747711.5770638,2025-06-13 00:01:51.577,30.506470588235295,0.23702596435546874,0.0,8.762778076171875,114.63358778625954,1.9083969465648856,-2.0763358778625953
1749747711.5867302,2025-06-13 00:01:51.586,31.259411764705884,0.2059013427734375,0.06464344482421874,8.772354882812499,114.50381679389314,-0.26717557251908397,-2.0381679389312977
1749747711.5964077,2025-06-13 00:01:51.596,31.306470588235296,0.2657563842773437,0.0718260498046875,8.743624462890624,114.78625954198473,1.8625954198473282,-1.8244274809160306
1749747711.6060472,2025-06-13 00:01:51.606,31.212352941176473,0.2346317626953125,-0.14125789794921875,8.645462194824217,114.86259541984732,-0.2824427480916031,-2.0229007633587788
1749747711.615694,2025-06-13 00:01:51.615,30.506470588235295,0.19153613281249998,0.14604630126953125,8.71489404296875,114.56488549618321,-0.05343511450381679,-1.9923664122137406
1749747711.6255472,2025-06-13 00:01:51.625,31.259411764705884,0.2154781494140625,0.05027823486328125,8.688557824707031,114.72519083969466,-0.16793893129770993,-2.1526717557251906
1749747711.6351922,2025-06-13 00:01:51.635,31.965294117647062,0.20350714111328125,0.02633621826171875,8.719682446289061,114.78625954198473,-0.2366412213740458,-2.045801526717557
1749747711.6451657,2025-06-13 00:01:51.645,31.306470588235296,0.24181436767578124,0.00718260498046875,8.611943371582031,114.85496183206106,1.8931297709923665,-2.0610687022900764
1749747711.6589727,2025-06-13 00:01:51.658,31.259411764705884,0.22505495605468748,0.09576806640624999,8.863334545898438,114.44274809160305,0.030534351145038167,-2.145038167938931
1749747711.6737204,2025-06-13 00:01:51.673,30.553529411764707,0.22026655273437498,0.08140285644531249,8.748412866210938,114.63358778625954,1.900763358778626,-2.0076335877862594
1749747711.6846402,2025-06-13 00:01:51.684,31.16529411764706,0.2537853759765625,0.06943184814453125,8.693346228027343,114.52671755725191,1.9236641221374047,-2.045801526717557
1749747711.6952558,2025-06-13 00:01:51.695,31.306470588235296,0.15562310791015624,0.009576806640625,8.717288244628906,114.69465648854961,-0.030534351145038167,-2.2977099236641223
1749747711.704879,2025-06-13 00:01:51.704,31.259411764705884,0.25139117431640623,0.055066638183593745,8.63827958984375,114.6412213740458,-0.12213740458015267,-2.0839694656488548
1749747711.7144973,2025-06-13 00:01:51.714,31.259411764705884,0.258573779296875,0.076614453125,8.602366564941406,114.73282442748092,0.05343511450381679,-2.1908396946564888
1749747711.7241788,2025-06-13 00:01:51.724,31.212352941176473,0.2657563842773437,0.028730419921875,8.683769421386717,114.72519083969466,0.16030534351145037,-2.2595419847328246
1749747711.7338972,2025-06-13 00:01:51.733,31.965294117647062,0.29927520751953124,0.1292868896484375,8.765172277832031,114.86259541984732,0.26717557251908397,-2.1908396946564888
1749747711.743466,2025-06-13 00:01:51.743,30.506470588235295,0.25139117431640623,0.040701428222656245,8.712499841308594,114.70992366412214,0.17557251908396945,-2.0763358778625953
1749747711.7543414,2025-06-13 00:01:51.754,31.259411764705884,0.19153613281249998,0.055066638183593745,8.678981018066406,114.78625954198473,0.08396946564885496,-2.1908396946564888
1749747711.7640026,2025-06-13 00:01:51.764,31.965294117647062,0.258573779296875,0.0430956298828125,8.774749084472656,114.82442748091603,0.04580152671755725,-1.9618320610687023
1749747711.773642,2025-06-13 00:01:51.773,31.259411764705884,0.17238251953125,0.0909796630859375,8.67658681640625,114.77862595419847,-0.1297709923664122,-2.099236641221374
1749747711.783293,2025-06-13 00:01:51.783,30.506470588235295,0.18435352783203124,0.02633621826171875,8.71489404296875,114.86259541984732,1.900763358778626,-2.1603053435114505
1749747711.7929113,2025-06-13 00:01:51.792,31.965294117647062,0.2442085693359375,0.0143652099609375,8.710105639648438,114.6412213740458,0.08396946564885496,-2.0763358778625953
1749747711.802544,2025-06-13 00:01:51.802,31.965294117647062,0.20350714111328125,0.028730419921875,8.614337573242187,114.74045801526718,-0.22137404580152673,-2.053435114503817
1749747711.8121738,2025-06-13 00:01:51.812,31.965294117647062,0.2753331909179687,0.09816226806640624,8.693346228027343,114.6412213740458,-0.1450381679389313,-2.3282442748091605
1749747711.8218186,2025-06-13 00:01:51.821,31.306470588235296,0.28730419921875,0.076614453125,8.779537487792968,114.66412213740458,-1.7938931297709924,-2.1374045801526718
1749747711.831471,2025-06-13 00:01:51.831,30.506470588235295,0.29448680419921874,0.0718260498046875,8.748412866210938,114.67175572519083,0.13740458015267176,-2.2519083969465647
1749747711.8411088,2025-06-13 00:01:51.841,31.259411764705884,0.24660277099609373,0.023942016601562498,8.604760766601562,114.87786259541984,0.17557251908396945,-0.04580152671755725
1749747711.8507547,2025-06-13 00:01:51.850,31.259411764705884,0.25139117431640623,-0.143652099609375,8.700528833007812,114.83969465648855,0.05343511450381679,-2.114503816793893
1749747711.8604195,2025-06-13 00:01:51.860,31.965294117647062,0.2154781494140625,0.055066638183593745,8.772354882812499,114.67175572519083,-1.9236641221374047,-2.099236641221374
1749747711.8715003,2025-06-13 00:01:51.871,31.212352941176473,0.229843359375,0.00239420166015625,8.844180932617187,114.6030534351145,-0.2900763358778626,-2.282442748091603
1749747711.8812037,2025-06-13 00:01:51.881,31.965294117647062,0.19632453613281248,0.06703764648437499,8.681375219726561,114.61832061068702,-1.9465648854961832,-0.04580152671755725
1749747711.8908093,2025-06-13 00:01:51.890,30.64764705882353,0.25139117431640623,0.0143652099609375,8.604760766601562,114.70992366412214,1.8244274809160306,-2.145038167938931
1749747711.9004557,2025-06-13 00:01:51.900,31.259411764705884,0.23702596435546874,0.01915361328125,8.834604125976561,114.56488549618321,-0.061068702290076333,-2.0381679389312977
1749747711.9100745,2025-06-13 00:01:51.910,30.553529411764707,0.24899697265624998,0.047884033203124995,8.722076647949219,114.70229007633588,0.061068702290076333,-2.16793893129771
1749747711.9198103,2025-06-13 00:01:51.919,31.306470588235296,0.24899697265624998,0.028730419921875,8.743624462890624,114.87022900763358,1.7786259541984732,-2.099236641221374
1749747711.9294364,2025-06-13 00:01:51.929,31.259411764705884,0.39264907226562495,0.055066638183593745,8.705317236328124,114.80916030534351,0.19083969465648856,-2.0763358778625953
1749747711.9390686,2025-06-13 00:01:51.939,31.259411764705884,0.40940848388671874,-0.0430956298828125,8.772354882812499,114.78625954198473,0.11450381679389313,-2.0916030534351147
1749747711.9487052,2025-06-13 00:01:51.948,31.353529411764708,0.40940848388671874,0.016759411621093748,8.796296899414061,114.6030534351145,0.21374045801526717,-2.145038167938931
1749747711.9583292,2025-06-13 00:01:51.958,31.353529411764708,0.2442085693359375,0.086191259765625,8.786720092773438,114.67175572519083,1.9083969465648856,-2.16793893129771
1749747711.968911,2025-06-13 00:01:51.968,31.306470588235296,0.29927520751953124,0.06703764648437499,8.717288244628906,114.55725190839695,-1.8931297709923665,-2.198473282442748
1749747711.9785657,2025-06-13 00:01:51.978,30.60058823529412,0.29927520751953124,0.13407529296874998,8.70771143798828,114.7557251908397,0.3053435114503817,-2.1068702290076335
1749747711.9882014,2025-06-13 00:01:51.988,31.40058823529412,0.258573779296875,0.086191259765625,8.789114294433594,114.62595419847328,-0.2748091603053435,-0.04580152671755725
1749747711.9978905,2025-06-13 00:01:51.997,30.60058823529412,0.2753331909179687,0.05027823486328125,8.755595471191405,114.74045801526718,0.183206106870229,-2.0229007633587788
1749747712.0075202,2025-06-13 00:01:52.007,31.353529411764708,0.22026655273437498,-0.09576806640624999,8.781931689453124,114.96946564885496,-1.8931297709923665,-2.015267175572519
1749747712.0171723,2025-06-13 00:01:52.017,31.259411764705884,0.229843359375,0.062249243164062495,8.698134631347656,114.83969465648855,-0.07633587786259542,-2.099236641221374
1749747712.0268142,2025-06-13 00:01:52.026,31.353529411764708,0.229843359375,0.0143652099609375,8.836998327636719,114.62595419847328,1.9083969465648856,-2.114503816793893
1749747712.0377162,2025-06-13 00:01:52.037,31.306470588235296,0.21308394775390624,0.05027823486328125,8.743624462890624,114.68702290076335,1.8702290076335877,-3.8931297709923665
1749747712.0526292,2025-06-13 00:01:52.052,31.353529411764708,0.2825157958984375,0.076614453125,8.779537487792968,114.79389312977099,0.05343511450381679,-3.8931297709923665
1749747712.0623996,2025-06-13 00:01:52.062,31.259411764705884,0.2561795776367187,0.06943184814453125,8.724470849609375,114.86259541984732,-1.83206106870229,-2.0916030534351147
1749747712.0720294,2025-06-13 00:01:52.072,31.353529411764708,0.2561795776367187,0.0430956298828125,8.801085302734375,114.63358778625954,0.0,-2.183206106870229
1749747712.081991,2025-06-13 00:01:52.081,31.353529411764708,0.23702596435546874,0.11252747802734374,8.798691101074219,114.49618320610686,0.19083969465648856,-1.9541984732824427
1749747712.0920982,2025-06-13 00:01:52.092,31.353529411764708,0.22266075439453123,0.0718260498046875,8.595183959960938,114.74809160305344,0.3816793893129771,-2.053435114503817
1749747712.1017241,2025-06-13 00:01:52.101,31.306470588235296,0.24181436767578124,-0.047884033203124995,8.832209924316405,114.74809160305344,1.9465648854961832,-2.2595419847328246
1749747712.1114256,2025-06-13 00:01:52.111,31.259411764705884,0.2705447875976562,0.01915361328125,8.688557824707031,114.59541984732824,-0.05343511450381679,-2.1297709923664123
1749747712.1211114,2025-06-13 00:01:52.121,31.306470588235296,0.22266075439453123,0.10773907470703124,8.710105639648438,114.8473282442748,-0.17557251908396945,-2.0381679389312977
1749747712.1307478,2025-06-13 00:01:52.130,31.259411764705884,0.22505495605468748,0.0143652099609375,8.662221606445312,114.77862595419847,-0.11450381679389313,-2.1297709923664123
1749747712.140763,2025-06-13 00:01:52.140,31.306470588235296,0.20350714111328125,0.0143652099609375,8.781931689453124,114.83206106870229,-0.03816793893129771,-1.9923664122137406
1749747712.150435,2025-06-13 00:01:52.150,31.259411764705884,0.2705447875976562,0.0047884033203125,8.652644799804687,114.70229007633588,-0.022900763358778626,-2.1297709923664123
1749747712.1600893,2025-06-13 00:01:52.160,31.306470588235296,0.229843359375,0.086191259765625,8.884882360839843,114.76335877862596,0.1450381679389313,-2.0229007633587788
1749747712.1697438,2025-06-13 00:01:52.169,31.259411764705884,0.229843359375,0.05746083984375,8.743624462890624,115.05343511450381,-1.8625954198473282,-2.045801526717557
1749747712.179376,2025-06-13 00:01:52.179,31.306470588235296,0.24660277099609373,0.047884033203124995,8.640673791503906,114.7175572519084,1.9389312977099236,-2.1526717557251906
1749747712.1890202,2025-06-13 00:01:52.189,31.353529411764708,0.2920926025390625,0.028730419921875,8.74601866455078,114.6412213740458,0.183206106870229,-2.053435114503817
1749747712.2005591,2025-06-13 00:01:52.200,31.259411764705884,0.20829554443359374,0.00239420166015625,8.671798413085938,114.58015267175573,-0.29770992366412213,-2.1603053435114505
1749747712.2102468,2025-06-13 00:01:52.210,31.306470588235296,0.17238251953125,0.08140285644531249,8.655039001464843,114.7557251908397,-0.09923664122137404,-1.900763358778626
1749747712.2198977,2025-06-13 00:01:52.219,31.306470588235296,0.20350714111328125,0.031124621582031248,8.736441857910156,114.65648854961832,-0.05343511450381679,-2.2213740458015265
1749747712.229526,2025-06-13 00:01:52.229,31.306470588235296,0.30406361083984373,0.05746083984375,8.736441857910156,114.81679389312977,-1.83206106870229,-1.984732824427481
1749747712.239195,2025-06-13 00:01:52.239,31.306470588235296,0.2442085693359375,0.11013327636718749,8.877699755859375,114.8854961832061,-0.21374045801526717,-2.030534351145038
1749747712.2488618,2025-06-13 00:01:52.248,31.353529411764708,0.30406361083984373,0.16280571289062498,8.667010009765624,114.70229007633588,-0.07633587786259542,-2.045801526717557
1749747712.2584918,2025-06-13 00:01:52.258,31.965294117647062,0.20829554443359374,0.0383072265625,8.717288244628906,114.68702290076335,0.19083969465648856,-2.068702290076336
1749747712.2681282,2025-06-13 00:01:52.268,31.353529411764708,0.24899697265624998,0.03591302490234375,8.86812294921875,114.80152671755725,0.015267175572519083,-2.2061068702290076
1749747712.2777429,2025-06-13 00:01:52.277,31.259411764705884,0.3447650390625,0.016759411621093748,8.88009395751953,114.58778625954199,0.1297709923664122,-2.0839694656488548
1749747712.2873406,2025-06-13 00:01:52.287,31.306470588235296,0.2561795776367187,0.009576806640625,8.781931689453124,114.80916030534351,0.17557251908396945,-2.3053435114503817
1749747712.2969642,2025-06-13 00:01:52.296,31.353529411764708,0.15322890625,0.12210428466796874,8.796296899414061,114.96946564885496,0.2595419847328244,-2.404580152671756
1749747712.306515,2025-06-13 00:01:52.306,31.353529411764708,0.239420166015625,0.0430956298828125,8.688557824707031,114.53435114503817,-0.05343511450381679,-2.282442748091603
1749747712.3161225,2025-06-13 00:01:52.316,31.353529411764708,0.143652099609375,0.0143652099609375,8.808267907714843,114.69465648854961,-0.22900763358778625,-2.312977099236641
1749747712.3257542,2025-06-13 00:01:52.325,31.259411764705884,0.20350714111328125,0.08858546142578125,8.726865051269531,114.8854961832061,-0.3816793893129771,-2.33587786259542
1749747712.335407,2025-06-13 00:01:52.335,31.353529411764708,0.258573779296875,0.0718260498046875,8.67658681640625,114.65648854961832,-0.3282442748091603,-2.0839694656488548
1749747712.345027,2025-06-13 00:01:52.345,31.40058823529412,0.258573779296875,0.05027823486328125,8.762778076171875,114.68702290076335,-0.030534351145038167,-2.0381679389312977
1749747712.3546617,2025-06-13 00:01:52.354,31.44764705882353,0.26815058593749996,0.0909796630859375,8.628702783203124,114.83206106870229,-1.8396946564885497,-2.2061068702290076
1749747712.3642852,2025-06-13 00:01:52.364,30.60058823529412,0.44053310546874996,0.08140285644531249,8.762778076171875,114.47328244274809,0.1984732824427481,-2.2290076335877864
1749747712.3739088,2025-06-13 00:01:52.373,31.353529411764708,0.229843359375,0.09337386474609374,8.736441857910156,114.98473282442748,0.4580152671755725,-2.0
1749747712.3835561,2025-06-13 00:01:52.383,31.306470588235296,0.22505495605468748,0.023942016601562498,8.722076647949219,114.80916030534351,-0.1984732824427481,-3.8396946564885495
1749747712.3941498,2025-06-13 00:01:52.394,31.306470588235296,0.25139117431640623,0.0526724365234375,8.80347950439453,114.62595419847328,0.16030534351145037,-2.2442748091603053
1749747712.4039242,2025-06-13 00:01:52.403,31.353529411764708,0.24660277099609373,0.0718260498046875,8.702923034667968,114.89312977099236,-1.9389312977099236,-2.030534351145038
1749747712.4135451,2025-06-13 00:01:52.413,31.353529411764708,0.24181436767578124,0.01915361328125,8.75320126953125,114.69465648854961,0.030534351145038167,-2.312977099236641
1749747712.4245548,2025-06-13 00:01:52.424,31.40058823529412,0.2154781494140625,0.040701428222656245,8.650250598144531,114.70229007633588,-0.1984732824427481,-2.381679389312977
1749747712.434378,2025-06-13 00:01:52.434,31.259411764705884,0.1580173095703125,0.00718260498046875,8.741230261230468,114.80916030534351,0.12213740458015267,-1.9541984732824427
1749747712.4440248,2025-06-13 00:01:52.444,31.40058823529412,0.19632453613281248,0.06464344482421874,8.724470849609375,114.72519083969466,0.0,-2.267175572519084
1749747712.4536707,2025-06-13 00:01:52.453,31.353529411764708,0.22744915771484372,0.14125789794921875,8.59278975830078,114.56488549618321,0.10687022900763359,-0.11450381679389313
1749747712.4632928,2025-06-13 00:01:52.463,31.259411764705884,0.20350714111328125,0.03591302490234375,8.781931689453124,115.0,-0.26717557251908397,-2.2290076335877864
1749747712.473754,2025-06-13 00:01:52.473,31.353529411764708,0.18914193115234373,0.040701428222656245,8.827421520996094,114.78625954198473,-0.25190839694656486,-2.114503816793893
1749747712.4834166,2025-06-13 00:01:52.483,31.353529411764708,0.2561795776367187,0.02154781494140625,8.786720092773438,114.81679389312977,0.03816793893129771,-2.0763358778625953
1749747712.4930744,2025-06-13 00:01:52.493,31.353529411764708,0.24899697265624998,0.040701428222656245,8.63827958984375,114.90076335877863,0.21374045801526717,-1.786259541984733
1749747712.5027645,2025-06-13 00:01:52.502,31.306470588235296,0.2442085693359375,0.0430956298828125,8.75320126953125,114.70992366412214,-1.9465648854961832,-2.1526717557251906
1749747712.5123482,2025-06-13 00:01:52.512,31.306470588235296,0.2346317626953125,0.01915361328125,8.757989672851561,114.74809160305344,-1.83206106870229,-0.007633587786259542
1749747712.5219965,2025-06-13 00:01:52.521,31.353529411764708,0.239420166015625,-0.07422025146484375,8.695740429687499,114.86259541984732,0.2748091603053435,-3.900763358778626
1749747712.5326428,2025-06-13 00:01:52.532,31.306470588235296,0.3064578125,0.040701428222656245,8.690952026367187,114.90076335877863,0.10687022900763359,-2.3053435114503817
1749747712.5422425,2025-06-13 00:01:52.542,31.306470588235296,0.16998831787109375,0.0143652099609375,8.611943371582031,114.92366412213741,0.16793893129770993,-2.145038167938931
1749747712.5519028,2025-06-13 00:01:52.551,31.44764705882353,0.2920926025390625,0.0430956298828125,8.647856396484375,114.78625954198473,-0.07633587786259542,-1.9618320610687023
1749747712.5615585,2025-06-13 00:01:52.561,31.353529411764708,0.22026655273437498,0.062249243164062495,8.863334545898438,114.44274809160305,-0.08396946564885496,-2.2061068702290076
1749747712.5712457,2025-06-13 00:01:52.571,31.306470588235296,0.22505495605468748,0.023942016601562498,8.700528833007812,114.70229007633588,0.25190839694656486,-2.122137404580153
1749747712.58244,2025-06-13 00:01:52.582,31.353529411764708,0.27293898925781246,0.01915361328125,8.738836059570312,114.66412213740458,0.183206106870229,-2.1908396946564888
1749747712.5924475,2025-06-13 00:01:52.592,31.306470588235296,0.23702596435546874,0.06943184814453125,8.75320126953125,114.59541984732824,0.22137404580152673,-2.213740458015267
1749747712.6020718,2025-06-13 00:01:52.602,31.40058823529412,0.3280056274414062,0.15083470458984374,8.724470849609375,114.70229007633588,0.11450381679389313,-2.2595419847328246
1749747712.611699,2025-06-13 00:01:52.611,31.353529411764708,0.23223756103515625,0.07422025146484375,8.736441857910156,114.70992366412214,0.030534351145038167,-2.183206106870229
1749747712.6231546,2025-06-13 00:01:52.623,31.306470588235296,0.229843359375,0.1005564697265625,8.762778076171875,114.63358778625954,0.26717557251908397,-2.183206106870229
1749747712.633128,2025-06-13 00:01:52.633,31.306470588235296,0.18435352783203124,0.016759411621093748,8.643067993164061,114.73282442748092,0.03816793893129771,-2.1526717557251906
1749747712.643932,2025-06-13 00:01:52.643,31.353529411764708,0.41898529052734373,-0.10773907470703124,8.86094034423828,114.55725190839695,1.6946564885496183,-2.183206106870229
1749747712.6535525,2025-06-13 00:01:52.653,31.306470588235296,0.2059013427734375,0.028730419921875,8.66940421142578,114.62595419847328,0.11450381679389313,-2.0229007633587788
1749747712.663169,2025-06-13 00:01:52.663,31.353529411764708,0.19871873779296872,0.06703764648437499,8.664615808105468,114.61068702290076,0.10687022900763359,-2.2748091603053435
1749747712.6727872,2025-06-13 00:01:52.672,31.353529411764708,0.21787235107421873,0.05027823486328125,8.63827958984375,114.72519083969466,-0.22137404580152673,-2.16793893129771
1749747712.682396,2025-06-13 00:01:52.682,31.306470588235296,0.3112462158203125,0.05027823486328125,8.712499841308594,114.81679389312977,-1.9312977099236641,-2.1068702290076335
1749747712.6920106,2025-06-13 00:01:52.692,31.353529411764708,0.25139117431640623,0.03591302490234375,8.75320126953125,114.65648854961832,-0.20610687022900764,-2.3206106870229006
1749747712.7016425,2025-06-13 00:01:52.701,31.306470588235296,0.29448680419921874,0.0430956298828125,8.736441857910156,114.54198473282443,-0.015267175572519083,-1.984732824427481
1749747712.7112875,2025-06-13 00:01:52.711,31.40058823529412,0.3016694091796875,0.062249243164062495,8.765172277832031,114.80916030534351,-1.9312977099236641,-2.198473282442748
1749747712.722167,2025-06-13 00:01:52.722,31.44764705882353,0.28490999755859375,0.01915361328125,8.757989672851561,114.57251908396947,0.1297709923664122,-2.045801526717557
1749747712.73179,2025-06-13 00:01:52.731,31.306470588235296,0.2657563842773437,0.0526724365234375,8.71489404296875,114.41984732824427,0.12213740458015267,-2.2442748091603053
1749747712.7414849,2025-06-13 00:01:52.741,31.259411764705884,0.17956512451171874,0.09337386474609374,8.884882360839843,114.54961832061069,0.183206106870229,-2.213740458015267
1749747712.75265,2025-06-13 00:01:52.752,31.306470588235296,0.2059013427734375,0.0430956298828125,8.698134631347656,114.7557251908397,0.04580152671755725,-2.122137404580153
1749747712.7623625,2025-06-13 00:01:52.762,31.353529411764708,0.17956512451171874,0.016759411621093748,8.772354882812499,114.70229007633588,-0.022900763358778626,-1.8625954198473282
1749747712.772008,2025-06-13 00:01:52.772,31.40058823529412,0.22744915771484372,0.06464344482421874,8.808267907714843,114.61832061068702,-0.19083969465648856,-2.236641221374046
1749747712.7826214,2025-06-13 00:01:52.782,31.306470588235296,0.229843359375,0.08379705810546874,8.700528833007812,114.66412213740458,0.1450381679389313,-2.282442748091603
1749747712.7924438,2025-06-13 00:01:52.792,31.44764705882353,0.23702596435546874,0.12689268798828124,8.690952026367187,114.70992366412214,0.03816793893129771,-2.2290076335877864
1749747712.8021255,2025-06-13 00:01:52.802,31.40058823529412,0.3064578125,0.05985504150390625,8.717288244628906,114.73282442748092,1.8244274809160306,-2.1908396946564888
1749747712.8117843,2025-06-13 00:01:52.811,31.306470588235296,0.2442085693359375,0.09576806640624999,8.683769421386717,114.41984732824427,-1.9236641221374047,-2.122137404580153
1749747712.8213947,2025-06-13 00:01:52.821,31.353529411764708,0.3232172241210937,0.0143652099609375,8.769960681152343,114.64885496183206,-0.19083969465648856,-2.0381679389312977
1749747712.8310137,2025-06-13 00:01:52.831,31.353529411764708,0.28969840087890625,0.08140285644531249,8.619125976562499,114.68702290076335,0.1297709923664122,-2.0610687022900764
1749747712.8406343,2025-06-13 00:01:52.840,31.353529411764708,0.21068974609375,-0.12210428466796874,8.702923034667968,114.67175572519083,-0.007633587786259542,-3.877862595419847
1749747712.850244,2025-06-13 00:01:52.850,31.353529411764708,0.2442085693359375,0.016759411621093748,8.702923034667968,114.80152671755725,-0.15267175572519084,-2.16793893129771
1749747712.8599396,2025-06-13 00:01:52.859,31.40058823529412,0.34237083740234375,0.05746083984375,8.710105639648438,114.54961832061069,-0.24427480916030533,-2.1603053435114505
1749747712.8695614,2025-06-13 00:01:52.869,31.44764705882353,0.26336218261718747,0.086191259765625,8.686163623046875,114.83206106870229,-0.12213740458015267,-2.351145038167939
1749747712.879227,2025-06-13 00:01:52.879,31.44764705882353,0.2346317626953125,0.0526724365234375,8.748412866210938,114.69465648854961,-0.030534351145038167,-2.099236641221374
1749747712.8890707,2025-06-13 00:01:52.889,31.40058823529412,0.2609679809570312,-0.12449848632812499,8.726865051269531,114.74045801526718,0.015267175572519083,-1.7938931297709924
1749747712.8987312,2025-06-13 00:01:52.898,31.306470588235296,0.22744915771484372,0.1197100830078125,8.801085302734375,114.83969465648855,0.07633587786259542,-2.2977099236641223
1749747712.9087465,2025-06-13 00:01:52.908,31.40058823529412,0.2059013427734375,0.01915361328125,8.609549169921875,114.54961832061069,-0.10687022900763359,-2.0
1749747712.9184306,2025-06-13 00:01:52.918,31.44764705882353,0.21787235107421873,0.040701428222656245,8.798691101074219,114.96946564885496,-0.1297709923664122,-2.2061068702290076
1749747712.928131,2025-06-13 00:01:52.928,31.306470588235296,0.26815058593749996,0.1484405029296875,8.59278975830078,114.77099236641222,0.015267175572519083,-2.351145038167939
1749747712.9377847,2025-06-13 00:01:52.937,31.40058823529412,0.24181436767578124,0.05027823486328125,8.67658681640625,114.62595419847328,-1.8931297709923665,-2.030534351145038
1749747712.9473264,2025-06-13 00:01:52.947,31.353529411764708,0.27293898925781246,0.08858546142578125,8.858546142578124,114.99236641221374,-0.04580152671755725,-2.2748091603053435
1749747712.957004,2025-06-13 00:01:52.957,31.353529411764708,0.22026655273437498,0.09337386474609374,8.690952026367187,114.77099236641222,-1.8549618320610688,-2.0229007633587788
1749747712.9666848,2025-06-13 00:01:52.966,31.494705882352942,0.2609679809570312,-0.10295067138671875,8.769960681152343,114.77099236641222,0.22900763358778625,-2.2290076335877864
1749747712.9764292,2025-06-13 00:01:52.976,31.353529411764708,0.3184288208007812,0.040701428222656245,8.870517150878905,114.6793893129771,0.007633587786259542,-1.9694656488549618
1749747712.986088,2025-06-13 00:01:52.986,31.353529411764708,0.2561795776367187,0.06943184814453125,8.743624462890624,114.70992366412214,0.20610687022900764,-2.1374045801526718
1749747712.9957192,2025-06-13 00:01:52.995,31.306470588235296,0.28730419921875,0.02154781494140625,8.602366564941406,114.53435114503817,-0.06870229007633588,-2.2213740458015265
1749747713.0057411,2025-06-13 00:01:53.005,31.353529411764708,0.2753331909179687,0.086191259765625,8.765172277832031,114.63358778625954,0.16030534351145037,-2.2519083969465647
1749747713.0153587,2025-06-13 00:01:53.015,31.40058823529412,0.16280571289062498,0.055066638183593745,8.774749084472656,114.70229007633588,1.9236641221374047,-2.1068702290076335
1749747713.0250206,2025-06-13 00:01:53.025,31.306470588235296,0.2609679809570312,-0.1292868896484375,8.877699755859375,114.64885496183206,1.8702290076335877,-2.236641221374046
1749747713.0346847,2025-06-13 00:01:53.034,31.353529411764708,0.20350714111328125,0.08379705810546874,8.71489404296875,114.6030534351145,-0.2900763358778626,-2.282442748091603
1749747713.0444493,2025-06-13 00:01:53.044,31.44764705882353,0.16280571289062498,0.047884033203124995,8.700528833007812,114.85496183206106,-0.45038167938931295,-2.1526717557251906
1749747713.0541124,2025-06-13 00:01:53.054,31.353529411764708,0.1580173095703125,0.08140285644531249,8.640673791503906,114.92366412213741,-0.2366412213740458,-2.2061068702290076
1749747713.063749,2025-06-13 00:01:53.063,31.353529411764708,0.17238251953125,0.0526724365234375,8.580818749999999,114.6793893129771,-1.702290076335878,-2.1068702290076335
1749747713.0767577,2025-06-13 00:01:53.076,31.353529411764708,0.3232172241210937,0.0143652099609375,8.621520178222656,114.62595419847328,-1.9312977099236641,-2.0381679389312977
1749747713.0863833,2025-06-13 00:01:53.086,31.353529411764708,0.2825157958984375,0.05985504150390625,8.765172277832031,114.55725190839695,-1.916030534351145,-2.236641221374046
1749747713.0960178,2025-06-13 00:01:53.096,31.353529411764708,0.29927520751953124,0.009576806640625,8.757989672851561,114.67175572519083,-0.16793893129770993,-2.1908396946564888
1749747713.105664,2025-06-13 00:01:53.105,31.353529411764708,0.26815058593749996,0.07900865478515624,8.702923034667968,114.58015267175573,-1.8549618320610688,-2.045801526717557
1749747713.1152904,2025-06-13 00:01:53.115,31.353529411764708,0.28490999755859375,0.055066638183593745,8.683769421386717,114.72519083969466,-0.061068702290076333,-2.2442748091603053
1749747713.1249194,2025-06-13 00:01:53.124,31.353529411764708,0.21787235107421873,0.028730419921875,8.731653454589843,114.67175572519083,-0.08396946564885496,-2.1526717557251906
1749747713.134602,2025-06-13 00:01:53.134,31.494705882352942,0.20350714111328125,0.11731588134765625,8.607154968261717,114.67175572519083,-0.030534351145038167,-2.0076335877862594
1749747713.1442418,2025-06-13 00:01:53.144,31.353529411764708,0.23702596435546874,0.0430956298828125,8.765172277832031,114.70229007633588,-0.19083969465648856,-2.183206106870229
1749747713.1538856,2025-06-13 00:01:53.153,31.40058823529412,0.20350714111328125,0.06943184814453125,8.698134631347656,114.67175572519083,0.11450381679389313,-2.3587786259541983
1749747713.1635053,2025-06-13 00:01:53.163,31.44764705882353,0.2059013427734375,0.040701428222656245,8.645462194824217,114.51908396946565,1.8625954198473282,-2.2748091603053435
1749747713.1731372,2025-06-13 00:01:53.173,31.259411764705884,0.2561795776367187,0.05985504150390625,8.863334545898438,114.66412213740458,1.900763358778626,-2.0381679389312977
1749747713.1828456,2025-06-13 00:01:53.182,31.40058823529412,0.23702596435546874,-0.00239420166015625,8.729259252929687,114.85496183206106,0.030534351145038167,-2.0229007633587788
1749747713.1927025,2025-06-13 00:01:53.192,31.306470588235296,0.2753331909179687,0.03591302490234375,8.798691101074219,114.56488549618321,-0.21374045801526717,-2.267175572519084
1749747713.2023551,2025-06-13 00:01:53.202,31.494705882352942,0.277727392578125,0.0526724365234375,8.609549169921875,114.83969465648855,0.1450381679389313,-2.0916030534351147
1749747713.2120895,2025-06-13 00:01:53.212,31.40058823529412,0.28730419921875,-0.06943184814453125,8.619125976562499,114.87786259541984,-0.1450381679389313,-2.068702290076336
1749747713.2217479,2025-06-13 00:01:53.221,31.40058823529412,0.26336218261718747,0.0,8.748412866210938,114.81679389312977,0.06870229007633588,-2.1297709923664123
1749747713.23138,2025-06-13 00:01:53.231,31.353529411764708,0.2753331909179687,0.016759411621093748,8.70771143798828,114.77862595419847,0.2366412213740458,-2.2290076335877864
1749747713.2410204,2025-06-13 00:01:53.241,31.353529411764708,0.2442085693359375,0.105344873046875,8.690952026367187,114.81679389312977,0.1297709923664122,-2.0839694656488548
1749747713.250655,2025-06-13 00:01:53.250,31.353529411764708,0.1867477294921875,0.047884033203124995,8.79150849609375,114.67175572519083,-0.183206106870229,-2.1908396946564888
1749747713.261509,2025-06-13 00:01:53.261,31.44764705882353,0.2442085693359375,0.05985504150390625,8.793902697753905,114.77862595419847,-0.16793893129770993,-2.053435114503817
1749747713.271185,2025-06-13 00:01:53.271,31.40058823529412,0.23223756103515625,0.062249243164062495,8.686163623046875,114.6412213740458,-0.061068702290076333,-2.351145038167939
1749747713.280818,2025-06-13 00:01:53.280,31.40058823529412,0.24660277099609373,0.055066638183593745,8.738836059570312,114.57251908396947,-1.9389312977099236,-2.1374045801526718
1749747713.292157,2025-06-13 00:01:53.292,31.40058823529412,0.23702596435546874,0.040701428222656245,8.757989672851561,114.94656488549619,0.15267175572519084,-1.9465648854961832
1749747713.301816,2025-06-13 00:01:53.301,31.44764705882353,0.258573779296875,0.07900865478515624,8.767566479492187,114.73282442748092,0.183206106870229,-2.015267175572519
1749747713.3114417,2025-06-13 00:01:53.311,31.44764705882353,0.3327940307617187,-0.016759411621093748,8.75320126953125,114.66412213740458,0.25190839694656486,-2.2748091603053435
1749747713.321109,2025-06-13 00:01:53.321,31.306470588235296,0.2657563842773437,0.011971008300781249,8.817844714355468,114.72519083969466,0.2595419847328244,-2.198473282442748
1749747713.330723,2025-06-13 00:01:53.330,31.40058823529412,0.44532150878906246,0.11252747802734374,8.619125976562499,114.94656488549619,-0.09923664122137404,-0.15267175572519084
1749747713.3403702,2025-06-13 00:01:53.340,31.353529411764708,0.24181436767578124,0.05027823486328125,8.839392529296875,114.66412213740458,-0.04580152671755725,-2.1297709923664123
1749747713.3499908,2025-06-13 00:01:53.349,31.353529411764708,0.21308394775390624,0.13407529296874998,8.683769421386717,114.76335877862596,-0.07633587786259542,-2.1526717557251906
1749747713.359617,2025-06-13 00:01:53.359,31.353529411764708,0.24181436767578124,-0.11013327636718749,8.80347950439453,114.51908396946565,-0.15267175572519084,-2.1068702290076335
1749747713.369249,2025-06-13 00:01:53.369,31.40058823529412,0.24181436767578124,0.05985504150390625,8.717288244628906,114.50381679389314,-0.05343511450381679,-2.1603053435114505
1749747713.378869,2025-06-13 00:01:53.378,31.44764705882353,0.23702596435546874,0.1388636962890625,8.621520178222656,114.8854961832061,-1.7633587786259541,-2.0839694656488548
1749747713.3898306,2025-06-13 00:01:53.389,31.353529411764708,0.24181436767578124,0.062249243164062495,8.74601866455078,114.74045801526718,-1.900763358778626,-1.9770992366412214
1749747713.399856,2025-06-13 00:01:53.399,31.353529411764708,0.2657563842773437,0.0047884033203125,8.774749084472656,114.54961832061069,-0.16030534351145037,-2.145038167938931
1749747713.4094973,2025-06-13 00:01:53.409,31.259411764705884,0.21787235107421873,0.0047884033203125,8.700528833007812,114.57251908396947,-0.07633587786259542,-2.16793893129771
1749747713.4191327,2025-06-13 00:01:53.419,31.44764705882353,0.20829554443359374,0.031124621582031248,8.801085302734375,114.67175572519083,-0.06870229007633588,-2.1068702290076335
1749747713.4294856,2025-06-13 00:01:53.429,31.40058823529412,0.25139117431640623,0.10295067138671875,8.738836059570312,114.79389312977099,-0.42748091603053434,-2.1603053435114505
1749747713.4390535,2025-06-13 00:01:53.439,31.44764705882353,0.2442085693359375,0.055066638183593745,8.633491186523438,114.63358778625954,0.10687022900763359,-2.1526717557251906
1749747713.4492345,2025-06-13 00:01:53.449,31.40058823529412,0.2825157958984375,0.0143652099609375,8.67658681640625,114.4885496183206,-1.8549618320610688,-2.0381679389312977
1749747713.4597318,2025-06-13 00:01:53.459,31.353529411764708,0.26336218261718747,0.055066638183593745,8.66940421142578,114.65648854961832,-0.015267175572519083,-2.236641221374046
1749747713.4693658,2025-06-13 00:01:53.469,31.44764705882353,0.21068974609375,0.023942016601562498,8.743624462890624,114.46564885496183,0.022900763358778626,-2.198473282442748
1749747713.4790025,2025-06-13 00:01:53.479,31.44764705882353,0.15322890625,0.028730419921875,8.705317236328124,114.61832061068702,-0.22137404580152673,-1.9770992366412214
1749747713.4886367,2025-06-13 00:01:53.488,31.353529411764708,0.20350714111328125,0.14604630126953125,8.865728747558594,114.74809160305344,0.12213740458015267,-2.0076335877862594
1749747713.4982631,2025-06-13 00:01:53.498,31.353529411764708,0.19393033447265623,0.06943184814453125,8.700528833007812,114.90076335877863,1.9236641221374047,-2.282442748091603
1749747713.507926,2025-06-13 00:01:53.507,31.494705882352942,0.19632453613281248,0.02633621826171875,8.67658681640625,114.70992366412214,-0.3893129770992366,-3.8702290076335877
1749747713.5175548,2025-06-13 00:01:53.517,31.44764705882353,0.229843359375,0.04548983154296875,8.71489404296875,114.7175572519084,0.24427480916030533,-2.1374045801526718
1749747713.5272715,2025-06-13 00:01:53.527,31.44764705882353,0.28490999755859375,0.05985504150390625,8.66940421142578,114.76335877862596,-1.9312977099236641,-2.3435114503816794
1749747713.536964,2025-06-13 00:01:53.536,31.44764705882353,0.22505495605468748,0.05027823486328125,8.671798413085938,114.90839694656489,0.1450381679389313,-2.0610687022900764
1749747713.546613,2025-06-13 00:01:53.546,31.44764705882353,0.2825157958984375,0.09337386474609374,8.712499841308594,114.65648854961832,-1.9389312977099236,-2.2213740458015265
1749747713.5562792,2025-06-13 00:01:53.556,31.40058823529412,0.2346317626953125,0.07422025146484375,8.738836059570312,114.61832061068702,0.061068702290076333,-2.33587786259542
1749747713.565901,2025-06-13 00:01:53.565,31.40058823529412,0.181959326171875,0.047884033203124995,8.827421520996094,115.01526717557252,0.2824427480916031,-1.9923664122137406
1749747713.5755653,2025-06-13 00:01:53.575,31.40058823529412,0.26815058593749996,0.05027823486328125,8.722076647949219,114.79389312977099,-1.8778625954198473,-2.267175572519084
1749747713.5851884,2025-06-13 00:01:53.585,31.44764705882353,0.29448680419921874,0.040701428222656245,8.602366564941406,114.97709923664122,0.19083969465648856,-2.0229007633587788
1749747713.594864,2025-06-13 00:01:53.594,31.353529411764708,0.239420166015625,0.0143652099609375,8.726865051269531,114.80152671755725,0.08396946564885496,-2.2061068702290076
1749747713.604479,2025-06-13 00:01:53.604,31.40058823529412,0.1771709228515625,-0.009576806640625,8.882488159179687,114.77862595419847,1.9465648854961832,-2.1068702290076335
1749747713.6141148,2025-06-13 00:01:53.614,31.40058823529412,0.28490999755859375,0.06703764648437499,8.712499841308594,115.0,-0.22137404580152673,-2.213740458015267
1749747713.6244895,2025-06-13 00:01:53.624,31.40058823529412,0.24660277099609373,0.14604630126953125,8.678981018066406,114.56488549618321,-0.1984732824427481,-1.7633587786259541
1749747713.6342387,2025-06-13 00:01:53.634,31.353529411764708,0.2561795776367187,0.076614453125,8.585607153320312,114.72519083969466,0.15267175572519084,-2.1297709923664123
1749747713.64443,2025-06-13 00:01:53.644,31.40058823529412,0.28012159423828126,0.062249243164062495,8.719682446289061,114.90076335877863,-0.06870229007633588,-2.1068702290076335
1749747713.654051,2025-06-13 00:01:53.654,31.541764705882354,0.201112939453125,0.05027823486328125,8.798691101074219,114.6793893129771,-1.9312977099236641,-2.0763358778625953
1749747713.6637752,2025-06-13 00:01:53.663,31.494705882352942,0.229843359375,0.05746083984375,8.710105639648438,114.6793893129771,1.900763358778626,-1.9923664122137406
1749747713.6733987,2025-06-13 00:01:53.673,31.44764705882353,0.1771709228515625,0.02633621826171875,8.781931689453124,114.76335877862596,0.21374045801526717,-2.16793893129771
1749747713.6830213,2025-06-13 00:01:53.683,31.44764705882353,0.28969840087890625,0.062249243164062495,8.786720092773438,114.6793893129771,0.015267175572519083,-2.236641221374046
1749747713.6926277,2025-06-13 00:01:53.692,31.353529411764708,0.25139117431640623,0.05985504150390625,8.626308581542968,114.58778625954199,0.2748091603053435,-2.2213740458015265
1749747713.7022362,2025-06-13 00:01:53.702,31.353529411764708,0.22026655273437498,0.0430956298828125,8.717288244628906,114.58778625954199,0.3053435114503817,-2.16793893129771
1749747713.7118452,2025-06-13 00:01:53.711,31.353529411764708,0.2825157958984375,0.08858546142578125,8.635885388183594,114.93129770992367,1.9312977099236641,-1.8931297709923665
1749747713.7214687,2025-06-13 00:01:53.721,31.44764705882353,0.18435352783203124,0.07422025146484375,8.882488159179687,114.69465648854961,0.022900763358778626,-1.9236641221374047
1749747713.7310808,2025-06-13 00:01:53.731,31.494705882352942,0.24181436767578124,0.05746083984375,8.731653454589843,114.80916030534351,0.08396946564885496,-2.183206106870229
1749747713.7406967,2025-06-13 00:01:53.740,31.494705882352942,0.2442085693359375,0.011971008300781249,8.698134631347656,114.83969465648855,-0.03816793893129771,-2.1908396946564888
1749747713.750307,2025-06-13 00:01:53.750,31.40058823529412,0.24660277099609373,0.031124621582031248,8.853757739257812,114.73282442748092,-0.2748091603053435,-2.0839694656488548
1749747713.7599313,2025-06-13 00:01:53.759,31.40058823529412,0.277727392578125,-0.07900865478515624,8.667010009765624,114.65648854961832,0.0916030534351145,-2.0610687022900764
1749747713.7695432,2025-06-13 00:01:53.769,31.44764705882353,0.22026655273437498,0.033518823242187495,8.712499841308594,114.85496183206106,-0.31297709923664124,-2.099236641221374
1749747713.7791884,2025-06-13 00:01:53.779,31.40058823529412,0.23223756103515625,-0.009576806640625,8.729259252929687,114.6793893129771,-0.12213740458015267,-2.282442748091603
1749747713.7887976,2025-06-13 00:01:53.788,31.40058823529412,0.25139117431640623,0.076614453125,8.729259252929687,114.78625954198473,0.20610687022900764,-2.0916030534351147
1749747713.7984357,2025-06-13 00:01:53.798,31.494705882352942,0.2753331909179687,0.08379705810546874,8.702923034667968,114.7557251908397,1.9083969465648856,-2.3740458015267176
1749747713.8080456,2025-06-13 00:01:53.808,31.494705882352942,0.19393033447265623,0.00718260498046875,8.846575134277343,114.5114503816794,1.7251908396946565,-3.885496183206107
1749747713.81768,2025-06-13 00:01:53.817,31.40058823529412,0.17477672119140625,0.05027823486328125,8.698134631347656,114.73282442748092,0.06870229007633588,-2.1297709923664123
1749747713.8273456,2025-06-13 00:01:53.827,31.44764705882353,0.23702596435546874,0.0526724365234375,8.662221606445312,114.6412213740458,-0.21374045801526717,-3.900763358778626
1749747713.8369675,2025-06-13 00:01:53.836,31.40058823529412,0.258573779296875,0.06943184814453125,8.70771143798828,114.53435114503817,0.10687022900763359,-2.015267175572519
1749747713.8466394,2025-06-13 00:01:53.846,31.40058823529412,0.2537853759765625,-0.1005564697265625,8.748412866210938,114.80916030534351,-1.9236641221374047,-1.9770992366412214
1749747713.85628,2025-06-13 00:01:53.856,31.44764705882353,0.2561795776367187,0.04548983154296875,8.781931689453124,114.67175572519083,-1.9541984732824427,-2.2290076335877864
1749747713.8659167,2025-06-13 00:01:53.865,31.541764705882354,0.239420166015625,0.06464344482421874,8.655039001464843,114.77099236641222,0.2595419847328244,-2.114503816793893
1749747713.8755312,2025-06-13 00:01:53.875,31.40058823529412,0.2825157958984375,0.047884033203124995,8.882488159179687,114.66412213740458,-1.9236641221374047,-2.114503816793893
1749747713.8869271,2025-06-13 00:01:53.886,31.44764705882353,0.20350714111328125,0.0718260498046875,8.702923034667968,114.69465648854961,-0.2824427480916031,-2.3740458015267176
1749747713.8966284,2025-06-13 00:01:53.896,31.353529411764708,0.2059013427734375,0.055066638183593745,8.762778076171875,114.93129770992367,0.17557251908396945,-2.1297709923664123
1749747713.906358,2025-06-13 00:01:53.906,31.494705882352942,0.20829554443359374,0.10773907470703124,8.877699755859375,114.80916030534351,-0.12213740458015267,-1.816793893129771
1749747713.9160097,2025-06-13 00:01:53.916,31.40058823529412,0.21787235107421873,0.08379705810546874,8.607154968261717,114.68702290076335,-0.10687022900763359,-2.2061068702290076
1749747713.925678,2025-06-13 00:01:53.925,31.44764705882353,0.2442085693359375,0.08858546142578125,8.690952026367187,114.83969465648855,-1.8778625954198473,-2.099236641221374
1749747713.9355419,2025-06-13 00:01:53.935,31.40058823529412,0.181959326171875,0.08140285644531249,8.84178673095703,114.83206106870229,0.022900763358778626,-2.16793893129771
1749747713.945804,2025-06-13 00:01:53.945,31.44764705882353,0.28490999755859375,0.07422025146484375,8.805873706054687,114.86259541984732,-1.9541984732824427,-2.099236641221374
1749747713.9554956,2025-06-13 00:01:53.955,31.494705882352942,0.29927520751953124,0.033518823242187495,8.774749084472656,114.66412213740458,0.1450381679389313,-2.2977099236641223
1749747713.9653106,2025-06-13 00:01:53.965,31.40058823529412,0.22505495605468748,0.055066638183593745,8.621520178222656,114.78625954198473,0.022900763358778626,-2.3206106870229006
1749747713.9749784,2025-06-13 00:01:53.974,31.40058823529412,0.25139117431640623,0.05746083984375,8.815450512695312,114.6412213740458,0.022900763358778626,-2.3969465648854964
1749747713.9846008,2025-06-13 00:01:53.984,31.44764705882353,0.22744915771484372,0.05746083984375,8.724470849609375,114.7175572519084,0.05343511450381679,-2.3053435114503817
1749747713.9942436,2025-06-13 00:01:53.994,31.40058823529412,0.23702596435546874,0.040701428222656245,8.662221606445312,114.95419847328245,-0.3816793893129771,-2.122137404580153
1749747714.0038702,2025-06-13 00:01:54.003,31.44764705882353,0.2154781494140625,0.02154781494140625,8.66940421142578,114.96946564885496,-0.022900763358778626,-2.2977099236641223
1749747714.0135064,2025-06-13 00:01:54.013,31.44764705882353,0.2537853759765625,0.0526724365234375,8.63827958984375,114.82442748091603,-0.4198473282442748,-2.198473282442748
1749747714.0231547,2025-06-13 00:01:54.023,31.353529411764708,0.20829554443359374,0.06464344482421874,8.702923034667968,114.68702290076335,-0.1984732824427481,-2.16793893129771
1749747714.0327606,2025-06-13 00:01:54.032,31.44764705882353,0.21308394775390624,0.0430956298828125,8.683769421386717,114.38167938931298,-0.20610687022900764,-2.2519083969465647
1749747714.0445027,2025-06-13 00:01:54.044,31.494705882352942,0.23223756103515625,0.05027823486328125,8.834604125976561,114.74809160305344,1.9236641221374047,-2.2061068702290076
1749747714.0541234,2025-06-13 00:01:54.054,31.44764705882353,0.26815058593749996,0.055066638183593745,8.820238916015624,114.52671755725191,-0.4122137404580153,-2.099236641221374
1749747714.0637612,2025-06-13 00:01:54.063,31.40058823529412,0.19871873779296872,0.062249243164062495,8.82263311767578,114.54198473282443,1.916030534351145,-1.984732824427481
1749747714.073445,2025-06-13 00:01:54.073,31.494705882352942,0.16519991455078123,0.04548983154296875,8.659827404785156,114.8854961832061,-1.8854961832061068,-2.015267175572519
1749747714.0844214,2025-06-13 00:01:54.084,31.44764705882353,0.277727392578125,0.0526724365234375,8.808267907714843,114.65648854961832,-0.03816793893129771,-2.0916030534351147
1749747714.094094,2025-06-13 00:01:54.094,31.44764705882353,0.20829554443359374,0.06703764648437499,8.757989672851561,114.83206106870229,-0.03816793893129771,-1.7938931297709924
1749747714.1037192,2025-06-13 00:01:54.103,31.44764705882353,0.2705447875976562,0.033518823242187495,8.767566479492187,114.77862595419847,-0.06870229007633588,-2.1908396946564888
1749747714.1133568,2025-06-13 00:01:54.113,31.40058823529412,0.2561795776367187,0.07900865478515624,8.595183959960938,114.61832061068702,1.9236641221374047,-2.145038167938931
1749747714.1233318,2025-06-13 00:01:54.123,31.494705882352942,0.18435352783203124,0.05985504150390625,8.645462194824217,114.44274809160305,-0.16793893129770993,-2.0
1749747714.1340656,2025-06-13 00:01:54.134,31.44764705882353,0.2920926025390625,0.05746083984375,8.755595471191405,114.58778625954199,-0.16030534351145037,-2.0763358778625953
1749747714.143852,2025-06-13 00:01:54.143,31.44764705882353,0.29448680419921874,0.016759411621093748,8.722076647949219,114.63358778625954,0.2900763358778626,-2.114503816793893
1749747714.1536562,2025-06-13 00:01:54.153,31.44764705882353,0.239420166015625,0.0526724365234375,8.667010009765624,114.69465648854961,-0.05343511450381679,-2.0763358778625953
1749747714.1632924,2025-06-13 00:01:54.163,31.40058823529412,0.29927520751953124,0.05027823486328125,8.722076647949219,114.87786259541984,-0.16793893129770993,-2.1526717557251906
1749747714.1729066,2025-06-13 00:01:54.172,31.44764705882353,0.24181436767578124,0.05746083984375,8.681375219726561,114.67175572519083,-0.03816793893129771,-2.122137404580153
1749747714.1825259,2025-06-13 00:01:54.182,31.353529411764708,0.2537853759765625,0.02154781494140625,8.755595471191405,114.80152671755725,-0.1450381679389313,-2.099236641221374
1749747714.1926365,2025-06-13 00:01:54.192,31.44764705882353,0.20350714111328125,0.05027823486328125,8.750807067871094,114.6793893129771,-0.07633587786259542,-2.236641221374046
1749747714.203385,2025-06-13 00:01:54.203,31.494705882352942,0.19153613281249998,0.04548983154296875,8.741230261230468,114.93893129770993,-1.9389312977099236,-2.236641221374046
1749747714.2147558,2025-06-13 00:01:54.214,31.40058823529412,0.19153613281249998,-0.15322890625,8.63827958984375,114.6793893129771,0.04580152671755725,-1.9618320610687023
1749747714.2249434,2025-06-13 00:01:54.224,31.494705882352942,0.277727392578125,0.04548983154296875,8.836998327636719,114.66412213740458,-1.83206106870229,-2.1603053435114505
1749747714.2347102,2025-06-13 00:01:54.234,31.40058823529412,0.2825157958984375,0.03591302490234375,8.688557824707031,114.74809160305344,-0.15267175572519084,-2.0916030534351147
1749747714.2446356,2025-06-13 00:01:54.244,31.541764705882354,0.17238251953125,0.01915361328125,8.865728747558594,114.68702290076335,-0.2366412213740458,-2.122137404580153
1749747714.2542646,2025-06-13 00:01:54.254,31.494705882352942,0.1771709228515625,0.0718260498046875,8.611943371582031,114.65648854961832,-1.8931297709923665,-2.1526717557251906
1749747714.2639158,2025-06-13 00:01:54.263,31.40058823529412,0.28012159423828126,0.09816226806640624,8.793902697753905,114.73282442748092,0.030534351145038167,-1.9541984732824427
1749747714.2761216,2025-06-13 00:01:54.276,31.44764705882353,0.20350714111328125,0.0143652099609375,8.70771143798828,114.87786259541984,-0.19083969465648856,-2.183206106870229
1749747714.2870054,2025-06-13 00:01:54.287,31.44764705882353,0.239420166015625,0.0383072265625,8.757989672851561,114.80152671755725,-0.0916030534351145,-2.3282442748091605
1749747714.2965796,2025-06-13 00:01:54.296,31.40058823529412,0.2825157958984375,0.03591302490234375,8.74601866455078,114.91603053435115,0.04580152671755725,-2.0381679389312977
1749747714.306211,2025-06-13 00:01:54.306,31.44764705882353,0.4285620971679687,0.062249243164062495,8.870517150878905,114.91603053435115,0.12213740458015267,-2.16793893129771
1749747714.3158712,2025-06-13 00:01:54.315,31.44764705882353,0.296881005859375,0.11252747802734374,8.793902697753905,114.62595419847328,0.32061068702290074,-2.053435114503817
1749747714.325542,2025-06-13 00:01:54.325,31.353529411764708,0.277727392578125,0.07900865478515624,8.743624462890624,114.6030534351145,-1.7404580152671756,-2.312977099236641
1749747714.335177,2025-06-13 00:01:54.335,31.44764705882353,0.2825157958984375,0.076614453125,8.695740429687499,114.86259541984732,0.12213740458015267,-0.007633587786259542
1749747714.3449013,2025-06-13 00:01:54.344,31.494705882352942,0.30406361083984373,0.08858546142578125,8.884882360839843,114.68702290076335,0.2366412213740458,-2.045801526717557
1749747714.3545234,2025-06-13 00:01:54.354,31.40058823529412,0.23702596435546874,0.03591302490234375,8.734047656249999,114.87786259541984,0.21374045801526717,-2.1908396946564888
1749747714.3641586,2025-06-13 00:01:54.364,31.40058823529412,0.23702596435546874,-0.03591302490234375,8.805873706054687,114.67175572519083,-0.16030534351145037,-2.0610687022900764
1749747714.375831,2025-06-13 00:01:54.375,31.40058823529412,0.2442085693359375,0.05746083984375,8.786720092773438,114.74045801526718,0.2366412213740458,-0.030534351145038167
1749747714.3855915,2025-06-13 00:01:54.385,31.541764705882354,0.15322890625,0.031124621582031248,8.700528833007812,114.67175572519083,-1.9541984732824427,-2.0763358778625953
1749747714.3952606,2025-06-13 00:01:54.395,31.44764705882353,0.25139117431640623,0.05027823486328125,8.70771143798828,114.69465648854961,-1.83206106870229,-2.068702290076336
1749747714.4048855,2025-06-13 00:01:54.404,31.494705882352942,0.15322890625,0.05027823486328125,8.595183959960938,114.76335877862596,0.1297709923664122,-2.0076335877862594
1749747714.414551,2025-06-13 00:01:54.414,31.494705882352942,0.23223756103515625,0.08140285644531249,8.789114294433594,114.7557251908397,-0.08396946564885496,-2.3282442748091605
1749747714.4242234,2025-06-13 00:01:54.424,31.494705882352942,0.181959326171875,0.047884033203124995,8.836998327636719,114.63358778625954,-0.1984732824427481,-2.1068702290076335
1749747714.4338818,2025-06-13 00:01:54.433,31.44764705882353,0.2537853759765625,0.0718260498046875,8.765172277832031,114.74809160305344,-0.22137404580152673,-2.2595419847328246
1749747714.4435565,2025-06-13 00:01:54.443,31.44764705882353,0.18914193115234373,0.08379705810546874,8.659827404785156,114.77862595419847,-0.030534351145038167,-1.9465648854961832
1749747714.4567199,2025-06-13 00:01:54.456,31.494705882352942,0.258573779296875,0.15083470458984374,8.712499841308594,114.80152671755725,-0.1984732824427481,-2.0381679389312977
1749747714.4677026,2025-06-13 00:01:54.467,31.494705882352942,0.2753331909179687,0.07422025146484375,8.67658681640625,114.77862595419847,-0.06870229007633588,-2.351145038167939
1749747714.4774625,2025-06-13 00:01:54.477,31.588823529411766,0.24181436767578124,0.0718260498046875,8.731653454589843,114.8473282442748,-1.8702290076335877,-2.2061068702290076
1749747714.4872942,2025-06-13 00:01:54.487,31.44764705882353,0.239420166015625,0.04548983154296875,8.590395556640624,114.6793893129771,-0.10687022900763359,-1.984732824427481
1749747714.4969459,2025-06-13 00:01:54.496,31.494705882352942,0.20829554443359374,0.0526724365234375,8.590395556640624,114.87022900763358,0.12213740458015267,-2.2748091603053435
1749747714.5067163,2025-06-13 00:01:54.506,31.44764705882353,0.24899697265624998,0.06943184814453125,8.626308581542968,114.4885496183206,0.26717557251908397,-2.213740458015267
1749747714.5163648,2025-06-13 00:01:54.516,31.541764705882354,0.2561795776367187,0.08858546142578125,8.688557824707031,114.7175572519084,0.08396946564885496,-2.0839694656488548
1749747714.5260825,2025-06-13 00:01:54.526,31.40058823529412,0.3016694091796875,0.1197100830078125,8.875305554199219,114.83206106870229,0.07633587786259542,-3.900763358778626
1749747714.5357223,2025-06-13 00:01:54.535,31.44764705882353,0.2561795776367187,-0.11252747802734374,8.757989672851561,114.46564885496183,1.8854961832061068,-2.145038167938931
1749747714.5453851,2025-06-13 00:01:54.545,31.353529411764708,0.23223756103515625,0.040701428222656245,8.604760766601562,114.7175572519084,0.06870229007633588,-2.351145038167939
1749747714.5550067,2025-06-13 00:01:54.555,31.541764705882354,0.258573779296875,0.062249243164062495,8.731653454589843,114.73282442748092,0.05343511450381679,-1.9694656488549618
1749747714.5646799,2025-06-13 00:01:54.564,31.353529411764708,0.3064578125,0.0383072265625,8.836998327636719,114.61832061068702,0.13740458015267176,-2.1374045801526718
1749747714.5743349,2025-06-13 00:01:54.574,31.494705882352942,0.23702596435546874,0.0718260498046875,8.717288244628906,114.74809160305344,-0.13740458015267176,-2.2061068702290076
1749747714.58402,2025-06-13 00:01:54.584,31.44764705882353,0.24181436767578124,0.0526724365234375,8.781931689453124,114.58015267175573,0.44274809160305345,-2.1526717557251906
1749747714.5987024,2025-06-13 00:01:54.598,31.353529411764708,0.2154781494140625,0.0909796630859375,8.80347950439453,114.63358778625954,0.22900763358778625,-2.068702290076336
1749747714.6091802,2025-06-13 00:01:54.609,31.494705882352942,0.239420166015625,0.06943184814453125,8.664615808105468,114.48091603053435,-0.06870229007633588,-2.045801526717557
1749747714.6244202,2025-06-13 00:01:54.624,31.494705882352942,0.25139117431640623,0.06464344482421874,8.815450512695312,114.57251908396947,0.25190839694656486,-2.16793893129771
1749747714.6354053,2025-06-13 00:01:54.635,31.40058823529412,0.16998831787109375,0.0526724365234375,8.724470849609375,114.69465648854961,0.030534351145038167,-2.2213740458015265
1749747714.6502795,2025-06-13 00:01:54.650,31.494705882352942,0.4213794921875,0.040701428222656245,8.772354882812499,114.70992366412214,-1.8549618320610688,-2.1374045801526718
1749747714.6599002,2025-06-13 00:01:54.659,31.494705882352942,0.4213794921875,0.0430956298828125,8.815450512695312,114.79389312977099,0.35877862595419846,-0.13740458015267176
1749747714.6695747,2025-06-13 00:01:54.669,31.40058823529412,0.2154781494140625,0.047884033203124995,8.659827404785156,114.6412213740458,0.25190839694656486,-2.0763358778625953
1749747714.6797004,2025-06-13 00:01:54.679,31.494705882352942,0.277727392578125,-0.00239420166015625,8.82263311767578,114.9618320610687,1.900763358778626,-2.114503816793893
1749747714.6893213,2025-06-13 00:01:54.689,31.353529411764708,0.30406361083984373,0.03591302490234375,8.705317236328124,114.6030534351145,-0.04580152671755725,-2.099236641221374
1749747714.6989393,2025-06-13 00:01:54.698,31.44764705882353,0.21787235107421873,0.062249243164062495,8.700528833007812,114.67175572519083,-0.2595419847328244,-2.145038167938931
1749747714.7086043,2025-06-13 00:01:54.708,31.40058823529412,0.258573779296875,0.12689268798828124,8.74601866455078,114.51908396946565,-0.11450381679389313,-2.053435114503817
1749747714.7182224,2025-06-13 00:01:54.718,31.541764705882354,0.2059013427734375,0.086191259765625,8.66940421142578,114.6793893129771,-0.21374045801526717,-2.183206106870229
1749747714.7278795,2025-06-13 00:01:54.727,31.44764705882353,0.23223756103515625,0.0526724365234375,8.722076647949219,114.56488549618321,-0.366412213740458,-2.145038167938931
1749747714.7375233,2025-06-13 00:01:54.737,31.494705882352942,0.2059013427734375,0.04548983154296875,8.726865051269531,114.70992366412214,1.9083969465648856,-2.099236641221374
1749747714.7471697,2025-06-13 00:01:54.747,31.494705882352942,0.19632453613281248,0.0718260498046875,8.664615808105468,114.7175572519084,1.8931297709923665,-0.015267175572519083
1749747714.75679,2025-06-13 00:01:54.756,31.494705882352942,0.2705447875976562,0.09337386474609374,8.851363537597656,114.50381679389314,-0.05343511450381679,-2.0610687022900764
1749747714.7664697,2025-06-13 00:01:54.766,31.44764705882353,0.24899697265624998,-0.1388636962890625,8.722076647949219,114.67175572519083,0.24427480916030533,-3.900763358778626
1749747714.7761152,2025-06-13 00:01:54.776,31.541764705882354,0.2920926025390625,0.00239420166015625,8.724470849609375,114.68702290076335,0.17557251908396945,-2.0839694656488548
1749747714.785734,2025-06-13 00:01:54.785,31.494705882352942,0.26815058593749996,0.0718260498046875,8.722076647949219,114.58778625954199,0.16030534351145037,-2.1908396946564888
1749747714.7953959,2025-06-13 00:01:54.795,31.494705882352942,0.17956512451171874,0.0909796630859375,8.767566479492187,114.45038167938931,1.9389312977099236,-2.122137404580153
1749747714.8050184,2025-06-13 00:01:54.805,31.494705882352942,0.23702596435546874,0.02154781494140625,8.865728747558594,114.70229007633588,0.1297709923664122,-2.2519083969465647
1749747714.8165698,2025-06-13 00:01:54.816,31.541764705882354,0.21787235107421873,0.08858546142578125,8.705317236328124,114.61068702290076,0.15267175572519084,-2.2900763358778624
1749747714.8261979,2025-06-13 00:01:54.826,31.40058823529412,0.2657563842773437,0.05985504150390625,8.817844714355468,114.53435114503817,-1.8244274809160306,-2.114503816793893
1749747714.8358452,2025-06-13 00:01:54.835,31.541764705882354,0.41898529052734373,0.08140285644531249,8.772354882812499,114.70992366412214,0.10687022900763359,-2.33587786259542
1749747714.8456845,2025-06-13 00:01:54.845,31.541764705882354,0.2059013427734375,0.12449848632812499,8.777143286132812,114.78625954198473,0.16793893129770993,-2.1374045801526718
1749747714.8552978,2025-06-13 00:01:54.855,31.588823529411766,0.29448680419921874,0.0718260498046875,8.681375219726561,114.65648854961832,-0.03816793893129771,-1.83206106870229
1749747714.8649385,2025-06-13 00:01:54.864,31.494705882352942,0.2920926025390625,0.0718260498046875,8.832209924316405,114.41984732824427,0.07633587786259542,-2.015267175572519
1749747714.8745735,2025-06-13 00:01:54.874,31.541764705882354,0.2609679809570312,0.05027823486328125,8.722076647949219,114.58015267175573,-0.06870229007633588,-2.015267175572519
1749747714.8842115,2025-06-13 00:01:54.884,31.40058823529412,0.239420166015625,-0.05027823486328125,8.734047656249999,114.68702290076335,-0.10687022900763359,-2.015267175572519
1749747714.893928,2025-06-13 00:01:54.893,31.44764705882353,0.2561795776367187,0.06464344482421874,8.755595471191405,114.8473282442748,-0.22900763358778625,-2.099236641221374
1749747714.9035573,2025-06-13 00:01:54.903,31.494705882352942,0.16998831787109375,0.09337386474609374,8.724470849609375,114.51908396946565,-0.31297709923664124,-2.0610687022900764
1749747714.91317,2025-06-13 00:01:54.913,31.588823529411766,0.23223756103515625,0.086191259765625,8.628702783203124,114.79389312977099,-0.1984732824427481,-2.183206106870229
1749747714.922803,2025-06-13 00:01:54.922,31.494705882352942,0.2657563842773437,0.09816226806640624,8.655039001464843,114.76335877862596,1.7938931297709924,-2.1755725190839694
1749747714.9324198,2025-06-13 00:01:54.932,31.541764705882354,0.19153613281249998,0.023942016601562498,8.678981018066406,114.80916030534351,1.9465648854961832,-2.183206106870229
1749747714.94205,2025-06-13 00:01:54.942,31.588823529411766,0.20829554443359374,0.08140285644531249,8.681375219726561,114.49618320610686,-0.030534351145038167,-2.045801526717557
1749747714.9516754,2025-06-13 00:01:54.951,31.44764705882353,0.2059013427734375,0.06464344482421874,8.731653454589843,114.78625954198473,-0.07633587786259542,-2.236641221374046
1749747714.961296,2025-06-13 00:01:54.961,31.40058823529412,0.22505495605468748,0.0718260498046875,8.643067993164061,114.77099236641222,0.0916030534351145,-2.2290076335877864
1749747714.9709287,2025-06-13 00:01:54.970,31.494705882352942,0.17477672119140625,0.031124621582031248,8.650250598144531,114.67175572519083,0.21374045801526717,-2.1374045801526718
1749747714.9805396,2025-06-13 00:01:54.980,31.494705882352942,0.22505495605468748,0.0909796630859375,8.688557824707031,114.6793893129771,0.03816793893129771,-2.282442748091603
1749747714.9901776,2025-06-13 00:01:54.990,31.541764705882354,0.24899697265624998,0.08140285644531249,8.853757739257812,114.63358778625954,-0.29770992366412213,-2.0610687022900764
1749747715.0004277,2025-06-13 00:01:55.000,31.494705882352942,0.19393033447265623,0.055066638183593745,8.724470849609375,114.74809160305344,-0.05343511450381679,-2.3206106870229006
1749747715.0100653,2025-06-13 00:01:55.010,31.494705882352942,0.2154781494140625,0.03591302490234375,8.767566479492187,114.90839694656489,-0.12213740458015267,-2.0916030534351147
1749747715.019692,2025-06-13 00:01:55.019,31.588823529411766,0.2753331909179687,0.13168109130859373,8.717288244628906,114.89312977099236,-0.09923664122137404,-2.1603053435114505
1749747715.029336,2025-06-13 00:01:55.029,31.494705882352942,0.2657563842773437,0.0,8.78432589111328,114.80152671755725,-0.24427480916030533,-2.0229007633587788
1749747715.038961,2025-06-13 00:01:55.038,31.494705882352942,0.26336218261718747,0.09576806640624999,8.700528833007812,114.90839694656489,-0.12213740458015267,-2.2977099236641223
1749747715.0488365,2025-06-13 00:01:55.048,31.44764705882353,0.2537853759765625,0.07422025146484375,8.729259252929687,114.97709923664122,0.24427480916030533,-2.2748091603053435
1749747715.0584753,2025-06-13 00:01:55.058,31.494705882352942,0.28730419921875,0.06943184814453125,8.80347950439453,114.68702290076335,0.25190839694656486,-2.16793893129771
1749747715.0681078,2025-06-13 00:01:55.068,31.44764705882353,0.29448680419921874,0.0143652099609375,8.724470849609375,114.53435114503817,-1.7633587786259541,-2.068702290076336
1749747715.0777314,2025-06-13 00:01:55.077,31.44764705882353,0.277727392578125,0.143652099609375,8.710105639648438,114.52671755725191,1.9312977099236641,-1.9770992366412214
1749747715.0873876,2025-06-13 00:01:55.087,31.494705882352942,0.22266075439453123,0.062249243164062495,8.774749084472656,114.74809160305344,1.8778625954198473,-2.0916030534351147
1749747715.0970109,2025-06-13 00:01:55.097,31.541764705882354,0.2442085693359375,0.033518823242187495,8.664615808105468,114.48091603053435,-0.0916030534351145,-2.0610687022900764
1749747715.1066341,2025-06-13 00:01:55.106,31.44764705882353,0.17956512451171874,0.13646949462890623,8.710105639648438,114.83206106870229,0.06870229007633588,-2.213740458015267
1749747715.1162481,2025-06-13 00:01:55.116,31.494705882352942,0.28730419921875,0.016759411621093748,8.738836059570312,114.70229007633588,-0.15267175572519084,-2.099236641221374
1749747715.1258693,2025-06-13 00:01:55.125,31.44764705882353,0.2154781494140625,0.07422025146484375,8.815450512695312,114.66412213740458,0.1984732824427481,-2.267175572519084
1749747715.1355405,2025-06-13 00:01:55.135,31.40058823529412,0.229843359375,-0.0047884033203125,8.667010009765624,114.81679389312977,0.015267175572519083,-2.198473282442748
1749747715.1451614,2025-06-13 00:01:55.145,31.494705882352942,0.18914193115234373,0.07422025146484375,8.741230261230468,114.69465648854961,-0.03816793893129771,-1.9312977099236641
1749747715.1547847,2025-06-13 00:01:55.154,31.541764705882354,0.2561795776367187,0.00239420166015625,8.729259252929687,114.58015267175573,-0.061068702290076333,-2.3435114503816794
1749747715.1643925,2025-06-13 00:01:55.164,31.541764705882354,0.28012159423828126,0.05746083984375,8.820238916015624,114.6030534351145,-1.7938931297709924,-2.0763358778625953
1749747715.1740453,2025-06-13 00:01:55.174,31.541764705882354,0.2825157958984375,0.01915361328125,8.779537487792968,114.64885496183206,-0.29770992366412213,-2.145038167938931
1749747715.1836672,2025-06-13 00:01:55.183,31.494705882352942,0.29927520751953124,0.016759411621093748,8.738836059570312,114.6412213740458,-0.08396946564885496,-2.145038167938931
1749747715.1932914,2025-06-13 00:01:55.193,31.541764705882354,0.21787235107421873,0.06943184814453125,8.583212951660157,114.74809160305344,-1.900763358778626,-2.0381679389312977
1749747715.2029154,2025-06-13 00:01:55.202,31.541764705882354,0.3112462158203125,0.055066638183593745,8.755595471191405,114.63358778625954,-0.07633587786259542,-3.900763358778626
1749747715.212545,2025-06-13 00:01:55.212,31.44764705882353,0.22026655273437498,0.031124621582031248,8.786720092773438,115.0,0.05343511450381679,-2.0610687022900764
1749747715.2221694,2025-06-13 00:01:55.222,31.541764705882354,0.17956512451171874,0.00239420166015625,8.748412866210938,114.7557251908397,1.786259541984733,-2.3206106870229006
1749747715.2317772,2025-06-13 00:01:55.231,31.541764705882354,0.24660277099609373,0.14125789794921875,8.67658681640625,114.51908396946565,0.07633587786259542,-3.900763358778626
1749747715.2415204,2025-06-13 00:01:55.241,31.494705882352942,0.20350714111328125,0.0,8.664615808105468,114.61068702290076,1.8778625954198473,-2.404580152671756
1749747715.2511473,2025-06-13 00:01:55.251,31.494705882352942,0.19153613281249998,0.040701428222656245,8.681375219726561,114.55725190839695,-0.3435114503816794,-2.0839694656488548
1749747715.2607815,2025-06-13 00:01:55.260,31.494705882352942,0.16519991455078123,0.08140285644531249,8.772354882812499,114.6793893129771,0.15267175572519084,-2.0916030534351147
1749747715.270405,2025-06-13 00:01:55.270,31.588823529411766,0.20350714111328125,0.028730419921875,8.781931689453124,114.87022900763358,1.8702290076335877,-2.1297709923664123
1749747715.2800338,2025-06-13 00:01:55.280,31.44764705882353,0.2657563842773437,0.0047884033203125,8.580818749999999,114.64885496183206,0.16030534351145037,-2.282442748091603
1749747715.2896614,2025-06-13 00:01:55.289,31.494705882352942,0.25139117431640623,0.0,8.74601866455078,114.82442748091603,-0.030534351145038167,-2.015267175572519
1749747715.2993143,2025-06-13 00:01:55.299,31.494705882352942,0.16998831787109375,0.040701428222656245,8.79150849609375,114.6412213740458,0.04580152671755725,-2.0229007633587788
1749747715.3090348,2025-06-13 00:01:55.309,31.44764705882353,0.2609679809570312,0.062249243164062495,8.757989672851561,114.6412213740458,0.12213740458015267,-2.0763358778625953
1749747715.3186662,2025-06-13 00:01:55.318,31.494705882352942,0.26815058593749996,0.0143652099609375,8.678981018066406,114.70229007633588,-0.09923664122137404,-2.099236641221374
1749747715.3283772,2025-06-13 00:01:55.328,31.541764705882354,0.2561795776367187,0.06703764648437499,8.810662109374999,114.67175572519083,-0.015267175572519083,-0.16793893129770993
1749747715.3380065,2025-06-13 00:01:55.338,31.44764705882353,0.26815058593749996,0.011971008300781249,8.827421520996094,114.67175572519083,-1.9465648854961832,-2.0839694656488548
1749747715.347679,2025-06-13 00:01:55.347,31.541764705882354,0.239420166015625,0.05027823486328125,8.8489693359375,114.77862595419847,1.8854961832061068,-2.1908396946564888
1749747715.357304,2025-06-13 00:01:55.357,31.44764705882353,0.1580173095703125,0.05027823486328125,8.710105639648438,114.4885496183206,-0.16793893129770993,-2.099236641221374
1749747715.3669114,2025-06-13 00:01:55.366,31.44764705882353,0.16759411621093748,0.02154781494140625,8.79150849609375,114.77862595419847,-0.26717557251908397,-2.068702290076336
1749747715.3765342,2025-06-13 00:01:55.376,31.494705882352942,0.2059013427734375,0.0143652099609375,8.705317236328124,114.7557251908397,0.10687022900763359,-2.068702290076336
1749747715.3861587,2025-06-13 00:01:55.386,31.44764705882353,0.20829554443359374,0.086191259765625,8.793902697753905,114.43511450381679,0.0916030534351145,-3.8931297709923665
1749747715.3957837,2025-06-13 00:01:55.395,31.541764705882354,0.2442085693359375,0.00239420166015625,8.84178673095703,114.36641221374046,0.13740458015267176,-2.122137404580153
1749747715.4054127,2025-06-13 00:01:55.405,31.541764705882354,0.2346317626953125,0.040701428222656245,8.79150849609375,114.80916030534351,0.10687022900763359,-2.0381679389312977
1749747715.4150226,2025-06-13 00:01:55.415,31.541764705882354,0.21068974609375,0.0430956298828125,8.82981572265625,114.54961832061069,-0.08396946564885496,-2.015267175572519
1749747715.4246457,2025-06-13 00:01:55.424,31.44764705882353,0.229843359375,0.05027823486328125,8.767566479492187,114.69465648854961,0.03816793893129771,-2.015267175572519
1749747715.4342678,2025-06-13 00:01:55.434,31.541764705882354,0.23223756103515625,0.047884033203124995,8.652644799804687,114.63358778625954,0.26717557251908397,-3.9083969465648853
1749747715.4438922,2025-06-13 00:01:55.443,31.44764705882353,0.28730419921875,0.00239420166015625,8.786720092773438,114.94656488549619,-1.8625954198473282,-2.282442748091603
1749747715.453542,2025-06-13 00:01:55.453,31.44764705882353,0.239420166015625,0.05027823486328125,8.722076647949219,114.54198473282443,0.11450381679389313,-2.1526717557251906
1749747715.463165,2025-06-13 00:01:55.463,31.44764705882353,0.26336218261718747,0.14125789794921875,8.604760766601562,115.00763358778626,-0.13740458015267176,-2.0
1749747715.4727864,2025-06-13 00:01:55.472,31.541764705882354,0.19393033447265623,0.05027823486328125,8.832209924316405,114.73282442748092,0.061068702290076333,-2.0229007633587788
1749747715.4823923,2025-06-13 00:01:55.482,31.588823529411766,0.22505495605468748,-0.01915361328125,8.71489404296875,114.62595419847328,-0.2748091603053435,-2.0916030534351147
1749747715.4920201,2025-06-13 00:01:55.492,31.541764705882354,0.18435352783203124,-0.028730419921875,8.793902697753905,114.79389312977099,-0.24427480916030533,-2.33587786259542
1749747715.5016475,2025-06-13 00:01:55.501,31.44764705882353,0.22026655273437498,0.11013327636718749,8.70771143798828,114.8473282442748,-0.11450381679389313,-2.3282442748091605
1749747715.5112762,2025-06-13 00:01:55.511,31.541764705882354,0.24899697265624998,0.047884033203124995,8.736441857910156,114.6793893129771,-0.03816793893129771,-2.0610687022900764
1749747715.5209007,2025-06-13 00:01:55.520,31.44764705882353,0.2561795776367187,0.05985504150390625,8.834604125976561,114.8854961832061,0.08396946564885496,-2.0381679389312977
1749747715.530523,2025-06-13 00:01:55.530,31.541764705882354,0.2442085693359375,0.016759411621093748,8.693346228027343,114.70229007633588,-0.007633587786259542,-2.3053435114503817
1749747715.5401683,2025-06-13 00:01:55.540,31.541764705882354,0.3184288208007812,0.031124621582031248,8.74601866455078,114.6412213740458,0.13740458015267176,-2.2213740458015265
1749747715.5497823,2025-06-13 00:01:55.549,31.541764705882354,0.296881005859375,0.062249243164062495,8.705317236328124,114.76335877862596,-0.007633587786259542,-2.114503816793893
1749747715.5594301,2025-06-13 00:01:55.559,31.541764705882354,0.26815058593749996,0.009576806640625,8.731653454589843,114.57251908396947,-1.900763358778626,-1.984732824427481
1749747715.5690565,2025-06-13 00:01:55.569,31.541764705882354,0.2705447875976562,-0.016759411621093748,8.84178673095703,114.74809160305344,0.11450381679389313,-2.213740458015267
1749747715.5786822,2025-06-13 00:01:55.578,31.541764705882354,0.2609679809570312,0.05746083984375,8.712499841308594,114.6793893129771,-1.9541984732824427,-2.236641221374046
1749747715.5883496,2025-06-13 00:01:55.588,31.541764705882354,0.18435352783203124,-0.009576806640625,8.810662109374999,114.64885496183206,0.10687022900763359,-0.0916030534351145
1749747715.597998,2025-06-13 00:01:55.597,31.494705882352942,0.28012159423828126,0.11252747802734374,8.877699755859375,114.81679389312977,1.8931297709923665,-2.198473282442748
1749747715.607632,2025-06-13 00:01:55.607,31.494705882352942,0.21787235107421873,0.040701428222656245,8.67658681640625,114.72519083969466,-0.2900763358778626,-2.3282442748091605
1749747715.6173093,2025-06-13 00:01:55.617,31.588823529411766,0.2154781494140625,0.07900865478515624,8.75320126953125,114.54961832061069,-0.25190839694656486,-2.0610687022900764
1749747715.62694,2025-06-13 00:01:55.626,31.494705882352942,0.16998831787109375,0.055066638183593745,8.844180932617187,114.7557251908397,-0.2366412213740458,-0.17557251908396945
1749747715.6365635,2025-06-13 00:01:55.636,31.588823529411766,0.19153613281249998,0.07422025146484375,8.767566479492187,114.7175572519084,1.9236641221374047,-1.984732824427481
1749747715.646188,2025-06-13 00:01:55.646,31.494705882352942,0.19871873779296872,0.01915361328125,8.774749084472656,114.72519083969466,0.10687022900763359,-2.1603053435114505
1749747715.6558204,2025-06-13 00:01:55.655,31.40058823529412,0.29927520751953124,0.12449848632812499,8.693346228027343,114.61068702290076,0.1297709923664122,-2.2900763358778624
1749747715.665479,2025-06-13 00:01:55.665,31.494705882352942,0.23702596435546874,0.033518823242187495,8.817844714355468,114.8473282442748,0.29770992366412213,-2.1603053435114505
1749747715.675127,2025-06-13 00:01:55.675,31.494705882352942,0.29448680419921874,0.086191259765625,8.808267907714843,114.53435114503817,-1.9083969465648856,-0.022900763358778626
1749747715.6847491,2025-06-13 00:01:55.684,31.494705882352942,0.2609679809570312,0.08379705810546874,8.695740429687499,114.72519083969466,-1.786259541984733,-2.122137404580153
1749747715.6943774,2025-06-13 00:01:55.694,31.494705882352942,0.1580173095703125,0.09337386474609374,8.82263311767578,114.87022900763358,0.29770992366412213,-2.2595419847328246
1749747715.7040057,2025-06-13 00:01:55.704,31.494705882352942,0.20350714111328125,0.1484405029296875,8.779537487792968,114.58015267175573,0.15267175572519084,-2.351145038167939
1749747715.713635,2025-06-13 00:01:55.713,31.494705882352942,0.28730419921875,0.00718260498046875,8.757989672851561,114.74809160305344,0.22900763358778625,-2.1526717557251906
1749747715.7232609,2025-06-13 00:01:55.723,31.588823529411766,0.26815058593749996,0.028730419921875,8.796296899414061,114.68702290076335,-0.022900763358778626,-2.099236641221374
1749747715.732872,2025-06-13 00:01:55.732,31.541764705882354,0.18435352783203124,0.07900865478515624,8.741230261230468,114.66412213740458,0.22900763358778625,-2.030534351145038
1749747715.7424974,2025-06-13 00:01:55.742,31.635882352941177,0.2657563842773437,0.08140285644531249,8.702923034667968,114.45038167938931,-0.030534351145038167,-2.3740458015267176
1749747715.752121,2025-06-13 00:01:55.752,31.494705882352942,0.21787235107421873,0.0430956298828125,8.884882360839843,114.38167938931298,-0.33587786259541985,-2.183206106870229
1749747715.761744,2025-06-13 00:01:55.761,31.588823529411766,0.19153613281249998,0.0383072265625,8.769960681152343,114.7175572519084,-0.25190839694656486,-2.282442748091603
1749747715.7714179,2025-06-13 00:01:55.771,31.494705882352942,0.22266075439453123,0.08858546142578125,8.688557824707031,114.72519083969466,-0.2824427480916031,-2.1068702290076335
1749747715.781045,2025-06-13 00:01:55.781,31.68294117647059,0.17477672119140625,0.03591302490234375,8.588001354980468,114.72519083969466,0.09923664122137404,-2.2595419847328246
1749747715.7906716,2025-06-13 00:01:55.790,31.494705882352942,0.2920926025390625,0.06464344482421874,8.690952026367187,114.64885496183206,0.007633587786259542,-0.061068702290076333
1749747715.800277,2025-06-13 00:01:55.800,31.40058823529412,0.3280056274414062,0.07900865478515624,8.681375219726561,114.68702290076335,-0.09923664122137404,-2.099236641221374
1749747715.809908,2025-06-13 00:01:55.809,31.494705882352942,0.277727392578125,0.00239420166015625,8.63109698486328,114.85496183206106,0.33587786259541985,-2.0610687022900764
1749747715.8195279,2025-06-13 00:01:55.819,31.541764705882354,0.35194764404296874,0.0718260498046875,8.621520178222656,114.68702290076335,0.183206106870229,-2.099236641221374
1749747715.8291538,2025-06-13 00:01:55.829,31.588823529411766,0.26815058593749996,0.04548983154296875,8.755595471191405,114.54961832061069,0.2595419847328244,-2.045801526717557
1749747715.838785,2025-06-13 00:01:55.838,31.588823529411766,0.277727392578125,0.033518823242187495,8.674192614746094,114.74045801526718,0.3435114503816794,-2.2213740458015265
1749747715.8484123,2025-06-13 00:01:55.848,31.494705882352942,0.27293898925781246,0.03591302490234375,8.86094034423828,114.72519083969466,0.0,-2.16793893129771
1749747715.8580363,2025-06-13 00:01:55.858,31.44764705882353,0.258573779296875,0.07422025146484375,8.726865051269531,114.56488549618321,-1.9541984732824427,-2.213740458015267
1749747715.8676512,2025-06-13 00:01:55.867,31.541764705882354,0.21308394775390624,-0.011971008300781249,8.75320126953125,114.91603053435115,-0.2748091603053435,-2.0763358778625953
1749747715.8773022,2025-06-13 00:01:55.877,31.494705882352942,0.20829554443359374,0.0383072265625,8.602366564941406,114.58015267175573,-0.2366412213740458,-2.3969465648854964
1749747715.8869298,2025-06-13 00:01:55.886,31.588823529411766,0.031124621582031248,-0.14604630126953125,8.767566479492187,114.70229007633588,-0.183206106870229,-2.16793893129771
1749747715.8965557,2025-06-13 00:01:55.896,31.494705882352942,0.19632453613281248,0.0909796630859375,8.717288244628906,114.52671755725191,-0.2595419847328244,-2.16793893129771
1749747715.9061806,2025-06-13 00:01:55.906,31.588823529411766,0.23702596435546874,0.06943184814453125,8.767566479492187,114.85496183206106,0.03816793893129771,-2.0610687022900764
1749747715.9157944,2025-06-13 00:01:55.915,31.541764705882354,0.19153613281249998,0.031124621582031248,8.779537487792968,114.62595419847328,0.17557251908396945,-2.1526717557251906
1749747715.9254208,2025-06-13 00:01:55.925,31.588823529411766,0.28012159423828126,0.033518823242187495,8.609549169921875,114.55725190839695,0.25190839694656486,-1.83206106870229
1749747715.9350345,2025-06-13 00:01:55.935,31.541764705882354,0.28490999755859375,-0.08858546142578125,8.59997236328125,114.8473282442748,-1.8854961832061068,-2.1526717557251906
1749747715.944663,2025-06-13 00:01:55.944,31.541764705882354,0.28490999755859375,0.02154781494140625,8.702923034667968,114.6030534351145,0.2366412213740458,-2.2061068702290076
1749747715.9543102,2025-06-13 00:01:55.954,31.588823529411766,0.2825157958984375,0.047884033203124995,8.757989672851561,114.61832061068702,0.16030534351145037,-2.2748091603053435
1749747715.9639409,2025-06-13 00:01:55.963,31.588823529411766,0.26336218261718747,0.05027823486328125,8.846575134277343,114.57251908396947,-0.015267175572519083,-2.198473282442748
1749747715.9735715,2025-06-13 00:01:55.973,31.541764705882354,0.2609679809570312,0.0526724365234375,8.710105639648438,114.7557251908397,0.12213740458015267,-2.1526717557251906
1749747715.9832308,2025-06-13 00:01:55.983,31.541764705882354,0.28490999755859375,0.033518823242187495,8.688557824707031,114.63358778625954,-1.9236641221374047,-0.007633587786259542
1749747715.9928582,2025-06-13 00:01:55.992,31.494705882352942,0.24660277099609373,0.00239420166015625,8.674192614746094,114.70229007633588,1.8244274809160306,-2.3206106870229006
1749747716.0024946,2025-06-13 00:01:56.002,31.494705882352942,0.24899697265624998,0.04548983154296875,8.652644799804687,114.80152671755725,-0.24427480916030533,-2.2977099236641223
1749747716.0121255,2025-06-13 00:01:56.012,31.44764705882353,0.2753331909179687,0.02633621826171875,8.820238916015624,114.6793893129771,-0.25190839694656486,-2.068702290076336
1749747716.021751,2025-06-13 00:01:56.021,31.588823529411766,0.20350714111328125,0.0430956298828125,8.705317236328124,114.62595419847328,-0.015267175572519083,-2.183206106870229
1749747716.031376,2025-06-13 00:01:56.031,31.541764705882354,0.17956512451171874,0.023942016601562498,8.688557824707031,114.78625954198473,-0.1984732824427481,-2.16793893129771
1749747716.0410037,2025-06-13 00:01:56.041,31.541764705882354,0.2609679809570312,0.04548983154296875,8.650250598144531,114.6793893129771,-0.1297709923664122,-2.183206106870229
1749747716.0506113,2025-06-13 00:01:56.050,31.541764705882354,0.20350714111328125,0.011971008300781249,8.664615808105468,114.56488549618321,-0.015267175572519083,-2.0763358778625953
1749747716.060236,2025-06-13 00:01:56.060,31.541764705882354,0.24899697265624998,0.028730419921875,8.724470849609375,114.67175572519083,0.08396946564885496,-3.900763358778626
1749747716.0698588,2025-06-13 00:01:56.069,31.541764705882354,0.22026655273437498,0.076614453125,8.769960681152343,114.6030534351145,0.20610687022900764,-2.114503816793893
1749747716.0794854,2025-06-13 00:01:56.079,31.635882352941177,0.3902548706054687,0.08379705810546874,8.705317236328124,114.66412213740458,0.2366412213740458,-0.11450381679389313
1749747716.0891478,2025-06-13 00:01:56.089,31.541764705882354,0.19632453613281248,0.011971008300781249,8.88009395751953,114.6412213740458,1.8549618320610688,-2.2290076335877864
1749747716.098758,2025-06-13 00:01:56.098,31.541764705882354,0.2609679809570312,0.09337386474609374,8.743624462890624,114.58778625954199,0.1984732824427481,-2.183206106870229
1749747716.1084027,2025-06-13 00:01:56.108,31.635882352941177,0.26815058593749996,0.06464344482421874,8.801085302734375,114.80916030534351,0.015267175572519083,-2.2290076335877864
1749747716.1180112,2025-06-13 00:01:56.118,31.494705882352942,0.2154781494140625,0.055066638183593745,8.875305554199219,114.68702290076335,-0.13740458015267176,-2.0763358778625953
1749747716.1276383,2025-06-13 00:01:56.127,31.635882352941177,0.23702596435546874,0.0718260498046875,8.743624462890624,114.74045801526718,-0.16793893129770993,-2.0229007633587788
1749747716.1372623,2025-06-13 00:01:56.137,31.494705882352942,0.3112462158203125,0.04548983154296875,8.729259252929687,114.6793893129771,-0.13740458015267176,-3.885496183206107
1749747716.146889,2025-06-13 00:01:56.146,31.44764705882353,0.1771709228515625,0.0047884033203125,8.690952026367187,114.70992366412214,-0.0916030534351145,-1.8854961832061068
1749747716.1565254,2025-06-13 00:01:56.156,31.541764705882354,0.2346317626953125,0.033518823242187495,8.877699755859375,114.97709923664122,-0.3511450381679389,-2.122137404580153
1749747716.1661434,2025-06-13 00:01:56.166,31.588823529411766,0.2705447875976562,0.031124621582031248,8.671798413085938,114.77862595419847,-0.04580152671755725,-2.015267175572519
1749747716.175761,2025-06-13 00:01:56.175,31.588823529411766,0.24181436767578124,0.00239420166015625,8.743624462890624,114.67175572519083,-0.09923664122137404,-2.122137404580153
1749747716.1853764,2025-06-13 00:01:56.185,31.588823529411766,0.24660277099609373,0.14125789794921875,8.82981572265625,114.8854961832061,0.07633587786259542,-2.1297709923664123
1749747716.1949992,2025-06-13 00:01:56.194,31.588823529411766,0.21787235107421873,0.055066638183593745,8.63827958984375,114.70229007633588,-0.061068702290076333,-2.2442748091603053
1749747716.204656,2025-06-13 00:01:56.204,31.494705882352942,0.3064578125,0.040701428222656245,8.769960681152343,114.61832061068702,-0.10687022900763359,-1.984732824427481
1749747716.2142808,2025-06-13 00:01:56.214,31.494705882352942,0.22505495605468748,0.0383072265625,8.724470849609375,114.62595419847328,0.1450381679389313,-1.984732824427481
1749747716.2239065,2025-06-13 00:01:56.223,31.494705882352942,0.23702596435546874,0.0143652099609375,8.858546142578124,114.66412213740458,-0.16793893129770993,-1.9770992366412214
1749747716.2335346,2025-06-13 00:01:56.233,31.541764705882354,0.24181436767578124,0.033518823242187495,8.839392529296875,114.80152671755725,1.9236641221374047,-2.366412213740458
1749747716.24317,2025-06-13 00:01:56.243,31.494705882352942,0.2825157958984375,0.04548983154296875,8.678981018066406,114.68702290076335,1.8702290076335877,-2.1603053435114505
1749747716.2527997,2025-06-13 00:01:56.252,31.588823529411766,0.21308394775390624,0.01915361328125,8.719682446289061,114.83206106870229,-0.05343511450381679,-2.1526717557251906
1749747716.2624202,2025-06-13 00:01:56.262,31.588823529411766,0.07422025146484375,0.009576806640625,8.719682446289061,114.78625954198473,-1.9389312977099236,-1.9618320610687023
1749747716.272052,2025-06-13 00:01:56.272,31.541764705882354,0.25139117431640623,0.033518823242187495,8.805873706054687,114.68702290076335,-0.37404580152671757,-2.1297709923664123
1749747716.2816768,2025-06-13 00:01:56.281,31.541764705882354,0.2561795776367187,0.0526724365234375,8.729259252929687,114.82442748091603,-0.20610687022900764,-2.2290076335877864
1749747716.2913022,2025-06-13 00:01:56.291,31.541764705882354,0.24660277099609373,0.033518823242187495,8.779537487792968,114.6030534351145,-0.2595419847328244,-2.0229007633587788
1749747716.3009121,2025-06-13 00:01:56.300,31.541764705882354,0.26815058593749996,0.01915361328125,8.645462194824217,114.7175572519084,1.9465648854961832,-2.33587786259542
1749747716.3105848,2025-06-13 00:01:56.310,31.541764705882354,0.23223756103515625,0.031124621582031248,8.616731774902343,114.62595419847328,-0.1984732824427481,-2.1068702290076335
