timestamp_unix,timestamp_readable,temp_c,accel_x,accel_y,accel_z,gyro_x,gyro_y,gyro_z
1749736779.462385,2025-06-12 20:59:39.462,29.56529411764706,-4.881777185058594,0.14125789794921875,0.5339069702148437,-103.33587786259542,-27.442748091603054,104.06870229007633
1749736779.4720142,2025-06-12 20:59:39.472,29.61235294117647,-4.611232397460937,0.05985504150390625,10.481814868164061,-123.61832061068702,-60.20610687022901,102.34351145038168
1749736779.4816296,2025-06-12 20:59:39.481,29.659411764705883,5.4515971801757805,2.442085693359375,15.528791967773437,122.44274809160305,0.15267175572519084,1.6259541984732824
1749736779.491254,2025-06-12 20:59:39.491,29.56529411764706,-7.953537915039062,-4.620809204101562,3.35188232421875,99.38167938931298,-39.37404580152672,8.297709923664122
1749736779.5008776,2025-06-12 20:59:39.500,29.56529411764706,-5.03740029296875,-2.602497204589844,-1.7693150268554687,105.72519083969466,-61.01526717557252,3.0381679389312977
1749736779.5105665,2025-06-12 20:59:39.510,29.659411764705883,-7.261613635253906,-2.940079638671875,2.7437551025390623,122.22900763358778,-70.25190839694656,4.534351145038168
1749736779.520203,2025-06-12 20:59:39.520,29.61235294117647,0.507570751953125,-2.5737667846679684,7.321468676757812,114.8473282442748,-59.11450381679389,5.251908396946565
1749736779.5298543,2025-06-12 20:59:39.529,29.659411764705883,-0.4740519287109375,-2.418143676757812,-1.01514150390625,120.20610687022901,-34.51145038167939,7.091603053435114
1749736779.5403337,2025-06-12 20:59:39.540,29.61235294117647,11.9135474609375,-2.952050646972656,16.75701741943359,104.92366412213741,2.3969465648854964,2.9923664122137406
1749736779.5498688,2025-06-12 20:59:39.549,29.61235294117647,0.7900865478515624,-2.4947581298828125,14.949395166015623,123.85496183206106,-48.274809160305345,-1.0
1749736779.5594556,2025-06-12 20:59:39.559,29.61235294117647,-1.3814543579101561,3.4261025756835934,10.723629235839843,120.56488549618321,0.10687022900763359,2.49618320610687
1749736779.5691228,2025-06-12 20:59:39.569,30.31823529411765,-19.512743530273436,-0.9744400756835937,-1.3072341064453123,101.2824427480916,-33.58015267175573,2.5343511450381677
1749736779.5798106,2025-06-12 20:59:39.579,29.659411764705883,-1.2497732666015624,-3.380612744140625,5.722141967773437,117.16030534351145,-27.244274809160306,-2.183206106870229
1749736779.5894315,2025-06-12 20:59:39.589,29.61235294117647,-1.6472107421875,-1.2808978881835937,5.353434912109375,127.94656488549619,-76.1145038167939,-1.2213740458015268
1749736779.5990758,2025-06-12 20:59:39.599,29.659411764705883,-0.05746083984375,4.92247861328125,3.440467785644531,117.3206106870229,-53.49618320610687,-2.3893129770992365
1749736779.6087186,2025-06-12 20:59:39.608,29.61235294117647,-18.70589757080078,1.0438719238281249,-5.054159704589844,118.57251908396947,-30.03053435114504,-3.7709923664122136
1749736779.6183527,2025-06-12 20:59:39.618,29.706470588235295,-4.630386010742187,-1.3335703247070312,4.821922143554687,112.46564885496183,-1.1603053435114503,-4.9541984732824424
1749736779.6280062,2025-06-12 20:59:39.628,29.706470588235295,1.0558429321289062,0.9121908325195311,12.088324182128906,122.05343511450381,-30.595419847328245,-2.1603053435114505
1749736779.6376708,2025-06-12 20:59:39.637,29.56529411764706,3.478775012207031,-1.1731588134765625,13.120225097656249,124.81679389312977,3.5877862595419847,-2.16793893129771
1749736779.6473167,2025-06-12 20:59:39.647,29.61235294117647,-13.395558288574218,-1.43652099609375,-2.896984008789062,106.65648854961832,-30.49618320610687,9.442748091603054
1749736779.656958,2025-06-12 20:59:39.656,29.706470588235295,-8.224082702636718,0.7230489013671875,-0.5410895751953124,100.19847328244275,-44.6793893129771,-4.9541984732824424
1749736779.6666028,2025-06-12 20:59:39.666,29.659411764705883,1.2617442749023438,-4.513070129394531,8.281543542480469,121.02290076335878,-64.6793893129771,3.7786259541984735
1749736779.676237,2025-06-12 20:59:39.676,29.659411764705883,-11.475408557128906,-1.2976572998046874,3.67749375,111.20610687022901,-52.404580152671755,-0.0916030534351145
1749736779.6866245,2025-06-12 20:59:39.686,30.459411764705884,-12.339715356445312,0.9457096557617187,-3.009511486816406,124.7175572519084,-32.01526717557252,-0.16793893129770993
1749736779.696263,2025-06-12 20:59:39.696,29.706470588235295,-2.91134921875,-1.5849614990234373,3.6008792968749996,117.01526717557252,-2.5572519083969465,-9.206106870229007
1749736779.7059212,2025-06-12 20:59:39.705,30.412352941176472,-3.8379052612304685,2.4157494750976563,11.3006318359375,119.70229007633588,-30.6793893129771,-2.6106870229007635
1749736779.7156289,2025-06-12 20:59:39.715,30.412352941176472,3.871424084472656,0.8475473876953125,13.175291735839844,129.9770992366412,44.274809160305345,-8.969465648854962
1749736779.7252624,2025-06-12 20:59:39.725,29.000588235294117,-8.935160595703124,0.4860229370117187,10.122684619140625,99.8473282442748,86.9618320610687,-1.1374045801526718
1749736779.7349164,2025-06-12 20:59:39.734,29.706470588235295,-18.492813623046874,1.2138602416992186,2.1906945190429687,124.08396946564885,44.7557251908397,-5.190839694656488
1749736779.7446187,2025-06-12 20:59:39.744,29.706470588235295,-14.700398193359375,-4.7955859252929685,1.7645266235351562,118.36641221374046,46.05343511450382,-12.618320610687023
1749736779.7542574,2025-06-12 20:59:39.754,30.459411764705884,-2.1978771240234374,2.3678654418945313,19.488801513671874,110.1526717557252,61.52671755725191,-3.3587786259541983
1749736779.763887,2025-06-12 20:59:39.763,29.659411764705883,7.943961108398437,2.7820623291015623,19.61270144958496,123.00763358778626,95.03053435114504,-5.068702290076335
1749736779.7735283,2025-06-12 20:59:39.773,29.659411764705883,-9.696516723632811,3.9408559326171875,4.862623571777344,117.90076335877863,75.83969465648855,-4.33587786259542
1749736779.7831547,2025-06-12 20:59:39.783,29.800588235294118,-6.210559106445312,-0.9696516723632812,10.625466967773438,118.2824427480916,50.79389312977099,-3.618320610687023
1749736779.793598,2025-06-12 20:59:39.793,29.659411764705883,-3.4859576171874997,-0.8954314208984374,9.976638317871092,121.68702290076335,-3.351145038167939,7.419847328244275
1749736779.8032527,2025-06-12 20:59:39.803,29.04764705882353,-2.4205378784179685,7.237671618652343,13.781024755859374,126.45038167938931,62.25190839694657,-2.4122137404580153
1749736779.8128848,2025-06-12 20:59:39.812,29.706470588235295,-13.603853833007811,1.2569558715820313,0.8068459594726562,105.44274809160305,38.465648854961835,-5.404580152671755
1749736779.8225164,2025-06-12 20:59:39.822,30.459411764705884,0.26815058593749996,-0.8499415893554687,14.717157604980468,120.32824427480917,20.358778625954198,-2.5877862595419847
1749736779.8321447,2025-06-12 20:59:39.832,29.753529411764706,2.4444798950195312,-0.29927520751953124,10.512939489746094,113.90839694656489,-4.885496183206107,2.7786259541984735
1749736779.8417997,2025-06-12 20:59:39.841,29.000588235294117,0.55545478515625,0.0383072265625,4.036623999023437,113.29770992366412,12.763358778625955,-0.16793893129770993
1749736779.8514752,2025-06-12 20:59:39.851,30.459411764705884,-1.3623007446289062,0.15322890625,3.440467785644531,120.18320610687023,-7.870229007633588,-1.4885496183206106
1749736779.8611867,2025-06-12 20:59:39.861,29.000588235294117,-6.272808349609375,-0.33758243408203126,3.883395092773437,118.09923664122137,-13.206106870229007,-8.106870229007633
1749736779.870829,2025-06-12 20:59:39.870,29.000588235294117,-2.4492682983398435,-1.5753846923828123,12.073958972167969,124.73282442748092,9.389312977099237,-8.274809160305344
1749736779.8804657,2025-06-12 20:59:39.880,29.706470588235295,9.727641345214844,1.9823989746093749,16.723498596191405,116.78625954198473,69.43511450381679,-0.8396946564885496
1749736779.8900955,2025-06-12 20:59:39.890,30.459411764705884,9.0788126953125,2.6503812377929687,13.814543579101562,113.98473282442748,46.83969465648855,-0.32061068702290074
1749736779.9002235,2025-06-12 20:59:39.900,29.753529411764706,7.438784558105469,0.7685387329101562,11.283872424316405,114.09923664122137,9.312977099236642,-0.007633587786259542
1749736779.909853,2025-06-12 20:59:39.909,29.659411764705883,7.264007836914062,0.6967126831054687,17.685967663574218,119.16793893129771,3.435114503816794,3.236641221374046
1749736779.9194865,2025-06-12 20:59:39.919,30.459411764705884,2.43250888671875,-0.23702596435546874,12.27746611328125,118.68702290076335,28.00763358778626,5.473282442748092
1749736779.9291196,2025-06-12 20:59:39.929,29.706470588235295,3.124433166503906,-1.7094599853515624,9.358934289550781,110.87022900763358,9.763358778625955,-1.1221374045801527
1749736779.9387715,2025-06-12 20:59:39.938,29.706470588235295,-5.161898779296875,0.23223756103515625,3.689464758300781,115.92366412213741,-17.435114503816795,1.183206106870229
1749736779.9484053,2025-06-12 20:59:39.948,30.459411764705884,6.813897924804687,-1.2138602416992186,17.11614766845703,106.37404580152672,-59.770992366412216,-0.12213740458015267
1749736779.9580362,2025-06-12 20:59:39.958,29.800588235294118,-4.302380383300781,1.2593500732421874,8.487444885253906,123.81679389312977,-17.03053435114504,4.99236641221374
1749736779.9676683,2025-06-12 20:59:39.967,29.753529411764706,-4.039018200683594,3.9360675292968748,9.397241516113281,116.16793893129771,7.358778625954199,7.175572519083969
1749736779.9772968,2025-06-12 20:59:39.977,29.800588235294118,-19.366697229003904,-3.3159692993164063,-4.848258361816406,110.74045801526718,-8.587786259541986,-4.6106870229007635
1749736779.9869273,2025-06-12 20:59:39.986,29.800588235294118,-4.7955859252929685,0.040701428222656245,5.963956335449218,116.44274809160305,-41.282442748091604,-7.190839694656488
1749736779.9965622,2025-06-12 20:59:39.996,29.800588235294118,-2.85388837890625,-1.5275006591796874,10.963049401855468,118.76335877862596,5.221374045801527,0.6793893129770993
1749736780.006831,2025-06-12 20:59:40.006,30.459411764705884,4.077325427246094,5.1140147460937495,10.939107385253905,123.1526717557252,9.49618320610687,-3.5114503816793894
1749736780.0164652,2025-06-12 20:59:40.016,29.753529411764706,-1.177947216796875,1.7453730102539062,4.838681555175781,111.38167938931298,9.83206106870229,-7.480916030534351
1749736780.0260966,2025-06-12 20:59:40.026,29.000588235294117,3.921702319335937,-3.9360675292968748,14.23113466796875,116.34351145038168,-15.732824427480915,-4.442748091603053
1749736780.0357895,2025-06-12 20:59:40.035,29.800588235294118,2.157175695800781,0.033518823242187495,15.531186169433592,124.38931297709924,35.900763358778626,0.5419847328244275
1749736780.0454202,2025-06-12 20:59:40.045,29.753529411764706,7.678204724121093,6.330269189453125,10.386046801757812,113.76335877862596,9.083969465648854,-8.473282442748092
1749736780.0550933,2025-06-12 20:59:40.055,29.800588235294118,2.3511060302734372,2.731784094238281,14.54956348876953,123.2442748091603,54.404580152671755,-1.0534351145038168
1749736780.0647228,2025-06-12 20:59:40.064,29.753529411764706,11.40837091064453,-3.366247534179687,16.582240698242188,117.18320610687023,7.854961832061068,-5.404580152671755
1749736780.074355,2025-06-12 20:59:40.074,29.753529411764706,2.9472622436523435,3.821145849609375,15.6293484375,117.16030534351145,31.633587786259543,-0.16793893129770993
1749736780.0840151,2025-06-12 20:59:40.084,29.84764705882353,2.281674182128906,-0.15083470458984374,6.713341455078124,113.82442748091603,19.99236641221374,-2.3435114503816794
1749736780.0936415,2025-06-12 20:59:40.093,30.459411764705884,2.1547814941406247,3.907337109375,3.88818349609375,122.35114503816794,2.5877862595419847,-2.763358778625954
1749736780.1032386,2025-06-12 20:59:40.103,29.800588235294118,3.6176387084960937,-1.199495031738281,11.803414184570311,113.19083969465649,13.786259541984732,-3.0
1749736780.1133215,2025-06-12 20:59:40.113,30.459411764705884,2.3582886352539063,-2.042254016113281,17.367538842773435,125.49618320610686,7.587786259541985,-3.312977099236641
1749736780.1229546,2025-06-12 20:59:40.122,29.89470588235294,5.5641246582031245,2.825157958984375,10.761936462402343,106.70992366412214,19.770992366412212,-6.473282442748092
1749736780.132593,2025-06-12 20:59:40.132,29.84764705882353,-0.36391865234375,-0.3184288208007812,6.236895324707031,104.37404580152672,0.9389312977099237,0.2595419847328244
1749736780.14224,2025-06-12 20:59:40.142,29.800588235294118,0.028730419921875,2.7820623291015623,7.364564306640625,114.16030534351145,-37.33587786259542,-0.5114503816793893
1749736780.1518703,2025-06-12 20:59:40.151,29.84764705882353,-4.920084411621094,-2.710236279296875,9.356540087890625,119.5114503816794,-32.50381679389313,-1.4732824427480915
1749736780.1615102,2025-06-12 20:59:40.161,29.84764705882353,-3.9504327392578125,0.01915361328125,4.422090466308593,115.20610687022901,3.1297709923664123,6.9465648854961835
1749736780.1712558,2025-06-12 20:59:40.171,29.04764705882353,-8.542511523437499,1.419761584472656,1.1372457885742187,109.58778625954199,-7.137404580152672,5.900763358778626
1749736780.1808035,2025-06-12 20:59:40.180,29.753529411764706,-8.968679418945312,0.26815058593749996,-3.948038537597656,123.95419847328245,-12.740458015267176,-7.190839694656488
1749736780.1904356,2025-06-12 20:59:40.190,29.753529411764706,-7.838616235351562,-6.114791040039062,13.469778540039062,120.78625954198473,6.145038167938932,4.229007633587786
1749736780.2000587,2025-06-12 20:59:40.200,29.84764705882353,3.265691064453125,-0.9576806640625,3.687070556640625,130.15267175572518,-8.572519083969466,-7.694656488549619
1749736780.2096841,2025-06-12 20:59:40.209,29.753529411764706,-3.1651345947265623,3.4620156005859375,6.552929943847656,102.79389312977099,-3.9923664122137406,-8.48091603053435
1749736780.21991,2025-06-12 20:59:40.219,29.753529411764706,0.44053310546874996,-1.8363526733398436,4.235342736816406,108.86259541984732,6.893129770992366,0.6564885496183206
1749736780.2295425,2025-06-12 20:59:40.229,29.800588235294118,4.046200805664062,-2.269703173828125,15.25824718017578,129.6946564885496,-3.8473282442748094,3.4732824427480917
1749736780.2392588,2025-06-12 20:59:40.239,29.800588235294118,-4.649539624023437,-1.4173673828125,6.363788012695312,112.80916030534351,1.5954198473282444,-1.015267175572519
1749736780.2488878,2025-06-12 20:59:40.248,29.89470588235294,-5.219359619140625,-0.05027823486328125,5.068524914550781,116.02290076335878,25.03053435114504,-3.7099236641221376
1749736780.258512,2025-06-12 20:59:40.258,29.800588235294118,-7.012616662597656,1.2617442749023438,7.362170104980469,117.0381679389313,20.52671755725191,-4.549618320610687
1749736780.2681952,2025-06-12 20:59:40.268,29.800588235294118,-9.02135185546875,-2.042254016113281,6.363788012695312,125.58015267175573,-7.778625954198473,-3.0916030534351147
1749736780.277857,2025-06-12 20:59:40.277,29.800588235294118,-1.2713210815429687,1.687912170410156,12.94065997314453,127.14503816793894,84.54961832061069,-7.122137404580153
1749736780.28748,2025-06-12 20:59:40.287,29.800588235294118,-9.04050546875,-1.8459294799804686,7.352593298339843,119.61068702290076,53.3206106870229,11.709923664122137
1749736780.2971041,2025-06-12 20:59:40.297,29.000588235294117,7.819462622070312,0.9241618408203125,15.2079689453125,106.2442748091603,53.74045801526717,-5.793893129770993
1749736780.306729,2025-06-12 20:59:40.306,29.89470588235294,-1.7118541870117185,-5.5090580200195305,17.381904052734374,116.3587786259542,16.68702290076336,3.7938931297709924
1749736780.3163528,2025-06-12 20:59:40.316,29.800588235294118,7.754819177246094,5.442020373535156,10.292672937011718,112.87022900763358,-5.450381679389313,-7.801526717557252
1749736780.326406,2025-06-12 20:59:40.326,29.800588235294118,0.679953271484375,0.9816226806640624,15.363592053222655,115.51908396946565,92.59541984732824,-5.00763358778626
1749736780.3360367,2025-06-12 20:59:40.336,29.84764705882353,1.697488977050781,-2.0446482177734375,2.798821740722656,128.40458015267177,14.725190839694656,-0.9694656488549618
1749736780.3456702,2025-06-12 20:59:40.345,29.753529411764706,15.47611953125,-2.9927520751953125,19.61270144958496,109.25190839694656,20.53435114503817,-4.969465648854962
1749736780.3553178,2025-06-12 20:59:40.355,29.753529411764706,19.323601599121094,3.8666356811523435,16.768988427734374,138.67175572519085,-14.572519083969466,-4.152671755725191
1749736780.364944,2025-06-12 20:59:40.364,29.84764705882353,3.4069489624023435,-3.323151904296875,18.485631018066407,105.3587786259542,31.61832061068702,0.022900763358778626
1749736780.3745697,2025-06-12 20:59:40.374,29.800588235294118,-8.32463917236328,-6.119579443359375,-1.7860744384765623,102.18320610687023,-38.01526717557252,-9.65648854961832
1749736780.3841934,2025-06-12 20:59:40.384,29.84764705882353,-3.3111808959960936,1.9416975463867185,7.793126403808594,118.77862595419847,-22.61832061068702,-9.206106870229007
1749736780.3938324,2025-06-12 20:59:40.393,29.84764705882353,-3.9552211425781247,0.2753331909179687,8.99501563720703,123.01526717557252,-33.43511450381679,0.3053435114503817
1749736780.4034646,2025-06-12 20:59:40.403,29.89470588235294,-6.050147595214844,3.3446997192382812,10.084377392578125,117.17557251908397,49.74809160305343,-0.7404580152671756
1749736780.4130921,2025-06-12 20:59:40.413,29.89470588235294,-4.979939453125,4.6255976074218745,1.944091748046875,112.3206106870229,7.229007633587786,-2.435114503816794
1749736780.4227219,2025-06-12 20:59:40.422,29.84764705882353,1.1372457885742187,-0.5626373901367188,14.221557861328124,120.41984732824427,7.801526717557252,-2.3969465648854964
1749736780.432939,2025-06-12 20:59:40.432,29.800588235294118,-8.394071020507813,-1.1180921752929687,7.2903440551757805,124.23664122137404,-38.458015267175576,-7.3816793893129775
1749736780.4425867,2025-06-12 20:59:40.442,29.800588235294118,-0.3854664672851562,1.5562310791015623,7.314286071777343,114.13740458015268,-0.4198473282442748,-4.083969465648855
1749736780.4522314,2025-06-12 20:59:40.452,29.84764705882353,2.6192566162109374,1.7118541870117185,8.901641772460938,114.03053435114504,-10.82442748091603,3.2290076335877864
1749736780.4618642,2025-06-12 20:59:40.461,29.800588235294118,-1.5203180541992187,-5.051765502929687,7.034164477539062,118.0,-31.435114503816795,-3.8625954198473282
1749736780.4715025,2025-06-12 20:59:40.471,29.84764705882353,1.1061211669921875,0.6200982299804687,12.899958544921875,117.49618320610686,-18.931297709923665,-2.213740458015267
1749736780.481212,2025-06-12 20:59:40.481,29.84764705882353,0.12449848632812499,3.5625720703124997,1.7980454467773437,114.6412213740458,-25.770992366412212,-4.862595419847328
1749736780.4908524,2025-06-12 20:59:40.490,29.84764705882353,2.9496564453125,0.9241618408203125,7.266402038574219,118.0381679389313,-8.778625954198473,-1.083969465648855
1749736780.5004838,2025-06-12 20:59:40.500,29.84764705882353,2.2649147705078123,-0.7805097412109374,10.848127722167968,115.79389312977099,-36.05343511450382,-2.1374045801526718
1749736780.5101163,2025-06-12 20:59:40.510,29.753529411764706,-1.419761584472656,-2.0470424194335934,15.799336755371092,126.95419847328245,-3.984732824427481,-4.740458015267175
1749736780.5197666,2025-06-12 20:59:40.519,29.84764705882353,5.236119030761718,0.0143652099609375,4.979939453125,117.7557251908397,-12.977099236641221,-3.0916030534351147
1749736780.5294008,2025-06-12 20:59:40.529,29.84764705882353,8.44674345703125,0.7206546997070312,4.405331054687499,114.5114503816794,18.30534351145038,-8.870229007633588
1749736780.5391212,2025-06-12 20:59:40.539,29.753529411764706,2.767697119140625,2.3870190551757813,7.809885815429687,116.91603053435115,4.648854961832061,-6.114503816793893
1749736780.5498514,2025-06-12 20:59:40.549,29.89470588235294,1.3383587280273437,0.8667010009765624,14.53759248046875,119.07633587786259,-11.740458015267176,0.1984732824427481
1749736780.5596614,2025-06-12 20:59:40.559,29.89470588235294,4.417302062988281,-0.033518823242187495,10.812214697265624,120.65648854961832,3.763358778625954,0.030534351145038167
1749736780.5693038,2025-06-12 20:59:40.569,29.941764705882356,-9.006986645507812,1.9416975463867185,1.0510545288085937,114.49618320610686,6.267175572519084,2.900763358778626
1749736780.578937,2025-06-12 20:59:40.578,29.84764705882353,-10.797849487304687,-2.9185318237304685,9.947907897949218,120.25954198473282,-32.083969465648856,-1.900763358778626
1749736780.5886161,2025-06-12 20:59:40.588,29.84764705882353,-16.141707592773436,-1.3862427612304686,6.172251879882812,116.4885496183206,-16.641221374045802,-0.8244274809160306
1749736780.5982537,2025-06-12 20:59:40.598,29.89470588235294,-18.1193181640625,4.115632653808594,-1.1372457885742187,114.96946564885496,23.931297709923665,7.3893129770992365
1749736780.6078885,2025-06-12 20:59:40.607,29.800588235294118,-3.7421371948242186,4.228160131835938,7.4220251464843745,112.19847328244275,63.091603053435115,-2.9160305343511452
1749736780.617516,2025-06-12 20:59:40.617,29.84764705882353,-0.2059013427734375,-2.896984008789062,19.47922470703125,115.5114503816794,7.3816793893129775,-3.595419847328244
1749736780.6271448,2025-06-12 20:59:40.627,29.800588235294118,-5.521029028320312,0.32082302246093747,9.749189160156249,122.77099236641222,29.33587786259542,-3.49618320610687
1749736780.636775,2025-06-12 20:59:40.636,29.941764705882356,0.33758243408203126,5.087678527832031,-0.3399766357421875,106.58015267175573,-8.404580152671755,3.236641221374046
1749736780.6464243,2025-06-12 20:59:40.646,29.84764705882353,-5.971138940429687,0.9050082275390624,-3.9791631591796874,120.4885496183206,-12.755725190839694,-10.65648854961832
1749736780.6572225,2025-06-12 20:59:40.657,29.89470588235294,-10.941501586914061,-0.9911994873046874,4.3071687866210935,115.38167938931298,-28.206106870229007,-8.603053435114504
1749736780.666868,2025-06-12 20:59:40.666,29.84764705882353,-4.963180041503906,-0.93852705078125,11.789048974609374,126.13740458015268,19.717557251908396,-1.7938931297709924
1749736780.676508,2025-06-12 20:59:40.676,29.84764705882353,-7.141903552246093,5.825092639160156,2.9927520751953125,121.78625954198473,17.740458015267176,-3.801526717557252
1749736780.6861534,2025-06-12 20:59:40.686,29.941764705882356,6.567295153808593,-2.3774422485351563,3.6727053466796873,108.77862595419847,21.931297709923665,4.419847328244275
1749736780.6957917,2025-06-12 20:59:40.695,29.753529411764706,-5.164292980957031,-0.031124621582031248,-1.16837041015625,111.46564885496183,-34.3587786259542,-10.511450381679388
1749736780.705453,2025-06-12 20:59:40.705,29.89470588235294,3.833116857910156,-4.235342736816406,11.358092675781249,111.6412213740458,-58.48091603053435,0.25190839694656486
1749736780.7151043,2025-06-12 20:59:40.715,29.84764705882353,8.597578161621094,1.8626888916015625,7.970297326660156,126.09160305343511,-2.572519083969466,17.358778625954198
1749736780.7247343,2025-06-12 20:59:40.724,29.89470588235294,-0.6847416748046875,-0.32082302246093747,9.366116894531249,118.8473282442748,11.404580152671755,12.259541984732824
1749736780.7344055,2025-06-12 20:59:40.734,29.84764705882353,-8.319850769042969,-2.3415292236328122,1.3024457031249999,109.80152671755725,-19.099236641221374,0.6793893129770993
1749736780.7440546,2025-06-12 20:59:40.744,29.84764705882353,-7.149086157226562,-2.7629087158203123,4.716577270507813,119.7175572519084,-83.98473282442748,-0.8931297709923665
1749736780.7536888,2025-06-12 20:59:40.753,29.84764705882353,6.797138513183594,0.45489831542968745,14.640543151855468,125.14503816793894,-4.458015267175573,2.66412213740458
1749736780.764273,2025-06-12 20:59:40.764,29.800588235294118,1.180341418457031,2.375048046875,14.686032983398437,107.13740458015268,53.83969465648855,2.8625954198473282
1749736780.773915,2025-06-12 20:59:40.773,29.89470588235294,3.23696064453125,-0.22505495605468748,10.81460889892578,112.91603053435115,1.8778625954198473,-0.16030534351145037
1749736780.7835536,2025-06-12 20:59:40.783,29.84764705882353,0.8547299926757812,-3.9169139160156248,9.34696328125,121.00763358778626,-12.580152671755725,1.4351145038167938
1749736780.7931902,2025-06-12 20:59:40.793,29.89470588235294,1.7932570434570312,1.4245499877929686,9.45470235595703,122.25954198473282,8.572519083969466,2.16793893129771
1749736780.802828,2025-06-12 20:59:40.802,29.89470588235294,-2.001552587890625,-0.15562310791015624,9.579200842285156,117.46564885496183,22.916030534351144,2.3206106870229006
1749736780.8124933,2025-06-12 20:59:40.812,29.800588235294118,-1.8818425048828125,-2.1021090576171875,2.6599580444335937,101.70229007633588,-21.83206106870229,-2.7404580152671754
1749736780.822129,2025-06-12 20:59:40.822,29.89470588235294,-0.5626373901367188,-0.718260498046875,12.830526696777342,122.23664122137404,-39.6793893129771,-2.49618320610687
1749736780.8317916,2025-06-12 20:59:40.831,29.89470588235294,3.754108203125,0.46208092041015625,6.945579016113281,120.80152671755725,-6.442748091603053,-0.21374045801526717
1749736780.8414629,2025-06-12 20:59:40.841,29.941764705882356,-6.004657763671875,1.7908628417968748,7.4962453979492185,108.6793893129771,-16.396946564885496,-9.954198473282442
1749736780.8510954,2025-06-12 20:59:40.851,29.84764705882353,2.109291662597656,-3.67749375,5.334281298828125,112.33587786259542,7.404580152671755,-7.541984732824427
1749736780.8607445,2025-06-12 20:59:40.860,29.941764705882356,9.344569079589844,-0.9792284790039062,11.394005700683593,128.14503816793894,3.381679389312977,-6.473282442748092
1749736780.871279,2025-06-12 20:59:40.871,29.941764705882356,6.809109521484374,2.291250988769531,19.61270144958496,119.3969465648855,112.31297709923665,4.442748091603053
1749736780.8809152,2025-06-12 20:59:40.880,29.89470588235294,16.76659422607422,-0.82360537109375,13.115436694335937,101.3969465648855,70.25954198473282,-1.534351145038168
1749736780.8905602,2025-06-12 20:59:40.890,29.941764705882356,12.07874737548828,1.2617442749023438,6.588244418334961,121.31297709923665,57.18320610687023,-2.236641221374046
1749736780.9002013,2025-06-12 20:59:40.900,29.84764705882353,19.61270144958496,-5.691017346191406,19.61270144958496,128.64885496183206,-3.8931297709923665,-0.17557251908396945
1749736780.9098363,2025-06-12 20:59:40.909,29.941764705882356,5.228936425781249,5.015852478027344,12.840103503417968,117.93893129770993,13.625954198473282,-2.5572519083969465
1749736780.9194694,2025-06-12 20:59:40.919,29.84764705882353,-0.6512228515624999,0.6272808349609375,2.91134921875,109.12977099236642,16.450381679389313,-3.3282442748091605
1749736780.9291015,2025-06-12 20:59:40.929,29.941764705882356,-0.7015010864257812,5.844246252441406,-1.7741034301757812,96.35114503816794,-40.099236641221374,-5.129770992366412
1749736780.9387307,2025-06-12 20:59:40.938,29.84764705882353,13.747505932617187,-1.0319009155273438,17.621324218749997,120.67175572519083,-45.32824427480916,-0.2748091603053435
1749736780.9483833,2025-06-12 20:59:40.948,29.84764705882353,-1.5705962890624998,-0.7302315063476562,12.220005273437499,127.80152671755725,2.9618320610687023,0.16030534351145037
1749736780.9580233,2025-06-12 20:59:40.958,29.988823529411768,-4.3454760131835934,-0.47165772705078124,5.84185205078125,109.57251908396947,25.083969465648856,0.0916030534351145
1749736780.9677002,2025-06-12 20:59:40.967,29.941764705882356,-6.593631372070312,-2.6408044311523438,1.47482822265625,109.89312977099236,-13.923664122137405,-1.1908396946564885
1749736780.9779193,2025-06-12 20:59:40.977,29.941764705882356,8.29351455078125,0.603338818359375,19.227833532714843,133.70992366412213,-7.549618320610687,1.8473282442748091
1749736780.9875574,2025-06-12 20:59:40.987,29.89470588235294,4.295197778320312,2.1787235107421874,10.50815108642578,118.48091603053435,-5.419847328244275,2.6564885496183206
1749736780.997192,2025-06-12 20:59:40.997,29.89470588235294,-2.7653029174804686,1.3718775512695311,-0.26336218261718747,102.44274809160305,-7.885496183206107,0.10687022900763359
1749736781.0068247,2025-06-12 20:59:41.006,29.89470588235294,-10.551246716308594,-3.8283284545898435,4.65432802734375,122.78625954198473,-30.015267175572518,0.8473282442748091
1749736781.0164711,2025-06-12 20:59:41.016,29.988823529411768,-5.72693037109375,-2.5737667846679684,7.1203557373046875,117.66412213740458,-54.717557251908396,-1.8473282442748091
1749736781.0261083,2025-06-12 20:59:41.026,29.941764705882356,-9.028534460449219,4.690241052246093,9.33978067626953,126.45801526717557,9.854961832061068,-7.694656488549619
1749736781.0357418,2025-06-12 20:59:41.035,29.941764705882356,-18.75617580566406,-4.017470385742187,-2.0278888061523435,111.1526717557252,19.549618320610687,5.175572519083969
1749736781.0453877,2025-06-12 20:59:41.045,29.988823529411768,-19.6133,-4.149151477050781,-6.265625744628906,117.40458015267176,8.274809160305344,-10.473282442748092
1749736781.0550396,2025-06-12 20:59:41.055,29.941764705882356,-16.2422640625,-1.1947066284179686,1.848323681640625,116.32824427480917,-9.259541984732824,-5.236641221374046
1749736781.0646846,2025-06-12 20:59:41.064,29.800588235294118,-10.613495959472656,-0.3495534423828125,3.878606689453125,118.3206106870229,2.969465648854962,-2.595419847328244
1749736781.07432,2025-06-12 20:59:41.074,29.941764705882356,-15.971719274902343,2.4253262817382812,1.6472107421875,117.65648854961832,32.93893129770992,7.0534351145038165
1749736781.084662,2025-06-12 20:59:41.084,29.800588235294118,-15.114595080566405,-2.1715409057617188,-5.4515971801757805,108.70992366412214,-51.0,-6.015267175572519
1749736781.0943072,2025-06-12 20:59:41.094,29.941764705882356,-7.824251025390624,-0.4525041137695312,5.130774157714844,122.22137404580153,-39.61832061068702,-6.770992366412214
1749736781.1039429,2025-06-12 20:59:41.103,29.941764705882356,0.00718260498046875,2.5354595581054684,9.30147344970703,116.4885496183206,-6.679389312977099,-4.572519083969466
1749736781.1135767,2025-06-12 20:59:41.113,29.941764705882356,3.5673604736328124,0.612915625,9.562441430664062,122.86259541984732,35.3587786259542,-0.3053435114503817
1749736781.123229,2025-06-12 20:59:41.123,29.941764705882356,-1.7477672119140624,1.6352397338867186,5.157110375976562,113.01526717557252,13.34351145038168,-4.480916030534351
1749736781.1328607,2025-06-12 20:59:41.132,29.84764705882353,-4.900930798339844,0.354341845703125,7.129932543945312,111.34351145038168,-11.595419847328245,-0.13740458015267176
1749736781.142596,2025-06-12 20:59:41.142,29.89470588235294,-2.446874096679687,0.4261678955078125,11.250353601074218,126.29007633587786,-7.183206106870229,-7.702290076335878
1749736781.152247,2025-06-12 20:59:41.152,29.988823529411768,6.48589229736328,6.617573388671874,9.78031378173828,122.9618320610687,35.47328244274809,-3.068702290076336
1749736781.1618865,2025-06-12 20:59:41.161,29.988823529411768,7.881711865234375,0.6416460449218749,6.847416748046874,112.70992366412214,22.862595419847327,-9.267175572519085
1749736781.1715202,2025-06-12 20:59:41.171,29.84764705882353,6.756437084960937,-0.16519991455078123,14.118607189941406,112.35114503816794,21.541984732824428,-7.412213740458015
1749736781.1811516,2025-06-12 20:59:41.181,29.89470588235294,13.311761230468749,-0.9840168823242187,15.974113476562499,123.82442748091603,18.16030534351145,0.4580152671755725
1749736781.1916833,2025-06-12 20:59:41.191,29.89470588235294,2.868253588867187,1.4006079711914061,19.61270144958496,115.95419847328245,92.3969465648855,1.1908396946564885
1749736781.201319,2025-06-12 20:59:41.201,29.84764705882353,18.452112194824217,-0.5003881469726562,7.223306408691406,120.12977099236642,69.65648854961832,-2.1297709923664123
1749736781.2110126,2025-06-12 20:59:41.211,30.03588235294118,-1.848323681640625,-1.668758557128906,5.195417602539062,123.29007633587786,33.16030534351145,-11.580152671755725
1749736781.2206454,2025-06-12 20:59:41.220,29.941764705882356,13.91749425048828,4.264073156738281,19.61270144958496,121.99236641221374,40.50381679389313,-13.412213740458014
1749736781.2302763,2025-06-12 20:59:41.230,29.89470588235294,19.59893479003906,2.990357873535156,19.194314709472653,123.10687022900764,85.54961832061069,-13.67175572519084
1749736781.2399855,2025-06-12 20:59:41.239,29.941764705882356,12.310984936523436,8.28633194580078,16.366762548828124,126.33587786259542,49.00763358778626,8.954198473282442
1749736781.249641,2025-06-12 20:59:41.249,29.800588235294118,12.543222497558594,-0.6607996582031249,14.250288281249999,110.78625954198473,72.68702290076335,-11.32824427480916
1749736781.259302,2025-06-12 20:59:41.259,29.89470588235294,9.100360510253905,-0.4644751220703125,19.61270144958496,113.85496183206106,50.9236641221374,-11.687022900763358
1749736781.2689428,2025-06-12 20:59:41.268,29.988823529411768,9.734823950195311,-1.668758557128906,18.768146813964844,123.22137404580153,65.53435114503817,-5.0458015267175576
1749736781.2785995,2025-06-12 20:59:41.278,29.89470588235294,16.998831787109374,4.857835168457031,17.228675146484374,127.70992366412214,64.68702290076335,-2.2977099236641223
1749736781.2882423,2025-06-12 20:59:41.288,29.941764705882356,18.145654382324217,1.6160861206054686,16.084246752929687,104.29007633587786,36.0,-5.206106870229007
1749736781.2979097,2025-06-12 20:59:41.297,29.941764705882356,8.901641772460938,-3.536235852050781,14.489708447265624,122.57251908396947,6.763358778625954,-9.15267175572519
1749736781.3075511,2025-06-12 20:59:41.307,29.988823529411768,17.314866406249998,-0.38786066894531246,19.47204210205078,127.19847328244275,8.030534351145038,7.633587786259542
1749736781.3171878,2025-06-12 20:59:41.317,29.84764705882353,9.629479077148437,5.844246252441406,1.5897499023437498,116.54198473282443,5.923664122137405,-13.67175572519084
1749736781.3268187,2025-06-12 20:59:41.326,29.941764705882356,-1.608903515625,0.6296750366210937,7.153874560546875,110.90076335877863,-5.404580152671755,-0.12213740458015267
1749736781.3364494,2025-06-12 20:59:41.336,29.941764705882356,-1.1947066284179686,-7.228094812011718,12.981361401367186,121.22900763358778,-8.305343511450381,-2.2213740458015265
1749736781.346134,2025-06-12 20:59:41.346,29.89470588235294,7.9272016967773435,0.833182177734375,12.69884560546875,113.34351145038168,-16.69465648854962,-9.198473282442748
1749736781.3557813,2025-06-12 20:59:41.355,29.89470588235294,2.5426421630859375,1.4173673828125,4.173093493652344,124.06106870229007,5.824427480916031,-1.1984732824427482
1749736781.365414,2025-06-12 20:59:41.365,29.753529411764706,2.7054478759765623,-1.2210428466796874,-0.24660277099609373,110.45801526717557,-38.11450381679389,-4.511450381679389
1749736781.3750794,2025-06-12 20:59:41.375,29.89470588235294,-1.668758557128906,-1.2761094848632812,-3.0980969482421874,112.76335877862596,-54.10687022900763,-4.847328244274809
1749736781.384718,2025-06-12 20:59:41.384,30.03588235294118,3.361459130859375,-4.125209460449218,19.227833532714843,132.0916030534351,-8.229007633587786,-8.916030534351146
1749736781.3943493,2025-06-12 20:59:41.394,29.941764705882356,14.70937644958496,2.3247698120117186,13.912705847167969,120.3206106870229,14.244274809160306,1.7938931297709924
1749736781.4045568,2025-06-12 20:59:41.404,29.988823529411768,19.61270144958496,8.750807067871094,19.61270144958496,101.69465648854961,81.08396946564885,-5.435114503816794
1749736781.414263,2025-06-12 20:59:41.414,29.941764705882356,9.03990691833496,-1.6998831787109374,19.61270144958496,116.53435114503817,30.564885496183205,-2.9083969465648853
1749736781.4239306,2025-06-12 20:59:41.423,29.941764705882356,17.51119094238281,-8.391676818847655,9.176974963378905,107.61832061068702,-31.480916030534353,-16.458015267175572
1749736781.4335887,2025-06-12 20:59:41.433,29.941764705882356,7.108384729003906,0.49320554199218747,19.61270144958496,116.5114503816794,-18.251908396946565,12.625954198473282
1749736781.443248,2025-06-12 20:59:41.443,29.84764705882353,17.7362458984375,-7.728482958984374,11.901576452636718,117.33587786259542,10.122137404580153,-6.519083969465649
1749736781.45289,2025-06-12 20:59:41.452,29.89470588235294,-2.427720483398437,0.13646949462890623,9.785102185058593,109.82442748091603,-37.045801526717554,-4.480916030534351
1749736781.4625623,2025-06-12 20:59:41.462,30.08294117647059,-5.774814404296874,-4.781220715332031,1.6328455322265625,122.80152671755725,-46.16793893129771,-13.106870229007633
1749736781.4722087,2025-06-12 20:59:41.472,30.03588235294118,-7.575254052734374,-3.1699229980468746,-2.8467057739257813,116.80916030534351,-82.7557251908397,-11.282442748091603
1749736781.4818416,2025-06-12 20:59:41.481,29.941764705882356,-0.1580173095703125,5.406107348632812,3.5865140869140624,124.37404580152672,-70.41984732824427,-0.7480916030534351
1749736781.4914742,2025-06-12 20:59:41.491,29.941764705882356,-13.625401647949218,-1.5394716674804687,-1.6065093139648436,109.56488549618321,-64.76335877862596,-11.297709923664122
1749736781.5011222,2025-06-12 20:59:41.501,29.941764705882356,-18.102558752441404,-3.8666356811523435,4.472368701171875,116.12977099236642,-77.04580152671755,-4.984732824427481
1749736781.5107675,2025-06-12 20:59:41.510,29.941764705882356,-4.819527941894531,0.8212111694335937,1.6112977172851561,126.70992366412214,-29.977099236641223,-2.763358778625954
1749736781.5203872,2025-06-12 20:59:41.520,29.988823529411768,-9.634267480468749,0.7254431030273437,-1.3096283081054687,107.69465648854961,-63.030534351145036,-0.17557251908396945
1749736781.5300443,2025-06-12 20:59:41.530,29.89470588235294,-0.01915361328125,-0.8068459594726562,2.0374656127929685,113.10687022900764,-63.97709923664122,0.183206106870229
1749736781.539693,2025-06-12 20:59:41.539,29.941764705882356,-9.785102185058593,-0.7326257080078125,3.268085266113281,126.64885496183206,-103.32824427480917,-2.6259541984732824
1749736781.549361,2025-06-12 20:59:41.549,29.941764705882356,-10.570400329589843,0.7158662963867187,1.3215993164062498,129.5114503816794,-7.068702290076335,8.198473282442748
1749736781.5590167,2025-06-12 20:59:41.559,29.988823529411768,-8.02536396484375,0.6919242797851562,-5.686228942871093,102.51908396946565,-34.81679389312977,-2.877862595419847
1749736781.5686827,2025-06-12 20:59:41.568,29.84764705882353,-1.6256629272460936,2.473210314941406,9.287108239746093,102.05343511450381,-62.7557251908397,-1.6946564885496183
1749736781.578319,2025-06-12 20:59:41.578,30.08294117647059,-6.375759020996093,-3.584119885253906,6.208164904785156,121.8473282442748,-90.97709923664122,3.7786259541984735
1749736781.587974,2025-06-12 20:59:41.587,29.941764705882356,-2.214636535644531,4.584896179199219,4.613626599121093,127.09923664122137,-14.259541984732824,3.549618320610687
1749736781.59762,2025-06-12 20:59:41.597,29.988823529411768,-6.789955908203124,-1.0749965454101562,-1.1013327636718748,99.6412213740458,-11.290076335877863,2.5267175572519083
1749736781.6072717,2025-06-12 20:59:41.607,29.988823529411768,1.0773907470703123,2.4684219116210935,3.782838623046875,111.27480916030534,-50.05343511450382,-0.5190839694656488
1749736781.6169353,2025-06-12 20:59:41.616,29.89470588235294,-7.3549875,-3.3782185424804685,14.60702432861328,124.83206106870229,-44.267175572519086,3.8702290076335877
1749736781.6271174,2025-06-12 20:59:41.627,29.89470588235294,-7.3094976684570305,0.948103857421875,-0.9050082275390624,116.0381679389313,-51.961832061068705,-0.16793893129770993
1749736781.6367724,2025-06-12 20:59:41.636,29.941764705882356,-19.6133,3.0933085449218747,8.971073620605468,100.46564885496183,-5.358778625954199,6.6106870229007635
1749736781.6464093,2025-06-12 20:59:41.646,29.941764705882356,-2.8107927490234372,-4.077325427246094,-1.3910311645507811,113.31297709923665,-35.29770992366412,-4.2748091603053435
1749736781.6562023,2025-06-12 20:59:41.656,29.941764705882356,-2.4564509033203126,-3.3255461059570313,9.97184991455078,125.29770992366412,-44.274809160305345,0.5954198473282443
1749736781.6658382,2025-06-12 20:59:41.665,30.03588235294118,7.809885815429687,0.7565677246093749,9.952696301269532,125.61068702290076,10.091603053435115,-0.46564885496183206
1749736781.675508,2025-06-12 20:59:41.675,29.941764705882356,-10.012551342773437,0.10295067138671875,0.3399766357421875,117.43511450381679,3.9236641221374047,-4.648854961832061
1749736781.6851735,2025-06-12 20:59:41.685,29.89470588235294,-6.562506750488281,0.29927520751953124,6.1842228881835934,114.07633587786259,-6.511450381679389,-5.2748091603053435
1749736781.6948268,2025-06-12 20:59:41.694,29.941764705882356,-5.542576843261719,-2.6527754394531247,9.859322436523437,127.00763358778626,-16.50381679389313,-1.8015267175572518
1749736781.7044983,2025-06-12 20:59:41.704,29.988823529411768,-7.42441934814453,3.5673604736328124,4.378994836425781,123.80152671755725,-9.709923664122137,-7.709923664122138
1749736781.7141593,2025-06-12 20:59:41.714,29.988823529411768,-11.06360587158203,0.7206546997070312,-0.23702596435546874,108.70229007633588,29.61832061068702,-0.9541984732824428
1749736781.7237701,2025-06-12 20:59:41.723,29.988823529411768,-7.184999182128906,-1.8291700683593748,3.7038299682617186,108.12977099236642,-18.236641221374047,-5.778625954198473
1749736781.733927,2025-06-12 20:59:41.733,29.941764705882356,-4.627991809082031,-1.927332336425781,2.987963671875,121.10687022900764,-65.3969465648855,1.900763358778626
1749736781.7435646,2025-06-12 20:59:41.743,29.988823529411768,-7.888894470214844,1.0558429321289062,6.038176586914062,112.5114503816794,-37.82442748091603,0.3435114503816794
1749736781.7532315,2025-06-12 20:59:41.753,29.89470588235294,-15.433023901367186,-0.9720458740234375,-6.87614716796875,109.25954198473282,-30.65648854961832,8.923664122137405
1749736781.7628708,2025-06-12 20:59:41.762,29.988823529411768,-9.318232861328125,0.39983167724609375,-0.3112462158203125,119.40458015267176,-12.274809160305344,-6.106870229007634
1749736781.772513,2025-06-12 20:59:41.772,29.988823529411768,-0.5219359619140624,-1.388636962890625,16.8168724609375,113.17557251908397,-46.38931297709924,4.33587786259542
1749736781.78215,2025-06-12 20:59:41.782,29.988823529411768,-2.1739351074218747,0.07422025146484375,6.7037646484375,123.59541984732824,-1.8625954198473282,-10.625954198473282
1749736781.7917914,2025-06-12 20:59:41.791,29.941764705882356,-4.7117888671875,5.501875415039062,4.886565588378906,124.0381679389313,44.48091603053435,-2.267175572519084
1749736781.801435,2025-06-12 20:59:41.801,29.988823529411768,-10.568006127929687,-7.445967163085937,-6.404489440917969,109.66412213740458,-19.16030534351145,-4.732824427480916
1749736781.8110785,2025-06-12 20:59:41.811,29.988823529411768,-16.218322045898436,-1.448492004394531,7.79552060546875,107.87022900763358,-73.37404580152672,-1.4961832061068703
1749736781.8207126,2025-06-12 20:59:41.820,30.03588235294118,-16.12015977783203,-2.4133552734375,4.908113403320312,112.82442748091603,-44.900763358778626,0.648854961832061
1749736781.830347,2025-06-12 20:59:41.830,30.03588235294118,2.2960393920898436,5.4779333984375,0.21308394775390624,111.45801526717557,-40.396946564885496,-7.748091603053435
1749736781.8406396,2025-06-12 20:59:41.840,29.988823529411768,7.254431030273437,3.375824340820312,9.540893615722656,118.97709923664122,-29.38167938931298,-1.9923664122137406
1749736781.8502886,2025-06-12 20:59:41.850,30.03588235294118,8.497021691894531,-0.055066638183593745,9.564835632324218,110.97709923664122,-36.93893129770992,-8.0
1749736781.8599317,2025-06-12 20:59:41.859,29.941764705882356,3.342305517578125,-1.8698714965820311,16.26141767578125,131.55725190839695,-31.48854961832061,-2.595419847328244
1749736781.8695664,2025-06-12 20:59:41.869,30.03588235294118,10.963049401855468,3.2345664428710936,8.872911352539061,107.6412213740458,3.801526717557252,-5.66412213740458
1749736781.8792036,2025-06-12 20:59:41.879,29.941764705882356,-3.6176387084960937,0.39743747558593745,10.754753857421875,109.3206106870229,-22.81679389312977,-7.068702290076335
1749736781.88884,2025-06-12 20:59:41.888,29.941764705882356,1.5945383056640625,-2.9640216552734375,8.116343627929687,115.19847328244275,-31.99236641221374,-2.519083969465649
1749736781.8984702,2025-06-12 20:59:41.898,30.08294117647059,7.311891870117187,2.1643583007812497,13.99410870361328,130.57251908396947,-14.916030534351146,1.083969465648855
1749736781.9081042,2025-06-12 20:59:41.908,30.08294117647059,1.8722656982421875,-0.05027823486328125,4.204218115234375,107.90839694656489,-33.67175572519084,-7.572519083969466
1749736781.9177434,2025-06-12 20:59:41.917,29.988823529411768,-3.8857892944335934,2.5713725830078125,-2.6384102294921874,118.41984732824427,-25.34351145038168,-0.5038167938931297
1749736781.9273825,2025-06-12 20:59:41.927,29.941764705882356,-3.35188232421875,-1.5753846923828123,6.0333881835937495,112.23664122137404,-13.893129770992367,-5.969465648854962
1749736781.9370162,2025-06-12 20:59:41.937,29.89470588235294,9.083601098632812,1.120486376953125,12.258312499999999,132.61832061068702,-36.48854961832061,-3.7480916030534353
1749736781.9473574,2025-06-12 20:59:41.947,29.941764705882356,6.224924316406249,3.6056677001953124,8.987833032226561,118.46564885496183,-26.69465648854962,1.549618320610687
1749736781.9570398,2025-06-12 20:59:41.957,30.03588235294118,-0.842758984375,-1.37906015625,4.3813890380859375,113.64885496183206,13.076335877862595,-8.49618320610687
1749736781.9667013,2025-06-12 20:59:41.966,29.941764705882356,-4.9823336547851556,1.1516109985351561,6.68461103515625,116.69465648854961,-36.38167938931298,-1.4580152671755726
1749736781.976358,2025-06-12 20:59:41.976,29.941764705882356,3.3782185424804685,-3.1196447631835937,7.812280017089844,117.79389312977099,-38.045801526717554,-0.26717557251908397
1749736781.9859624,2025-06-12 20:59:41.985,30.08294117647059,-1.4006079711914061,0.6943184814453125,7.618349682617187,118.02290076335878,10.992366412213741,-6.511450381679389
1749736781.995601,2025-06-12 20:59:41.995,29.89470588235294,-9.562441430664062,1.7094599853515624,1.9895815795898437,114.19083969465649,17.33587786259542,0.17557251908396945
1749736782.0052345,2025-06-12 20:59:42.005,29.988823529411768,-9.588777648925781,1.5610194824218748,1.7693150268554687,115.80916030534351,-17.244274809160306,-8.381679389312977
1749736782.014917,2025-06-12 20:59:42.014,29.941764705882356,-1.7573440185546874,-1.7381904052734374,18.780117822265623,121.22900763358778,29.03053435114504,-0.10687022900763359
1749736782.0245528,2025-06-12 20:59:42.024,29.89470588235294,15.751452722167969,0.6296750366210937,13.934253662109374,118.1526717557252,61.656488549618324,2.0839694656488548
1749736782.0341651,2025-06-12 20:59:42.034,29.988823529411768,11.863269226074218,-0.20829554443359374,19.546262353515623,94.82442748091603,58.267175572519086,19.389312977099237
1749736782.043798,2025-06-12 20:59:42.043,29.988823529411768,10.886434948730468,-3.8690298828125,5.604826086425781,114.85496183206106,-1.1221374045801527,-1.786259541984733
1749736782.0541255,2025-06-12 20:59:42.054,30.03588235294118,11.166556542968749,0.9816226806640624,19.61270144958496,119.33587786259542,21.52671755725191,1.3740458015267176
1749736782.0637634,2025-06-12 20:59:42.063,30.03588235294118,9.797073193359374,-1.6448165405273436,15.023615417480467,122.67175572519083,19.702290076335878,0.29770992366412213
1749736782.073403,2025-06-12 20:59:42.073,29.941764705882356,3.564966271972656,0.833182177734375,5.516240625,110.94656488549619,-11.129770992366412,-0.7404580152671756
1749736782.0830343,2025-06-12 20:59:42.083,29.941764705882356,-9.583989245605467,-1.2473790649414063,6.3901242309570305,107.27480916030534,-17.587786259541986,-5.312977099236641
1749736782.0926957,2025-06-12 20:59:42.092,30.03588235294118,-6.198588098144531,-2.7581203125,9.892841259765625,123.89312977099236,-43.56488549618321,-1.7938931297709924
1749736782.1023283,2025-06-12 20:59:42.102,30.03588235294118,-3.5027170288085934,0.9145850341796874,8.920795385742187,120.53435114503817,-25.96946564885496,3.0610687022900764
1749736782.111967,2025-06-12 20:59:42.111,29.941764705882356,1.2569558715820313,-0.46686932373046874,9.689334118652344,109.44274809160305,2.4885496183206106,7.916030534351145
1749736782.1216018,2025-06-12 20:59:42.121,30.03588235294118,-9.859322436523437,-4.441244079589843,-3.756502404785156,114.9618320610687,-48.083969465648856,-8.755725190839694
1749736782.1312337,2025-06-12 20:59:42.131,29.941764705882356,-13.199233752441405,-0.5099649536132812,3.366247534179687,121.22900763358778,-29.35114503816794,-3.7404580152671754
1749736782.1408713,2025-06-12 20:59:42.140,29.941764705882356,-6.414066247558593,-1.0031704956054688,6.236895324707031,103.58015267175573,-32.12213740458015,0.648854961832061
1749736782.1505654,2025-06-12 20:59:42.150,30.03588235294118,-9.418789331054686,1.0869675537109373,2.379836450195312,124.68702290076335,-24.84732824427481,-5.396946564885496
1749736782.160278,2025-06-12 20:59:42.160,29.988823529411768,-19.6133,0.8068459594726562,-7.359775903320312,114.8854961832061,-46.12977099236641,-0.37404580152671757
1749736782.1700535,2025-06-12 20:59:42.170,30.03588235294118,-6.076483813476562,-0.47884033203125,5.7077767578125,113.08396946564885,-83.45801526717557,-6.984732824427481
1749736782.1796978,2025-06-12 20:59:42.179,29.941764705882356,-12.792219470214842,-0.316034619140625,7.235277416992187,132.61832061068702,-25.198473282442748,-5.061068702290076
1749736782.1893332,2025-06-12 20:59:42.189,30.03588235294118,-7.242460021972656,6.426037255859375,8.197746484375,117.62595419847328,35.229007633587784,-3.435114503816794
1749736782.198967,2025-06-12 20:59:42.198,30.03588235294118,-15.014038610839842,1.1085153686523437,-5.128379956054687,114.0,4.526717557251908,-8.679389312977099
1749736782.2086096,2025-06-12 20:59:42.208,29.941764705882356,-5.884947680664062,0.15322890625,3.632003918457031,117.8473282442748,-0.5572519083969466,-9.213740458015268
1749736782.2182531,2025-06-12 20:59:42.218,30.03588235294118,-6.133944653320312,0.70868369140625,8.595183959960938,119.70229007633588,-3.5877862595419847,-1.8473282442748091
1749736782.2278883,2025-06-12 20:59:42.227,30.03588235294118,-4.311957189941406,1.905784521484375,3.134009973144531,113.22900763358778,-21.564885496183205,-3.885496183206107
1749736782.2375207,2025-06-12 20:59:42.237,29.988823529411768,-8.453926062011718,0.6248866333007812,-2.3774422485351563,111.38167938931298,-35.916030534351144,0.6870229007633588
1749736782.247153,2025-06-12 20:59:42.247,29.941764705882356,-10.534487304687499,-7.5465236328125,6.775590698242187,125.09160305343511,-17.076335877862597,-3.1297709923664123
1749736782.2567935,2025-06-12 20:59:42.256,29.941764705882356,-16.548721875,-1.4987702392578124,11.3772462890625,117.91603053435115,13.206106870229007,-1.4045801526717556
1749736782.266429,2025-06-12 20:59:42.266,29.988823529411768,-15.394716674804686,3.3351229125976563,0.7302315063476562,108.7557251908397,50.595419847328245,1.2900763358778626
1749736782.276345,2025-06-12 20:59:42.276,30.08294117647059,-12.514492077636717,-1.3359645263671873,2.1212626708984375,112.92366412213741,-26.480916030534353,-0.3511450381679389
1749736782.2859783,2025-06-12 20:59:42.285,30.03588235294118,-19.124882861328125,-4.891353991699218,0.3136404174804687,117.80152671755725,-13.106870229007633,-3.6259541984732824
1749736782.2956147,2025-06-12 20:59:42.295,29.988823529411768,-9.866505041503906,0.39743747558593745,8.271966735839843,111.55725190839695,-18.396946564885496,-1.2213740458015268
1749736782.3052452,2025-06-12 20:59:42.305,30.08294117647059,-7.922413293457031,4.278438366699218,-3.1124621582031247,114.37404580152672,-11.748091603053435,-9.34351145038168
1749736782.314879,2025-06-12 20:59:42.314,30.08294117647059,2.7437551025390623,-1.2689268798828124,8.966285217285156,130.06106870229007,64.00763358778626,-3.9236641221374047
1749736782.324507,2025-06-12 20:59:42.324,30.08294117647059,-5.384559533691406,0.229843359375,14.480131640624998,120.97709923664122,32.86259541984733,-8.297709923664122
1749736782.3341367,2025-06-12 20:59:42.334,29.988823529411768,16.960524560546872,-0.2561795776367187,19.54147395019531,123.7175572519084,98.6412213740458,-4.0534351145038165
1749736782.3437681,2025-06-12 20:59:42.343,29.941764705882356,19.49119571533203,5.204994409179688,15.64131944580078,107.86259541984732,23.099236641221374,-5.633587786259542
1749736782.3534122,2025-06-12 20:59:42.353,29.988823529411768,17.13530128173828,-2.281674182128906,7.587225061035156,116.48091603053435,4.236641221374046,-2.030534351145038
1749736782.363079,2025-06-12 20:59:42.363,29.988823529411768,7.915230688476562,-2.39420166015625,16.845602880859374,119.9618320610687,-46.29770992366412,-7.450381679389313
1749736782.372726,2025-06-12 20:59:42.372,29.941764705882356,0.7661445312499999,-0.93852705078125,16.160861206054687,118.83206106870229,3.854961832061069,0.007633587786259542
1749736782.382452,2025-06-12 20:59:42.382,30.03588235294118,12.104485043334961,4.517858532714843,15.397110876464843,119.18320610687023,-1.0,0.5572519083969466
1749736782.3921015,2025-06-12 20:59:42.392,30.03588235294118,2.3319524169921872,0.6560112548828124,2.9448680419921875,104.41984732824427,-60.66412213740458,-3.9083969465648853
1749736782.4017367,2025-06-12 20:59:42.401,30.03588235294118,-4.975151049804687,-2.6862942626953124,-1.7166425903320313,118.3587786259542,-96.22137404580153,-10.625954198473282
1749736782.411372,2025-06-12 20:59:42.411,29.941764705882356,-15.08586466064453,-0.8355763793945312,8.882488159179687,126.19847328244275,-62.93129770992366,-2.198473282442748
1749736782.421004,2025-06-12 20:59:42.421,30.03588235294118,-2.7461493041992187,2.2744915771484373,6.988674645996094,114.4885496183206,-23.450381679389313,-7.9541984732824424
1749736782.430642,2025-06-12 20:59:42.430,30.03588235294118,-14.829685083007812,4.874594580078124,-7.302315063476562,104.58778625954199,-45.82442748091603,-11.679389312977099
1749736782.4402745,2025-06-12 20:59:42.440,30.03588235294118,-6.983886242675781,-3.5865140869140624,7.345410693359375,115.50381679389314,-33.79389312977099,6.687022900763359
1749736782.4499228,2025-06-12 20:59:42.449,29.941764705882356,-3.897760302734375,-2.2266075439453124,6.433219860839843,119.77862595419847,-62.87786259541985,1.465648854961832
1749736782.4595973,2025-06-12 20:59:42.459,30.08294117647059,-9.447519750976562,-2.829946362304687,4.199429711914062,107.80152671755725,-8.82442748091603,8.946564885496183
1749736782.4692364,2025-06-12 20:59:42.469,30.03588235294118,3.6655227416992187,1.3120225097656248,11.571176623535155,120.31297709923665,27.50381679389313,3.1068702290076335
1749736782.4788697,2025-06-12 20:59:42.478,30.03588235294118,-8.104372619628906,-3.5601778686523438,0.814028564453125,113.25190839694656,-9.106870229007633,0.9694656488549618
1749736782.4891508,2025-06-12 20:59:42.489,29.988823529411768,0.22505495605468748,-1.1563994018554686,13.723563916015625,109.82442748091603,-42.35114503816794,3.351145038167939
1749736782.4987988,2025-06-12 20:59:42.498,29.89470588235294,-7.225700610351562,-1.9488801513671874,5.999869360351562,125.72519083969466,-51.229007633587784,10.969465648854962
1749736782.5084395,2025-06-12 20:59:42.508,29.988823529411768,0.21308394775390624,-0.6679822631835937,7.936778503417968,114.52671755725191,-3.435114503816794,1.4427480916030535
1749736782.5180798,2025-06-12 20:59:42.518,30.08294117647059,-3.5338416503906247,7.654262707519531,2.3965958618164063,120.4885496183206,24.106870229007633,-9.564885496183207
1749736782.527718,2025-06-12 20:59:42.527,29.988823529411768,-2.0446482177734375,-3.265691064453125,7.304709265136719,119.26717557251908,16.717557251908396,-5.0
1749736782.5373833,2025-06-12 20:59:42.537,30.03588235294118,4.766855505371093,0.18435352783203124,14.063540551757812,112.06870229007633,-9.030534351145038,2.145038167938931
1749736782.547022,2025-06-12 20:59:42.547,29.988823529411768,4.434061474609375,1.1061211669921875,8.710105639648438,121.38931297709924,24.114503816793892,-5.083969465648855
1749736782.5566764,2025-06-12 20:59:42.556,30.03588235294118,-4.450820886230469,2.9759926635742184,6.555324145507812,110.78625954198473,-1.748091603053435,-2.5114503816793894
1749736782.5663197,2025-06-12 20:59:42.566,30.03588235294118,4.426878869628906,0.9792284790039062,9.567229833984374,122.18320610687023,-9.931297709923664,-2.8244274809160306
1749736782.5759706,2025-06-12 20:59:42.575,29.84764705882353,-0.411802685546875,-2.7341782958984373,13.199233752441405,120.07633587786259,-23.435114503816795,-6.374045801526718
1749736782.5856087,2025-06-12 20:59:42.585,30.130000000000003,-0.6631938598632812,2.6192566162109374,6.253654736328125,118.8854961832061,15.122137404580153,-5.801526717557252
1749736782.595363,2025-06-12 20:59:42.595,30.03588235294118,-0.6081272216796875,1.8291700683593748,5.355829113769531,110.7175572519084,-24.66412213740458,0.5801526717557252
1749736782.6050067,2025-06-12 20:59:42.605,29.988823529411768,-6.842628344726562,-1.8818425048828125,2.185906115722656,117.12977099236642,-39.091603053435115,-8.511450381679388
1749736782.6146445,2025-06-12 20:59:42.614,30.08294117647059,-9.277531433105468,-1.8650830932617186,11.7603185546875,114.00763358778626,-6.847328244274809,-3.3435114503816794
1749736782.6242833,2025-06-12 20:59:42.624,29.89470588235294,0.4740519287109375,1.3670891479492187,6.53138212890625,123.21374045801527,31.46564885496183,9.801526717557252
1749736782.6339304,2025-06-12 20:59:42.633,29.988823529411768,-4.560954162597656,0.076614453125,5.365405920410156,107.3587786259542,8.267175572519085,-0.37404580152671757
1749736782.6435647,2025-06-12 20:59:42.643,29.988823529411768,2.29843359375,-0.35194764404296874,9.138667736816405,116.87786259541984,-15.229007633587786,-2.877862595419847
1749736782.6531942,2025-06-12 20:59:42.653,30.130000000000003,12.655749975585938,0.488417138671875,18.38687019958496,126.91603053435115,28.72519083969466,-5.465648854961832
1749736782.6628501,2025-06-12 20:59:42.662,29.941764705882356,13.936647863769531,-1.2832920898437499,10.448296044921875,122.02290076335878,25.900763358778626,-10.48091603053435
1749736782.672526,2025-06-12 20:59:42.672,29.988823529411768,1.3024457031249999,6.663063220214843,8.32463917236328,114.04580152671755,23.099236641221374,-2.564885496183206
1749736782.6821842,2025-06-12 20:59:42.682,30.130000000000003,10.752359655761719,-3.785232824707031,15.006856005859374,113.80152671755725,5.702290076335878,-5.351145038167939
1749736782.6918206,2025-06-12 20:59:42.691,30.130000000000003,13.306972827148437,1.20667763671875,18.564639672851563,121.51908396946565,22.34351145038168,-3.786259541984733
1749736782.7015316,2025-06-12 20:59:42.701,30.03588235294118,7.750030773925781,-1.43652099609375,14.240711474609375,116.47328244274809,54.412213740458014,7.641221374045801
1749736782.7112854,2025-06-12 20:59:42.711,30.08294117647059,8.968679418945312,3.181894006347656,11.073182678222656,112.16030534351145,13.84732824427481,0.3969465648854962
1749736782.7209337,2025-06-12 20:59:42.720,29.988823529411768,1.4939818359375,-2.8706477905273435,8.590395556640624,111.69465648854961,-5.435114503816794,-1.5725190839694656
1749736782.730578,2025-06-12 20:59:42.730,30.03588235294118,1.3575123413085937,-3.114856359863281,15.559916589355467,130.75572519083968,-27.427480916030536,-3.030534351145038
1749736782.7402163,2025-06-12 20:59:42.740,30.130000000000003,1.1324573852539062,5.7125651611328125,5.303156677246093,114.25190839694656,-2.7480916030534353,5.458015267175573
1749736782.7498605,2025-06-12 20:59:42.749,29.988823529411768,-0.2825157958984375,-0.105344873046875,9.888052856445311,95.16793893129771,19.35114503816794,9.290076335877863
1749736782.7595055,2025-06-12 20:59:42.759,29.988823529411768,2.6982652709960937,0.21308394775390624,5.4779333984375,107.19847328244275,-33.37404580152672,-1.5114503816793894
1749736782.7691483,2025-06-12 20:59:42.769,30.08294117647059,-9.686939916992188,-4.367023828124999,9.957484704589843,116.19847328244275,-14.16793893129771,-0.6793893129770993
1749736782.7787817,2025-06-12 20:59:42.778,30.08294117647059,-3.8379052612304685,1.3000515014648437,6.610390783691406,127.78625954198473,-17.198473282442748,-1.4198473282442747
1749736782.7884145,2025-06-12 20:59:42.788,29.988823529411768,-19.6133,-1.1468225952148436,-2.5450363647460934,116.41221374045801,31.412213740458014,-3.969465648854962
1749736782.7980468,2025-06-12 20:59:42.798,30.08294117647059,-14.398728784179687,2.0542250244140625,1.1348515869140625,114.70992366412214,16.53435114503817,-7.824427480916031
1749736782.8081393,2025-06-12 20:59:42.808,29.941764705882356,-15.907075830078124,-0.9337386474609375,7.151480358886718,125.29770992366412,-29.763358778625953,0.9236641221374046
1749736782.8177798,2025-06-12 20:59:42.817,30.08294117647059,-8.049305981445311,1.13006318359375,1.6424223388671875,127.40458015267176,-0.7709923664122137,5.938931297709924
1749736782.8279564,2025-06-12 20:59:42.827,30.03588235294118,-6.533776330566406,1.7357962036132812,2.2002713256835937,109.1526717557252,0.6870229007633588,-2.6412213740458017
1749736782.8376338,2025-06-12 20:59:42.837,30.03588235294118,1.7190367919921874,-0.5315127685546874,12.955025183105468,103.6030534351145,-31.66412213740458,-2.5877862595419847
1749736782.8473067,2025-06-12 20:59:42.847,30.08294117647059,9.86411083984375,-0.2705447875976562,15.873557006835936,132.7175572519084,-0.1297709923664122,2.5877862595419847
1749736782.8569567,2025-06-12 20:59:42.856,30.130000000000003,3.1172505615234374,6.3901242309570305,5.334281298828125,119.8854961832061,-9.50381679389313,2.0839694656488548
1749736782.8665864,2025-06-12 20:59:42.866,30.03588235294118,6.129156249999999,-2.2673089721679687,12.38520518798828,106.90839694656489,27.69465648854962,-5.587786259541985
1749736782.8762445,2025-06-12 20:59:42.876,30.03588235294118,0.9169792358398436,-1.8602946899414061,4.678270043945313,115.23664122137404,-31.358778625954198,-10.82442748091603
1749736782.8858812,2025-06-12 20:59:42.885,30.130000000000003,-0.9864110839843749,2.1308394775390624,12.76827745361328,126.03053435114504,-24.770992366412212,-1.4351145038167938
1749736782.895509,2025-06-12 20:59:42.895,30.130000000000003,5.8610056640625,2.3151930053710936,13.666103076171874,116.91603053435115,17.27480916030534,13.717557251908397
1749736782.9051518,2025-06-12 20:59:42.905,30.03588235294118,-6.777984899902344,2.250549560546875,1.6711527587890624,101.06870229007633,-16.83969465648855,3.7251908396946565
1749736782.9151354,2025-06-12 20:59:42.915,30.03588235294118,-4.802768530273437,-2.118868469238281,7.206546997070312,108.3206106870229,-61.94656488549618,-5.404580152671755
1749736782.924785,2025-06-12 20:59:42.924,30.03588235294118,-5.80354482421875,-1.3814543579101561,13.634978454589843,126.3206106870229,-19.748091603053435,-2.5877862595419847
1749736782.9344354,2025-06-12 20:59:42.934,29.84764705882353,-6.641515405273437,0.5770026000976562,8.403647827148436,113.14503816793894,10.86259541984733,-2.816793893129771
1749736782.94407,2025-06-12 20:59:42.944,30.130000000000003,-3.342305517578125,0.8571241943359375,10.611101757812499,110.6412213740458,57.74045801526717,9.16030534351145
1749736782.9537115,2025-06-12 20:59:42.953,30.03588235294118,-8.013392956542969,-2.1212626708984375,0.9864110839843749,117.02290076335878,-11.282442748091603,3.33587786259542
1749736782.963361,2025-06-12 20:59:42.963,30.03588235294118,-2.123656872558594,1.4532804077148436,7.0102224609374995,111.85496183206106,-24.85496183206107,-2.3587786259541983
1749736782.9730146,2025-06-12 20:59:42.973,29.988823529411768,1.8698714965820311,-0.34715924072265625,13.385981481933593,128.49618320610688,-15.32824427480916,-0.6870229007633588
1749736782.9826655,2025-06-12 20:59:42.982,30.03588235294118,-8.185775476074218,3.861847277832031,6.1076084350585935,120.20610687022901,35.17557251908397,-25.282442748091604
1749736782.9923587,2025-06-12 20:59:42.992,29.941764705882356,2.959233251953125,8.001421948242188,12.389993591308594,121.16030534351145,83.90076335877863,-1.7557251908396947
1749736783.0019941,2025-06-12 20:59:43.001,30.03588235294118,-0.5865794067382812,2.906560815429687,10.831368310546875,109.64885496183206,48.404580152671755,-9.473282442748092
1749736783.0116518,2025-06-12 20:59:43.011,30.03588235294118,1.5346832641601562,0.5602431884765625,19.61270144958496,109.41221374045801,40.67175572519084,-3.49618320610687
1749736783.0220773,2025-06-12 20:59:43.022,30.130000000000003,7.735665563964844,4.199429711914062,7.0461354858398435,114.41221374045801,64.33587786259542,-1.3282442748091603
1749736783.0317569,2025-06-12 20:59:43.031,29.988823529411768,-0.5099649536132812,5.384559533691406,12.90235274658203,117.92366412213741,32.52671755725191,-3.9923664122137406
1749736783.0413928,2025-06-12 20:59:43.041,30.08294117647059,1.4125789794921875,2.8203695556640622,11.659762084960937,113.36641221374046,29.30534351145038,-4.480916030534351
1749736783.0510294,2025-06-12 20:59:43.051,29.988823529411768,0.93852705078125,-8.40125362548828,19.364303027343748,124.67175572519083,62.87786259541985,0.8396946564885496
1749736783.0606742,2025-06-12 20:59:43.060,29.988823529411768,10.47702646484375,2.7653029174804686,12.526463085937499,112.9618320610687,67.41221374045801,6.061068702290076
1749736783.070305,2025-06-12 20:59:43.070,30.03588235294118,-6.732495068359374,-0.7302315063476562,3.768473413085937,103.8854961832061,41.404580152671755,-5.580152671755725
1749736783.0799315,2025-06-12 20:59:43.079,30.08294117647059,4.5585599609375,-3.124433166503906,18.20790362548828,115.13740458015268,0.6564885496183206,-1.6106870229007633
1749736783.0895588,2025-06-12 20:59:43.089,30.08294117647059,8.851363537597656,-0.5722141967773438,12.988544006347656,120.23664122137404,-6.99236641221374,-1.534351145038168
1749736783.0992546,2025-06-12 20:59:43.099,29.988823529411768,-3.0430303100585934,2.7437551025390623,3.816357446289062,114.30534351145039,-24.557251908396946,2.6946564885496183
1749736783.1089125,2025-06-12 20:59:43.108,30.08294117647059,-5.796362219238281,-1.0366893188476562,0.16759411621093748,116.46564885496183,-7.190839694656488,2.7480916030534353
1749736783.1185656,2025-06-12 20:59:43.118,29.988823529411768,0.05985504150390625,2.0733786376953125,0.49320554199218747,112.83206106870229,-53.69465648854962,-7.862595419847328
1749736783.1287506,2025-06-12 20:59:43.128,30.03588235294118,10.228029492187499,-4.659116430664063,19.61270144958496,117.44274809160305,-4.320610687022901,-4.977099236641221
1749736783.1383958,2025-06-12 20:59:43.138,30.03588235294118,-0.9648632690429687,-1.886630908203125,7.740453967285156,118.45038167938931,44.06870229007634,2.6717557251908395
1749736783.1480308,2025-06-12 20:59:43.148,30.03588235294118,-0.8858546142578124,7.3932947265625,7.9295958984374995,114.29007633587786,-0.8015267175572519,-11.366412213740459
1749736783.1577475,2025-06-12 20:59:43.157,29.988823529411768,16.728286999511717,1.24498486328125,19.61270144958496,110.69465648854961,29.091603053435115,3.519083969465649
1749736783.1673863,2025-06-12 20:59:43.167,29.941764705882356,12.476184851074217,-2.6599580444335937,9.65282254333496,115.45038167938931,-58.274809160305345,-6.282442748091603
1749736783.1771138,2025-06-12 20:59:43.177,30.08294117647059,18.078616735839844,2.1811177124023438,15.734693310546874,131.34351145038167,19.27480916030534,7.877862595419847
1749736783.1868289,2025-06-12 20:59:43.186,30.130000000000003,7.333439685058593,-2.6384102294921874,13.412317700195311,113.25190839694656,35.900763358778626,8.16793893129771
1749736783.1965003,2025-06-12 20:59:43.196,30.03588235294118,5.777208605957031,-2.844311572265625,11.61906065673828,95.86259541984732,-20.137404580152673,3.122137404580153
1749736783.206143,2025-06-12 20:59:43.206,30.03588235294118,-0.9528922607421875,-2.5258827514648434,9.720458740234374,121.37404580152672,-30.412213740458014,1.1908396946564885
1749736783.2157724,2025-06-12 20:59:43.215,30.03588235294118,-2.906560815429687,-1.16837041015625,6.763619689941406,125.16030534351145,-41.961832061068705,9.511450381679388
1749736783.2254152,2025-06-12 20:59:43.225,30.03588235294118,-1.5729904907226562,6.687005236816406,3.3446997192382812,93.93129770992367,-20.732824427480917,-6.206106870229007
1749736783.2355804,2025-06-12 20:59:43.235,30.130000000000003,-1.956062756347656,-3.421314172363281,13.433865515136718,113.94656488549619,-36.786259541984734,-2.854961832061069
1749736783.2452183,2025-06-12 20:59:43.245,30.130000000000003,4.129997863769531,-1.8626888916015625,14.70937644958496,123.70229007633588,-28.938931297709924,-4.244274809160306
1749736783.2548585,2025-06-12 20:59:43.254,29.988823529411768,4.244919543457031,2.9544448486328125,8.166621862792969,119.7557251908397,-5.526717557251908,3.687022900763359
1749736783.2645013,2025-06-12 20:59:43.264,30.08294117647059,14.456189624023436,-1.216254443359375,17.7362458984375,101.54198473282443,3.9923664122137406,2.885496183206107
1749736783.2741313,2025-06-12 20:59:43.274,30.130000000000003,0.6512228515624999,2.89219560546875,-0.5099649536132812,111.68702290076335,-35.091603053435115,0.2366412213740458
1749736783.2837586,2025-06-12 20:59:43.283,29.941764705882356,6.83783994140625,-0.0383072265625,19.61270144958496,102.30534351145039,-62.465648854961835,-2.633587786259542
1749736783.2933838,2025-06-12 20:59:43.293,30.03588235294118,2.221819140625,0.7781155395507812,10.608707556152343,125.70229007633588,-13.923664122137405,2.6412213740458017
1749736783.3030095,2025-06-12 20:59:43.303,30.03588235294118,-0.411802685546875,1.3670891479492187,11.597512841796874,108.3969465648855,39.98473282442748,4.877862595419847
1749736783.3126338,2025-06-12 20:59:43.312,30.03588235294118,-11.566388220214844,-4.498704919433593,-8.21690009765625,112.55725190839695,-42.16030534351145,-12.022900763358779
1749736783.3222618,2025-06-12 20:59:43.322,29.941764705882356,-8.75320126953125,-2.29843359375,5.604826086425781,115.38931297709924,-49.52671755725191,-1.4580152671755726
1749736783.3318863,2025-06-12 20:59:43.331,30.03588235294118,-8.635885388183594,-2.308010400390625,3.404554760742187,120.16793893129771,-32.954198473282446,-6.679389312977099
1749736783.3417034,2025-06-12 20:59:43.341,29.988823529411768,-1.5227122558593749,4.862623571777344,-1.5945383056640625,112.3969465648855,-6.6106870229007635,1.282442748091603
1749736783.3514419,2025-06-12 20:59:43.351,29.988823529411768,-2.250549560546875,0.6488286499023437,2.9975404785156248,107.79389312977099,-73.09923664122137,-7.427480916030534
1749736783.3613284,2025-06-12 20:59:43.361,29.988823529411768,-11.482591162109374,-2.6719290527343746,7.790732202148437,120.38167938931298,-84.03053435114504,-7.694656488549619
1749736783.3709717,2025-06-12 20:59:43.370,30.03588235294118,-13.201627954101562,0.9265560424804687,7.5153990112304685,127.64885496183206,-18.458015267175572,-7.580152671755725
1749736783.380624,2025-06-12 20:59:43.380,30.130000000000003,-7.876923461914062,8.386888415527343,0.7829039428710937,113.01526717557252,-9.80916030534351,-5.083969465648855
1749736783.3902557,2025-06-12 20:59:43.390,30.03588235294118,-4.781220715332031,0.46208092041015625,4.6064439941406246,111.21374045801527,26.290076335877863,-4.32824427480916
1749736783.3998873,2025-06-12 20:59:43.399,30.130000000000003,-4.031835595703125,-2.7198130859375,13.350068457031249,122.58778625954199,9.358778625954198,-10.114503816793894
1749736783.4095182,2025-06-12 20:59:43.409,30.03588235294118,2.032677209472656,1.1061211669921875,15.322890625,124.66412213740458,51.13740458015267,-4.755725190839694
1749736783.419145,2025-06-12 20:59:43.419,30.03588235294118,5.286397265624999,2.7054478759765623,15.327679028320311,111.62595419847328,80.38931297709924,-4.091603053435114
1749736783.4287717,2025-06-12 20:59:43.428,30.03588235294118,-1.0103531005859374,1.879448303222656,9.239224206542968,131.40458015267177,68.17557251908397,-5.824427480916031
1749736783.4383996,2025-06-12 20:59:43.438,30.03588235294118,19.469647900390623,-0.7230489013671875,18.62210051269531,105.87022900763358,63.83206106870229,-0.08396946564885496
1749736783.448027,2025-06-12 20:59:43.448,30.03588235294118,19.60132899169922,3.797203833007812,19.61270144958496,132.4351145038168,22.267175572519083,2.618320610687023
1749736783.4576848,2025-06-12 20:59:43.457,30.03588235294118,19.61270144958496,3.3207577026367185,19.61270144958496,109.63358778625954,28.572519083969464,-3.5114503816793894
1749736783.4673522,2025-06-12 20:59:43.467,29.988823529411768,16.953341955566405,8.738836059570312,9.682151513671874,118.45038167938931,-23.587786259541986,-4.67175572519084
1749736783.4769843,2025-06-12 20:59:43.476,30.130000000000003,10.57219598083496,0.8379705810546875,6.356605407714843,116.14503816793894,-43.14503816793893,-6.00763358778626
1749736783.486614,2025-06-12 20:59:43.486,30.08294117647059,9.03990691833496,-2.4444798950195312,9.49959363708496,117.13740458015268,-68.25190839694656,0.7938931297709924
1749736783.4962575,2025-06-12 20:59:43.496,30.03588235294118,14.34605634765625,-0.5506663818359374,5.391742138671875,109.63358778625954,-63.20610687022901,-2.2900763358778624
1749736783.50594,2025-06-12 20:59:43.505,29.988823529411768,-2.834734765625,1.697488977050781,-2.492363928222656,119.86259541984732,-66.82442748091603,0.6641221374045801
1749736783.5155957,2025-06-12 20:59:43.515,30.08294117647059,-11.573570825195311,-0.24660277099609373,9.861716638183593,108.12213740458016,-87.58778625954199,-0.7022900763358778
1749736783.5252516,2025-06-12 20:59:43.525,30.08294117647059,-8.444349255371094,-5.367800122070312,6.442796667480469,124.77862595419847,-51.20610687022901,7.450381679389313
1749736783.534894,2025-06-12 20:59:43.534,30.03588235294118,0.05985504150390625,6.0333881835937495,-1.5921441040039062,114.9618320610687,-46.01526717557252,-6.2748091603053435
1749736783.544529,2025-06-12 20:59:43.544,30.08294117647059,-6.3901242309570305,1.4915876342773438,0.44532150878906246,110.02290076335878,-35.80152671755725,-1.1984732824427482
1749736783.5541654,2025-06-12 20:59:43.554,30.08294117647059,1.889025109863281,-4.69263525390625,8.798691101074219,114.4885496183206,-21.076335877862597,-6.458015267175573
1749736783.5638118,2025-06-12 20:59:43.563,30.08294117647059,1.2904746948242187,0.7230489013671875,15.31570802001953,121.8854961832061,-13.404580152671755,3.3206106870229006
1749736783.5735343,2025-06-12 20:59:43.573,30.08294117647059,2.0566192260742184,1.618480322265625,9.102754711914063,116.90076335877863,45.41984732824427,1.8702290076335877
1749736783.5831692,2025-06-12 20:59:43.583,30.03588235294118,-3.3111808959960936,3.277662072753906,4.42448466796875,108.58778625954199,1.450381679389313,1.083969465648855
1749736783.592797,2025-06-12 20:59:43.592,30.03588235294118,2.712630480957031,-1.4796166259765624,9.057264880371093,116.45038167938931,-36.05343511450382,-4.7251908396946565
1749736783.6024241,2025-06-12 20:59:43.602,30.08294117647059,8.200140686035155,-4.177881896972656,18.99978582458496,138.1145038167939,19.595419847328245,-3.045801526717557
1749736783.6120522,2025-06-12 20:59:43.612,30.08294117647059,9.835380419921874,3.768473413085937,7.64229169921875,106.80916030534351,26.0381679389313,4.534351145038168
1749736783.6216774,2025-06-12 20:59:43.621,30.08294117647059,4.6064439941406246,-0.5219359619140624,8.710105639648438,112.0381679389313,29.3206106870229,4.2748091603053435
1749736783.6312995,2025-06-12 20:59:43.631,30.08294117647059,8.453926062011718,0.33039982910156246,17.233463549804686,110.42748091603053,-30.65648854961832,-1.0076335877862594
1749736783.6409242,2025-06-12 20:59:43.640,29.988823529411768,12.387599389648436,1.0702081420898437,15.667655664062499,125.8854961832061,-30.82442748091603,-1.5877862595419847
1749736783.6505494,2025-06-12 20:59:43.650,30.08294117647059,0.44053310546874996,-0.35194764404296874,8.59997236328125,114.45801526717557,34.50381679389313,9.732824427480915
1749736783.6601753,2025-06-12 20:59:43.660,30.08294117647059,3.268085266113281,2.877830395507812,1.6998831787109374,107.44274809160305,0.1450381679389313,-1.6106870229007633
1749736783.6698146,2025-06-12 20:59:43.669,29.988823529411768,4.7931917236328125,0.41419688720703124,11.015721838378905,110.09160305343511,-31.015267175572518,-7.717557251908397
1749736783.6795037,2025-06-12 20:59:43.679,30.08294117647059,11.130643518066405,-1.1563994018554686,19.457676892089843,129.15267175572518,-14.82442748091603,7.32824427480916
1749736783.6891654,2025-06-12 20:59:43.689,30.03588235294118,10.311826550292968,3.287238879394531,9.976638317871092,110.45038167938931,18.549618320610687,4.99236641221374
1749736783.6988034,2025-06-12 20:59:43.698,30.130000000000003,-3.5697546752929687,-0.15322890625,1.7836802368164062,105.89312977099236,-12.610687022900763,-1.9465648854961832
1749736783.7084503,2025-06-12 20:59:43.708,30.130000000000003,7.096413720703125,-4.177881896972656,9.682151513671874,113.74045801526718,-35.48854961832061,-5.366412213740458
1749736783.7181141,2025-06-12 20:59:43.718,30.130000000000003,8.329427575683594,-0.0430956298828125,19.282900170898436,123.03053435114504,-36.01526717557252,1.3969465648854962
1749736783.7277536,2025-06-12 20:59:43.727,30.08294117647059,1.39821376953125,1.438915197753906,6.691793640136718,116.17557251908397,-0.5954198473282443,2.122137404580153
1749736783.7373874,2025-06-12 20:59:43.737,30.130000000000003,-2.104503259277344,0.00239420166015625,7.709329345703124,107.70992366412214,13.282442748091603,4.656488549618321
1749736783.7470322,2025-06-12 20:59:43.747,30.03588235294118,-4.735730883789063,-1.6472107421875,3.227383837890625,111.34351145038168,-17.603053435114504,-0.8854961832061069
1749736783.7566803,2025-06-12 20:59:43.756,30.130000000000003,-4.290409374999999,-0.009576806640625,16.227898852539063,127.38931297709924,-26.267175572519083,1.3740458015267176
1749736783.7663245,2025-06-12 20:59:43.766,30.08294117647059,1.1180921752929687,3.2704794677734372,9.938331091308592,114.86259541984732,-0.2900763358778626,9.50381679389313
1749736783.7759714,2025-06-12 20:59:43.775,30.03588235294118,10.412383020019531,-0.27293898925781246,15.792154150390624,91.70229007633588,11.13740458015267,17.03053435114504
1749736783.7857492,2025-06-12 20:59:43.785,30.08294117647059,-6.004657763671875,-6.157886669921875,3.42849677734375,111.43511450381679,-50.908396946564885,5.320610687022901
1749736783.795392,2025-06-12 20:59:43.795,30.130000000000003,-1.3766659545898436,-5.173869787597656,4.165910888671875,121.07633587786259,-59.541984732824424,-5.2748091603053435
1749736783.8050249,2025-06-12 20:59:43.805,30.03588235294118,-2.798821740722656,2.4133552734375,7.948749511718749,117.38167938931298,-40.11450381679389,-6.900763358778626
1749736783.8146749,2025-06-12 20:59:43.814,30.03588235294118,-15.495273144531248,-0.43574470214843747,-2.375048046875,111.4885496183206,-34.465648854961835,-1.2671755725190839
1749736783.8243139,2025-06-12 20:59:43.824,30.130000000000003,-9.859322436523437,3.622427111816406,-4.180276098632812,115.66412213740458,-71.09923664122137,-8.740458015267176
1749736783.833966,2025-06-12 20:59:43.833,30.130000000000003,-1.209071838378906,-2.1021090576171875,14.204798449707031,116.97709923664122,-20.984732824427482,-3.8091603053435112
1749736783.8436122,2025-06-12 20:59:43.843,30.03588235294118,-1.5370774658203123,-0.7661445312499999,9.191340173339842,118.6030534351145,-1.2290076335877862,-4.931297709923665
1749736783.853243,2025-06-12 20:59:43.853,30.03588235294118,-9.184157568359375,3.1100679565429687,7.206546997070312,110.45801526717557,-3.5114503816793894,6.877862595419847
1749736783.8629127,2025-06-12 20:59:43.862,30.08294117647059,-16.34282053222656,-0.6847416748046875,1.687912170410156,111.95419847328245,5.122137404580153,-0.06870229007633588
1749736783.872586,2025-06-12 20:59:43.872,30.08294117647059,-10.812214697265624,-2.080561242675781,3.5338416503906247,119.10687022900764,-18.15267175572519,-0.22900763358778625
1749736783.8822577,2025-06-12 20:59:43.882,30.08294117647059,-0.258573779296875,-0.22026655273437498,15.734693310546874,116.29770992366412,-6.435114503816794,0.7862595419847328
1749736783.8920004,2025-06-12 20:59:43.892,30.130000000000003,-4.039018200683594,3.124433166503906,3.0933085449218747,112.36641221374046,31.564885496183205,-5.00763358778626
1749736783.9016628,2025-06-12 20:59:43.901,30.03588235294118,-15.212757348632811,-0.34237083740234375,-2.43250888671875,113.74045801526718,-8.801526717557252,-2.7480916030534353
1749736783.9113293,2025-06-12 20:59:43.911,30.03588235294118,-9.775525378417969,-4.199429711914062,13.146561315917968,119.69465648854961,-7.717557251908397,-2.0229007633587788
1749736783.9209564,2025-06-12 20:59:43.920,30.08294117647059,-0.201112939453125,1.9943699829101562,10.218452685546874,120.87022900763358,28.00763358778626,-13.16030534351145
1749736783.9306133,2025-06-12 20:59:43.930,30.03588235294118,-10.412383020019531,-1.8435352783203125,6.572083557128906,102.27480916030534,22.709923664122137,10.740458015267176
1749736783.9402583,2025-06-12 20:59:43.940,30.130000000000003,-19.56781016845703,0.1292868896484375,-7.371746911621093,118.87786259541984,2.435114503816794,-8.557251908396946
1749736783.9498832,2025-06-12 20:59:43.949,30.03588235294118,-18.332402111816407,-2.138022082519531,2.291250988769531,118.41984732824427,-4.763358778625954,-8.870229007633588
1749736783.9595141,2025-06-12 20:59:43.959,30.03588235294118,-9.370905297851563,1.7597382202148437,7.690175732421874,114.30534351145039,5.702290076335878,1.3206106870229009
1749736783.969156,2025-06-12 20:59:43.969,30.03588235294118,10.721235034179687,0.4860229370117187,16.86236229248047,107.83969465648855,20.404580152671755,6.083969465648855
1749736783.978783,2025-06-12 20:59:43.978,30.03588235294118,-2.990357873535156,5.03740029296875,4.627991809082031,107.97709923664122,-29.900763358778626,-0.2595419847328244
1749736783.9884076,2025-06-12 20:59:43.988,30.08294117647059,-2.0374656127929685,-9.993397729492187,10.587159741210938,117.5114503816794,-49.786259541984734,-2.83206106870229
1749736783.9981213,2025-06-12 20:59:43.998,30.08294117647059,1.7597382202148437,1.8124106567382812,5.6407391113281244,126.26717557251908,-19.47328244274809,-9.206106870229007
1749736784.0077581,2025-06-12 20:59:44.007,30.08294117647059,7.230489013671875,4.479551306152343,9.466673364257812,112.2824427480916,12.541984732824428,-7.183206106870229
1749736784.0173886,2025-06-12 20:59:44.017,30.130000000000003,1.0223241088867188,-3.047818713378906,0.8762778076171874,102.97709923664122,-31.114503816793892,-6.6183206106870225
1749736784.0270205,2025-06-12 20:59:44.027,30.224117647058826,-9.488221179199218,-4.8698061767578125,3.4093431640625,127.67175572519083,-49.847328244274806,-7.480916030534351
1749736784.036652,2025-06-12 20:59:44.036,30.130000000000003,0.19393033447265623,-1.7190367919921874,5.53539423828125,117.70229007633588,-28.16793893129771,-3.4580152671755724
1749736784.0462801,2025-06-12 20:59:44.046,30.03588235294118,-7.070077502441406,2.4205378784179685,4.012681982421875,105.96946564885496,-10.16030534351145,-4.793893129770993
1749736784.055947,2025-06-12 20:59:44.055,30.03588235294118,-3.744531396484375,5.494692810058593,4.417302062988281,119.16030534351145,3.2290076335877864,-5.267175572519084
1749736784.0655935,2025-06-12 20:59:44.065,30.03588235294118,-13.244723583984374,-1.599326708984375,10.730811840820312,116.22137404580153,-32.94656488549618,-3.0839694656488548
1749736784.0752676,2025-06-12 20:59:44.075,30.08294117647059,-11.748347546386718,1.0965443603515623,8.652644799804687,119.44274809160305,46.88549618320611,-5.625954198473282
1749736784.0848975,2025-06-12 20:59:44.084,30.130000000000003,7.196970190429687,2.4396914916992185,10.153809240722655,101.93129770992367,112.29007633587786,8.50381679389313
1749736784.0945232,2025-06-12 20:59:44.094,30.130000000000003,5.5258174316406246,-0.1771709228515625,8.8489693359375,115.57251908396947,27.541984732824428,-3.0229007633587788
1749736784.104184,2025-06-12 20:59:44.104,30.130000000000003,0.6105214233398437,-2.308010400390625,8.391676818847655,114.72519083969466,-18.984732824427482,-10.022900763358779
1749736784.1138496,2025-06-12 20:59:44.113,30.177058823529414,0.2825157958984375,0.967257470703125,11.985373510742187,125.22900763358778,5.5038167938931295,-2.633587786259542
1749736784.1234837,2025-06-12 20:59:44.123,30.08294117647059,7.086836914062499,2.2481553588867187,13.661314672851562,107.3969465648855,33.89312977099237,0.8625954198473282
1749736784.1331148,2025-06-12 20:59:44.133,30.08294117647059,9.60793126220703,3.4093431640625,10.618284362792968,114.90076335877863,13.0,0.6564885496183206
1749736784.1427464,2025-06-12 20:59:44.142,30.130000000000003,0.3016694091796875,-1.5562310791015623,9.658209497070311,114.66412213740458,-18.603053435114504,-4.564885496183206
1749736784.1523912,2025-06-12 20:59:44.152,30.03588235294118,-3.284844677734375,-1.4173673828125,10.168174450683592,129.06106870229007,-25.717557251908396,-6.603053435114504
1749736784.1620271,2025-06-12 20:59:44.162,30.08294117647059,1.9584569580078124,1.5251064575195312,1.0702081420898437,108.57251908396947,-43.37404580152672,-7.022900763358779
1749736784.1716788,2025-06-12 20:59:44.171,30.08294117647059,-11.69567510986328,3.5817256835937497,-0.02633621826171875,107.40458015267176,-57.961832061068705,-1.8549618320610688
1749736784.1813154,2025-06-12 20:59:44.181,30.03588235294118,-12.397176196289061,1.695094775390625,1.707065783691406,120.87022900763358,-72.61068702290076,-10.061068702290076
1749736784.19095,2025-06-12 20:59:44.190,30.03588235294118,-11.461043347167967,-3.5793314819335937,6.5385647338867185,119.01526717557252,-20.587786259541986,-2.7404580152671754
1749736784.2005816,2025-06-12 20:59:44.200,30.130000000000003,-3.536235852050781,1.8746598999023436,0.11731588134765625,123.29770992366412,-23.0381679389313,-6.068702290076335
1749736784.2102935,2025-06-12 20:59:44.210,30.130000000000003,-15.5144267578125,2.664746447753906,-2.442085693359375,115.03053435114504,-31.30534351145038,0.6641221374045801
1749736784.2199314,2025-06-12 20:59:44.219,30.08294117647059,-12.167332836914062,-2.597708801269531,4.302380383300781,110.12977099236642,-39.89312977099237,-4.282442748091603
1749736784.2295675,2025-06-12 20:59:44.229,30.08294117647059,-10.091559997558592,-2.2026655273437497,8.537723120117187,131.25954198473283,-21.27480916030534,2.732824427480916
1749736784.239203,2025-06-12 20:59:44.239,30.08294117647059,-9.660603698730467,1.446097802734375,2.7916391357421872,116.18320610687023,33.55725190839695,5.297709923664122
1749736784.248831,2025-06-12 20:59:44.248,30.03588235294118,-10.726023437499999,3.3638533325195312,8.267178332519531,107.22137404580153,16.755725190839694,-1.1984732824427482
1749736784.2584617,2025-06-12 20:59:44.258,30.03588235294118,-11.298237634277344,0.35194764404296874,8.583212951660157,112.81679389312977,-3.1755725190839694,-2.50381679389313
1749736784.2681584,2025-06-12 20:59:44.268,30.08294117647059,-12.339715356445312,-0.38307226562499996,12.53843409423828,119.58015267175573,-7.702290076335878,-2.49618320610687
1749736784.277825,2025-06-12 20:59:44.277,29.988823529411768,-4.240131140136718,2.5641899780273434,7.161057165527343,122.12213740458016,35.83969465648855,-5.282442748091603
1749736784.2874668,2025-06-12 20:59:44.287,30.177058823529414,-6.282385156249999,3.9360675292968748,-6.342240197753906,111.22137404580153,13.320610687022901,0.6870229007633588
1749736784.2971003,2025-06-12 20:59:44.297,29.988823529411768,-5.054159704589844,-0.8834604125976562,11.317391247558593,126.08396946564885,5.114503816793893,-4.824427480916031
1749736784.306776,2025-06-12 20:59:44.306,30.130000000000003,-3.4524387939453125,0.08858546142578125,13.450624926757811,131.31297709923663,19.908396946564885,-10.297709923664122
1749736784.31645,2025-06-12 20:59:44.316,30.08294117647059,-6.1842228881835934,5.386953735351562,6.141127258300781,110.1145038167939,29.52671755725191,0.3053435114503817
1749736784.326132,2025-06-12 20:59:44.326,30.130000000000003,10.505756884765624,5.588066674804687,7.165845568847656,116.59541984732824,70.47328244274809,-0.15267175572519084
1749736784.3357987,2025-06-12 20:59:44.335,30.130000000000003,15.789759948730469,-1.2018892333984375,19.517531933593748,112.74045801526718,41.343511450381676,-1.984732824427481
1749736784.3454342,2025-06-12 20:59:44.345,30.03588235294118,10.27830772705078,0.18435352783203124,19.563021765136718,118.47328244274809,57.70992366412214,-2.312977099236641
1749736784.3550677,2025-06-12 20:59:44.355,30.130000000000003,1.216254443359375,2.844311572265625,14.046781140136718,118.68702290076335,91.92366412213741,3.946564885496183
1749736784.364697,2025-06-12 20:59:44.364,30.03588235294118,9.751583361816406,4.395754248046875,3.0933085449218747,109.54198473282443,57.48091603053435,2.282442748091603
1749736784.374346,2025-06-12 20:59:44.374,30.08294117647059,6.045359191894531,-4.2688615600585935,15.732299108886718,105.72519083969466,4.251908396946565,3.1297709923664123
1749736784.3840044,2025-06-12 20:59:44.384,30.08294117647059,7.44357296142578,-2.051830822753906,8.090007409667969,123.21374045801527,26.51145038167939,-2.3740458015267176
1749736784.4003332,2025-06-12 20:59:44.400,30.03588235294118,-11.111489904785156,-0.30885201416015623,-1.5227122558593749,97.00763358778626,-16.229007633587788,8.374045801526718
1749736784.4101036,2025-06-12 20:59:44.410,30.08294117647059,-2.9089550170898435,-1.7453730102539062,1.9704279663085937,108.80152671755725,-54.97709923664122,-2.16793893129771
1749736784.4197834,2025-06-12 20:59:44.419,30.130000000000003,-8.113949426269532,-3.0502129150390624,8.935160595703124,124.64885496183206,-45.41984732824427,1.9541984732824427
1749736784.4303153,2025-06-12 20:59:44.430,30.08294117647059,-8.090007409667969,1.2401964599609374,1.189918225097656,123.38167938931298,-43.80152671755725,3.984732824427481
1749736784.4399555,2025-06-12 20:59:44.439,30.130000000000003,-6.361393811035156,3.9935283691406247,-1.7310078002929687,105.64885496183206,-33.465648854961835,3.549618320610687
1749736784.4495993,2025-06-12 20:59:44.449,30.130000000000003,-10.702081420898438,-5.05655390625,4.697423657226563,107.94656488549619,-52.49618320610687,-3.519083969465649
1749736784.4592447,2025-06-12 20:59:44.459,30.130000000000003,-11.959037292480469,-4.244919543457031,8.202534887695313,134.82442748091603,-43.396946564885496,-11.633587786259541
1749736784.468931,2025-06-12 20:59:44.468,30.03588235294118,-1.8435352783203125,11.089942089843749,2.0374656127929685,128.1908396946565,32.97709923664122,17.580152671755727
1749736784.4785874,2025-06-12 20:59:44.478,30.08294117647059,6.567295153808593,-2.6192566162109374,10.448296044921875,97.64885496183206,7.694656488549619,5.534351145038168
1749736784.488273,2025-06-12 20:59:44.488,30.130000000000003,-1.4532804077148436,-2.43250888671875,15.083470458984374,99.06106870229007,-47.01526717557252,3.122137404580153
1749736784.497909,2025-06-12 20:59:44.497,30.130000000000003,-4.010287780761718,1.8124106567382812,7.244854223632812,118.12213740458016,-102.16030534351145,6.877862595419847
1749736784.5075505,2025-06-12 20:59:44.507,30.03588235294118,-9.622296472167967,0.6584054565429687,3.248931652832031,107.02290076335878,-33.6412213740458,15.595419847328245
1749736784.5171893,2025-06-12 20:59:44.517,30.03588235294118,-4.460397692871093,2.1452046874999997,2.9640216552734375,106.44274809160305,-8.633587786259541,-1.2671755725190839
1749736784.526819,2025-06-12 20:59:44.526,30.08294117647059,-8.128314636230469,-2.461239306640625,2.916137622070312,113.17557251908397,-38.93129770992366,-3.045801526717557
1749736784.5364585,2025-06-12 20:59:44.536,30.130000000000003,-0.43574470214843747,-2.1021090576171875,11.439495532226562,128.3053435114504,2.3893129770992365,-5.862595419847328
1749736784.5475895,2025-06-12 20:59:44.547,30.08294117647059,-0.5003881469726562,-1.7357962036132812,5.190629199218749,112.14503816793894,39.89312977099237,3.954198473282443
1749736784.5572124,2025-06-12 20:59:44.557,30.08294117647059,-5.935225915527344,6.9168485961914055,6.768408093261718,101.94656488549619,-30.908396946564885,8.717557251908397
1749736784.5668595,2025-06-12 20:59:44.566,30.130000000000003,-13.077129467773437,-2.8131869506835936,-5.078101721191406,107.58778625954199,-84.12213740458016,-0.7557251908396947
1749736784.5764842,2025-06-12 20:59:44.576,30.08294117647059,0.3902548706054687,-1.908178723144531,9.64623848876953,129.06106870229007,-87.54198473282443,-6.015267175572519
1749736784.5861056,2025-06-12 20:59:44.586,30.08294117647059,-11.233594189453123,-0.6775590698242188,-0.5195417602539062,110.9618320610687,-54.916030534351144,4.297709923664122
1749736784.595729,2025-06-12 20:59:44.595,30.130000000000003,-19.52471453857422,-1.879448303222656,-14.15452021484375,114.55725190839695,-77.54198473282443,-0.2824427480916031
1749736784.6053631,2025-06-12 20:59:44.605,30.08294117647059,-13.249511987304686,-3.545812658691406,-7.149086157226562,108.45038167938931,-82.04580152671755,-6.6106870229007635
1749736784.6149795,2025-06-12 20:59:44.614,30.03588235294118,-18.468871606445312,0.3950432739257812,7.975085729980468,122.10687022900764,-14.549618320610687,-4.190839694656488
1749736784.6245837,2025-06-12 20:59:44.624,30.03588235294118,-16.8168724609375,4.271255761718749,3.9552211425781247,126.20610687022901,54.02290076335878,6.809160305343512
1749736784.6341877,2025-06-12 20:59:44.634,30.08294117647059,-9.610325463867188,1.0749965454101562,3.383006945800781,96.56488549618321,49.81679389312977,2.8702290076335877
1749736784.643793,2025-06-12 20:59:44.643,30.08294117647059,-6.3901242309570305,-0.8930372192382812,13.436259716796874,109.05343511450381,-7.656488549618321,3.183206106870229
1749736784.6534345,2025-06-12 20:59:44.653,30.08294117647059,4.359841223144531,-0.36152445068359373,8.808267907714843,127.9618320610687,-30.85496183206107,-0.45038167938931295
1749736784.6630409,2025-06-12 20:59:44.663,30.03588235294118,-0.97683427734375,3.447650390625,9.330203869628905,118.47328244274809,12.633587786259541,5.8396946564885495
1749736784.6726599,2025-06-12 20:59:44.672,30.08294117647059,4.355052819824219,-1.1444283935546875,13.113042492675781,110.55725190839695,60.16030534351145,7.534351145038168
1749736784.6822658,2025-06-12 20:59:44.682,30.130000000000003,0.46686932373046874,-3.754108203125,4.958391638183594,105.69465648854961,-3.2213740458015265,-4.6106870229007635
1749736784.6918716,2025-06-12 20:59:44.691,30.130000000000003,1.9704279663085937,-1.4508862060546874,14.09646082458496,127.90076335877863,-26.30534351145038,-1.816793893129771
1749736784.701476,2025-06-12 20:59:44.701,30.130000000000003,10.517727893066406,-1.6807295654296874,13.393164086914062,116.55725190839695,15.633587786259541,11.793893129770993
1749736784.711084,2025-06-12 20:59:44.711,30.08294117647059,12.998120812988281,-2.2673089721679687,11.568782421875,96.82442748091603,20.31297709923664,-1.618320610687023
1749736784.7207031,2025-06-12 20:59:44.720,30.177058823529414,-6.828263134765624,-2.722207287597656,-3.835511059570312,111.77099236641222,-61.404580152671755,-3.50381679389313
1749736784.7303069,2025-06-12 20:59:44.730,30.130000000000003,8.94473740234375,-1.3120225097656248,11.329362255859374,124.40458015267176,-20.786259541984734,-16.52671755725191
1749736784.739912,2025-06-12 20:59:44.739,30.177058823529414,3.2345664428710936,0.16759411621093748,11.906364855957031,122.98473282442748,3.3282442748091605,-2.900763358778626
1749736784.749534,2025-06-12 20:59:44.749,30.08294117647059,-0.5482721801757812,7.548917834472656,11.875240234375,124.40458015267176,37.6793893129771,-3.7709923664122136
1749736784.7591698,2025-06-12 20:59:44.759,30.08294117647059,-3.9743747558593747,-3.852270471191406,6.208164904785156,111.36641221374046,32.221374045801525,-3.183206106870229
1749736784.768807,2025-06-12 20:59:44.768,30.03588235294118,3.469198205566406,-2.3511060302734372,11.918335864257811,118.68702290076335,12.320610687022901,-15.442748091603054
1749736784.7784395,2025-06-12 20:59:44.778,30.08294117647059,3.1555577880859373,0.8643067993164062,11.664550488281249,117.21374045801527,24.870229007633586,-2.4885496183206106
1749736784.7880793,2025-06-12 20:59:44.788,30.08294117647059,-0.9888052856445312,5.102043737792968,8.487444885253906,122.85496183206106,40.18320610687023,4.877862595419847
1749736784.79771,2025-06-12 20:59:44.797,30.177058823529414,1.8507178833007811,-1.6160861206054686,-0.19871873779296872,108.80916030534351,31.16793893129771,-8.450381679389313
1749736784.807387,2025-06-12 20:59:44.807,30.177058823529414,0.42377369384765623,-0.12210428466796874,15.58385860595703,117.13740458015268,32.42748091603053,-6.748091603053435
1749736784.8170192,2025-06-12 20:59:44.817,30.08294117647059,6.078878015136718,1.5945383056640625,19.455282690429687,111.9618320610687,45.16030534351145,-5.236641221374046
1749736784.826652,2025-06-12 20:59:44.826,30.177058823529414,-11.413159313964844,-1.927332336425781,7.637503295898437,121.22900763358778,56.20610687022901,0.16030534351145037
1749736784.8362827,2025-06-12 20:59:44.836,30.08294117647059,1.7621324218749999,2.4899697265625,0.34237083740234375,114.42748091603053,38.93893129770992,-8.335877862595419
1749736784.8459296,2025-06-12 20:59:44.845,30.177058823529414,1.946485949707031,1.2904746948242187,12.80658468017578,120.1145038167939,37.770992366412216,-1.1908396946564885
1749736784.8555996,2025-06-12 20:59:44.855,30.08294117647059,4.024652990722656,-0.737414111328125,16.2805712890625,126.2824427480916,25.50381679389313,-7.1679389312977095
1749736784.8658206,2025-06-12 20:59:44.865,30.03588235294118,-4.005499377441406,3.5673604736328124,-2.2098481323242187,111.99236641221374,-27.793893129770993,9.053435114503817
1749736784.875416,2025-06-12 20:59:44.875,30.130000000000003,-5.97592734375,9.217676391601563,7.400477331542969,121.16793893129771,22.96946564885496,-9.687022900763358
1749736784.8850627,2025-06-12 20:59:44.885,30.03588235294118,-3.488351818847656,1.9009961181640624,7.659051110839843,112.80152671755725,23.770992366412212,-1.3282442748091603
1749736784.8946884,2025-06-12 20:59:44.894,30.03588235294118,4.900930798339844,-2.3295582153320313,15.002067602539062,115.74045801526718,47.70992366412214,2.3893129770992365
1749736784.9043274,2025-06-12 20:59:44.904,30.08294117647059,5.078101721191406,3.1794998046874996,11.724405529785155,109.95419847328245,47.656488549618324,-11.526717557251908
1749736784.913961,2025-06-12 20:59:44.913,30.130000000000003,-2.068590234375,0.8092401611328125,12.026074938964843,118.3206106870229,30.83969465648855,0.3511450381679389
1749736784.9236035,2025-06-12 20:59:44.923,30.130000000000003,-4.649539624023437,1.5825672973632812,4.8506525634765625,112.02290076335878,6.061068702290076,-4.633587786259542
1749736784.933236,2025-06-12 20:59:44.933,30.08294117647059,6.512228515625,-5.4707507934570305,15.380351464843748,117.22900763358778,-10.442748091603054,-6.580152671755725
1749736784.942874,2025-06-12 20:59:44.942,30.130000000000003,1.7645266235351562,3.9552211425781247,9.399635717773437,125.01526717557252,87.80916030534351,-10.98473282442748
1749736784.9525201,2025-06-12 20:59:44.952,30.08294117647059,-3.5889082885742187,-0.3711012573242187,11.992556115722655,116.43511450381679,38.32824427480916,-1.5801526717557253
1749736784.962212,2025-06-12 20:59:44.962,30.130000000000003,6.962338427734375,-2.01112939453125,10.412383020019531,106.59541984732824,32.57251908396947,-6.526717557251908
1749736784.9726052,2025-06-12 20:59:44.972,30.130000000000003,9.540893615722656,1.3168109130859373,17.0467158203125,121.79389312977099,16.50381679389313,-4.312977099236641
1749736784.9822457,2025-06-12 20:59:44.982,30.224117647058826,5.145139367675781,-0.0718260498046875,15.87834541015625,122.29007633587786,75.38931297709924,8.648854961832061
1749736784.9918776,2025-06-12 20:59:44.991,30.130000000000003,8.79150849609375,1.3838485595703125,12.212822668457031,106.3969465648855,57.083969465648856,1.1145038167938932
1749736785.0015144,2025-06-12 20:59:45.001,30.224117647058826,-0.6775590698242188,1.707065783691406,6.191405493164062,112.59541984732824,-3.3053435114503817,-2.213740458015267
1749736785.0111454,2025-06-12 20:59:45.011,30.130000000000003,-3.380612744140625,-5.3007624755859375,15.030798022460937,115.45801526717557,-21.229007633587788,-5.114503816793893
1749736785.0208087,2025-06-12 20:59:45.020,30.130000000000003,6.0884548217773435,6.868964562988281,14.700398193359375,130.54961832061068,68.09160305343511,-10.083969465648854
1749736785.0304396,2025-06-12 20:59:45.030,30.130000000000003,6.0884548217773435,6.926425402832031,16.03636271972656,104.4885496183206,46.94656488549618,-0.6335877862595419
1749736785.0400722,2025-06-12 20:59:45.040,30.130000000000003,6.28178660583496,-1.1276689819335937,19.61270144958496,104.6412213740458,51.48091603053435,0.9770992366412213
1749736785.0497015,2025-06-12 20:59:45.049,30.03588235294118,9.33978067626953,-5.53539423828125,19.61270144958496,127.2442748091603,4.137404580152672,-1.6259541984732824
1749736785.059353,2025-06-12 20:59:45.059,30.08294117647059,13.843273999023436,-0.6248866333007812,12.104485043334961,113.73282442748092,-35.79389312977099,0.1450381679389313
1749736785.0689814,2025-06-12 20:59:45.068,30.03588235294118,2.7078420776367187,-1.6472107421875,5.461173986816406,123.35114503816794,0.6946564885496184,-5.351145038167939
1749736785.0786424,2025-06-12 20:59:45.078,30.03588235294118,-16.041151123046873,-1.8531120849609375,4.515464331054687,101.09160305343511,62.29007633587786,2.3206106870229006
1749736785.0890532,2025-06-12 20:59:45.089,30.130000000000003,2.001552587890625,-6.49307490234375,15.433023901367186,129.80152671755727,1.8854961832061068,-4.198473282442748
1749736785.0986965,2025-06-12 20:59:45.098,30.130000000000003,5.6766521362304685,-0.13646949462890623,9.665392102050781,124.31297709923665,-12.282442748091603,-1.465648854961832
1749736785.108334,2025-06-12 20:59:45.108,30.03588235294118,-11.77228956298828,7.410054138183593,7.431601953125,102.66412213740458,-24.80916030534351,-4.778625954198473
1749736785.1179674,2025-06-12 20:59:45.117,30.177058823529414,-6.1842228881835934,1.9536685546875,-1.16837041015625,111.99236641221374,-11.022900763358779,-12.091603053435115
1749736785.127607,2025-06-12 20:59:45.127,30.08294117647059,-4.65432802734375,-3.9887399658203124,9.557653027343749,122.38931297709924,-13.687022900763358,-2.7099236641221376
1749736785.1372464,2025-06-12 20:59:45.137,30.130000000000003,8.183381274414062,4.316745593261719,9.758765966796874,128.87786259541986,-3.404580152671756,-4.801526717557252
1749736785.1469128,2025-06-12 20:59:45.146,30.130000000000003,0.9648632690429687,2.123656872558594,11.508927380371093,114.74045801526718,55.80916030534351,-11.16793893129771
1749736785.1565416,2025-06-12 20:59:45.156,30.08294117647059,7.917624890136718,2.0446482177734375,15.519215161132811,105.25190839694656,-5.587786259541985,-3.2595419847328246
1749736785.1661725,2025-06-12 20:59:45.166,30.08294117647059,3.2130186279296873,-3.6727053466796873,16.56787548828125,120.86259541984732,2.0381679389312977,-4.770992366412214
1749736785.1758049,2025-06-12 20:59:45.175,30.130000000000003,-5.609614489746093,2.288856787109375,1.6232687255859375,125.57251908396947,21.480916030534353,5.152671755725191
1749736785.1854455,2025-06-12 20:59:45.185,30.08294117647059,-6.002263562011718,1.5346832641601562,0.8954314208984374,113.35114503816794,0.8549618320610687,-11.679389312977099
1749736785.1958559,2025-06-12 20:59:45.195,30.130000000000003,-3.6080619018554687,-0.15562310791015624,9.847351428222655,108.51908396946565,-48.465648854961835,-13.076335877862595
1749736785.2054892,2025-06-12 20:59:45.205,30.177058823529414,8.544905725097657,1.0845733520507812,19.61270144958496,126.06106870229007,-13.34351145038168,-1.1450381679389312
1749736785.2151194,2025-06-12 20:59:45.215,30.130000000000003,-0.7709329345703124,1.7980454467773437,12.090718383789062,117.13740458015268,10.86259541984733,2.900763358778626
1749736785.2247527,2025-06-12 20:59:45.224,30.08294117647059,-6.950367419433594,0.7445967163085937,0.86191259765625,110.02290076335878,15.030534351145038,7.633587786259542
1749736785.234386,2025-06-12 20:59:45.234,30.08294117647059,-0.7637503295898437,-4.541800549316406,8.042123376464843,102.5114503816794,-49.099236641221374,2.1908396946564888
1749736785.2440202,2025-06-12 20:59:45.244,30.08294117647059,14.123395593261717,-1.3239935180664062,12.255918298339843,123.31297709923665,-56.74045801526717,1.900763358778626
1749736785.2536507,2025-06-12 20:59:45.253,30.177058823529414,-9.165003955078124,3.0430303100585934,9.583989245605467,115.87786259541984,-61.30534351145038,3.83206106870229
1749736785.2632918,2025-06-12 20:59:45.263,30.08294117647059,-11.219228979492186,-0.6823474731445313,-8.614337573242187,108.41221374045801,-22.480916030534353,-1.549618320610687
1749736785.2729213,2025-06-12 20:59:45.272,30.08294117647059,-4.187458703613281,-2.8945898071289062,9.955090502929687,112.77099236641222,-84.22137404580153,-7.114503816793893
1749736785.2825654,2025-06-12 20:59:45.282,30.177058823529414,-0.9552864624023437,-1.426944189453125,9.986215124511718,122.77862595419847,-18.50381679389313,0.366412213740458
1749736785.2921965,2025-06-12 20:59:45.292,30.08294117647059,-2.6527754394531247,2.789244934082031,7.3837179199218745,119.30534351145039,3.717557251908397,8.374045801526718
1749736785.3018296,2025-06-12 20:59:45.301,30.08294117647059,-1.3742717529296875,-0.2537853759765625,6.306327172851562,109.50381679389314,2.030534351145038,1.3740458015267176
1749736785.312151,2025-06-12 20:59:45.312,30.130000000000003,2.118868469238281,-2.6048914062499997,15.485696337890625,107.01526717557252,-5.6106870229007635,-3.4427480916030535
1749736785.3217883,2025-06-12 20:59:45.321,30.130000000000003,9.813832604980469,0.8571241943359375,18.41859337158203,124.96946564885496,-0.7709923664122137,3.946564885496183
1749736785.3314366,2025-06-12 20:59:45.331,30.130000000000003,6.593631372070312,5.549759448242187,8.465897070312499,128.12977099236642,27.27480916030534,-10.282442748091603
1749736785.3410654,2025-06-12 20:59:45.341,30.130000000000003,2.5546131713867184,2.1356278808593747,5.360617517089843,110.07633587786259,45.83969465648855,-6.1603053435114505
1749736785.3506918,2025-06-12 20:59:45.350,30.130000000000003,8.214505895996094,-5.346252307128906,11.73398233642578,111.56488549618321,-14.465648854961833,0.4122137404580153
1749736785.3603282,2025-06-12 20:59:45.360,30.130000000000003,8.080430603027343,1.3479355346679687,18.152836987304685,121.58778625954199,10.412213740458014,5.900763358778626
1749736785.3699596,2025-06-12 20:59:45.369,30.130000000000003,4.733336682128906,2.999934680175781,7.649474304199218,112.20610687022901,27.412213740458014,-7.763358778625954
1749736785.3796222,2025-06-12 20:59:45.379,30.130000000000003,-0.5363011718749999,4.592078784179687,14.39633458251953,108.86259541984732,86.23664122137404,12.15267175572519
1749736785.3892536,2025-06-12 20:59:45.389,30.130000000000003,7.419630944824219,-2.43250888671875,16.390704565429687,99.17557251908397,7.877862595419847,5.66412213740458
1749736785.398885,2025-06-12 20:59:45.398,30.130000000000003,10.251971508789062,-1.6903063720703124,15.16906316833496,120.61832061068702,-38.01526717557252,4.458015267175573
1749736785.4085417,2025-06-12 20:59:45.408,30.177058823529414,8.267178332519531,0.6009446166992187,11.389217297363281,104.85496183206106,14.404580152671755,8.740458015267176
1749736785.419088,2025-06-12 20:59:45.419,30.08294117647059,6.442796667480469,3.7205893798828122,9.612719665527344,109.74809160305344,47.0,-2.198473282442748
1749736785.4288676,2025-06-12 20:59:45.428,30.177058823529414,8.980650427246093,-2.0278888061523435,14.35802735595703,119.14503816793894,-23.587786259541986,-6.221374045801527
1749736785.438516,2025-06-12 20:59:45.438,30.177058823529414,4.446032482910156,1.0438719238281249,19.61270144958496,119.14503816793894,-1.9770992366412214,-2.183206106870229
1749736785.4481533,2025-06-12 20:59:45.448,30.130000000000003,7.560888842773437,-0.3806780639648437,9.787496386718749,111.96946564885496,38.732824427480914,5.587786259541985
1749736785.457786,2025-06-12 20:59:45.457,30.130000000000003,6.2201359130859375,1.9919757812499999,8.750807067871094,110.6412213740458,-5.0458015267175576,-3.7251908396946565
1749736785.4674218,2025-06-12 20:59:45.467,30.130000000000003,3.9887399658203124,0.46208092041015625,4.671087438964843,118.67175572519083,-26.33587786259542,-2.404580152671756
1749736785.47705,2025-06-12 20:59:45.477,30.130000000000003,1.924938134765625,-0.4429273071289062,13.63677410583496,119.19847328244275,-36.221374045801525,-0.6870229007633588
1749736785.486679,2025-06-12 20:59:45.486,30.224117647058826,0.35673604736328124,0.3327940307617187,9.507374792480467,108.1145038167939,30.633587786259543,-1.4961832061068703
1749736785.4963396,2025-06-12 20:59:45.496,30.130000000000003,6.49307490234375,3.1866824096679687,8.537723120117187,109.8473282442748,8.572519083969466,2.900763358778626
1749736785.505979,2025-06-12 20:59:45.505,30.03588235294118,5.312733483886719,-2.5713725830078125,6.177040283203125,113.51908396946565,-12.16030534351145,-2.8931297709923665
1749736785.5156167,2025-06-12 20:59:45.515,30.130000000000003,-1.5945383056640625,-3.086125939941406,9.612719665527344,120.22900763358778,-42.343511450381676,2.595419847328244
1749736785.525992,2025-06-12 20:59:45.525,30.08294117647059,13.48414375,-1.659181750488281,17.865532788085936,113.22900763358778,58.97709923664122,2.9389312977099236
1749736785.5356004,2025-06-12 20:59:45.535,30.130000000000003,5.044582897949218,-1.1180921752929687,16.46492481689453,108.19083969465649,56.465648854961835,4.33587786259542
1749736785.5453002,2025-06-12 20:59:45.545,30.130000000000003,-6.766013891601562,-1.9536685546875,11.353304272460937,114.30534351145039,7.9465648854961835,-3.0610687022900764
1749736785.5549593,2025-06-12 20:59:45.554,30.03588235294118,3.8235400512695312,-1.5873557006835937,16.08843660583496,118.2442748091603,-22.625954198473284,3.7786259541984735
1749736785.5645928,2025-06-12 20:59:45.564,30.130000000000003,5.683834741210937,0.7398083129882812,9.464279162597656,117.57251908396947,-0.732824427480916,0.7251908396946565
1749736785.574218,2025-06-12 20:59:45.574,30.130000000000003,-0.8164227661132812,4.350264416503906,11.58075343017578,118.87786259541984,13.229007633587786,0.9465648854961832
1749736785.5838482,2025-06-12 20:59:45.583,30.224117647058826,-1.3646949462890625,-2.3343466186523436,10.046070166015625,114.47328244274809,14.419847328244275,-3.50381679389313
1749736785.5934792,2025-06-12 20:59:45.593,30.130000000000003,2.767697119140625,-0.14604630126953125,6.924031201171875,118.16793893129771,-23.84732824427481,-7.3816793893129775
1749736785.6031084,2025-06-12 20:59:45.603,30.130000000000003,-1.6017209106445311,1.7501614135742187,10.326191760253906,118.97709923664122,-5.4961832061068705,-11.17557251908397
1749736785.6127374,2025-06-12 20:59:45.612,30.03588235294118,11.470620153808593,-2.061407629394531,12.279860314941406,125.73282442748092,78.97709923664122,-3.7251908396946565
1749736785.6223817,2025-06-12 20:59:45.622,30.08294117647059,1.407790576171875,3.038241906738281,8.161833459472655,109.67175572519083,46.274809160305345,-4.6106870229007635
1749736785.6326213,2025-06-12 20:59:45.632,30.03588235294118,-3.9791631591796874,-0.040701428222656245,15.43062969970703,112.86259541984732,-19.015267175572518,-2.931297709923664
1749736785.6421607,2025-06-12 20:59:45.642,30.130000000000003,6.155492468261718,-1.6352397338867186,19.603723193359375,130.7175572519084,40.47328244274809,-2.931297709923664
1749736785.65181,2025-06-12 20:59:45.651,30.130000000000003,-2.2553379638671873,5.0182466796875,11.889605444335936,121.73282442748092,59.343511450381676,-11.86259541984733
1749736785.6614666,2025-06-12 20:59:45.661,30.224117647058826,2.6671406494140624,-1.5921441040039062,12.483367456054687,110.1145038167939,98.90076335877863,-7.603053435114504
1749736785.6711175,2025-06-12 20:59:45.671,30.130000000000003,15.23909356689453,-5.121197351074218,12.145785021972655,120.90076335877863,59.412213740458014,-2.3969465648854964
1749736785.6807468,2025-06-12 20:59:45.680,30.177058823529414,15.370774658203125,4.00310517578125,18.41380496826172,121.31297709923665,37.80916030534351,3.4885496183206106
1749736785.6903713,2025-06-12 20:59:45.690,30.08294117647059,12.916717956542968,4.266467358398438,10.98699141845703,119.02290076335878,32.85496183206107,-5.702290076335878
1749736785.7000017,2025-06-12 20:59:45.700,30.177058823529414,4.817133740234374,2.0781670410156248,10.55364091796875,114.22137404580153,30.64885496183206,-7.633587786259542
1749736785.709635,2025-06-12 20:59:45.709,30.08294117647059,8.580818749999999,0.16280571289062498,19.61270144958496,119.06106870229007,11.572519083969466,-7.885496183206107
1749736785.719269,2025-06-12 20:59:45.719,30.177058823529414,12.411541406249999,2.942473840332031,19.536685546875,116.58778625954199,55.01526717557252,-4.152671755725191
1749736785.7288976,2025-06-12 20:59:45.728,30.08294117647059,10.036493359375,4.838681555175781,15.20078634033203,119.03053435114504,47.23664122137404,-11.061068702290076
1749736785.7385287,2025-06-12 20:59:45.738,30.08294117647059,3.5122938354492184,2.212242333984375,11.271901416015623,116.95419847328245,57.99236641221374,-8.900763358778626
1749736785.7487602,2025-06-12 20:59:45.748,30.130000000000003,3.4620156005859375,-4.994304663085937,17.49203732910156,125.94656488549619,68.25954198473282,-4.0534351145038165
1749736785.7584062,2025-06-12 20:59:45.758,30.130000000000003,17.623718420410157,1.6543933471679686,18.918981518554688,124.62595419847328,75.19847328244275,1.0
1749736785.7680783,2025-06-12 20:59:45.768,30.224117647058826,2.8371289672851563,0.3447650390625,11.654973681640625,120.70992366412214,74.46564885496183,-12.916030534351146
1749736785.7777565,2025-06-12 20:59:45.777,30.130000000000003,1.5873557006835937,1.3958195678710936,6.301538769531249,113.1145038167939,32.97709923664122,-5.4961832061068705
1749736785.7874038,2025-06-12 20:59:45.787,30.130000000000003,11.111489904785156,-4.508281726074219,19.30624363708496,115.23664122137404,11.82442748091603,-0.4122137404580153
1749736785.7970352,2025-06-12 20:59:45.797,30.130000000000003,14.695609790039061,1.0965443603515623,15.535974572753906,122.33587786259542,7.450381679389313,-3.717557251908397
1749736785.806666,2025-06-12 20:59:45.806,30.130000000000003,-5.137956762695312,3.1220389648437497,1.0965443603515623,116.03053435114504,0.8854961832061069,-1.4274809160305344
1749736785.8162956,2025-06-12 20:59:45.816,30.130000000000003,-5.377376928710937,-1.3383587280273437,6.414066247558593,120.32824427480917,34.83969465648855,-8.15267175572519
1749736785.825941,2025-06-12 20:59:45.825,30.03588235294118,-5.487510205078125,-6.49307490234375,8.611943371582031,115.3969465648855,-16.404580152671755,-3.267175572519084
1749736785.8355808,2025-06-12 20:59:45.835,30.130000000000003,3.0430303100585934,-1.5083470458984374,4.484339709472656,115.73282442748092,-55.51908396946565,-0.5801526717557252
1749736785.845213,2025-06-12 20:59:45.845,30.03588235294118,-10.453084448242187,8.092401611328125,2.2649147705078123,116.94656488549619,-7.564885496183206,-11.557251908396946
1749736785.8557007,2025-06-12 20:59:45.855,30.08294117647059,-3.4835634155273434,-2.6240450195312497,2.6431986328124997,116.70229007633588,34.213740458015266,-10.900763358778626
1749736785.865373,2025-06-12 20:59:45.865,30.08294117647059,13.613430639648437,-2.3439234252929686,19.61270144958496,130.59541984732823,76.05343511450381,-4.114503816793893
1749736785.8750036,2025-06-12 20:59:45.875,30.177058823529414,19.61270144958496,2.8107927490234372,19.61270144958496,114.53435114503817,64.3206106870229,1.0
1749736785.8846335,2025-06-12 20:59:45.884,30.08294117647059,6.016628771972656,1.1037269653320312,11.310208642578125,114.61068702290076,44.221374045801525,-4.961832061068702
1749736785.894264,2025-06-12 20:59:45.894,30.130000000000003,5.099649536132812,-2.1906945190429687,2.0087351928710935,124.51908396946565,20.03053435114504,-6.587786259541985
1749736785.9038956,2025-06-12 20:59:45.903,30.130000000000003,-1.4508862060546874,-2.099714855957031,12.04762275390625,122.68702290076335,-15.229007633587786,-10.351145038167939
1749736785.9135182,2025-06-12 20:59:45.913,30.08294117647059,-10.189722265624999,1.1156979736328125,7.879317663574218,102.43511450381679,-27.450381679389313,2.6030534351145036
1749736785.9231606,2025-06-12 20:59:45.923,30.03588235294118,7.48906279296875,2.157175695800781,5.224148022460938,125.35114503816794,22.977099236641223,3.16793893129771
1749736785.9327915,2025-06-12 20:59:45.932,30.130000000000003,-17.427393884277343,2.094926452636719,-2.664746447753906,113.95419847328245,-12.633587786259541,-2.6412213740458017
1749736785.9424176,2025-06-12 20:59:45.942,30.130000000000003,-9.030928662109375,-1.1085153686523437,8.846575134277343,108.6412213740458,-42.16030534351145,-6.114503816793893
1749736785.952045,2025-06-12 20:59:45.952,30.130000000000003,4.2137949218749995,-1.4030021728515625,7.943961108398437,135.0,-8.15267175572519,-3.6030534351145036
1749736785.9616761,2025-06-12 20:59:45.961,30.130000000000003,1.649604943847656,1.5705962890624998,13.702016101074218,125.32824427480917,1.5725190839694656,3.4732824427480917
1749736785.971887,2025-06-12 20:59:45.971,30.177058823529414,-8.968679418945312,3.2632968627929686,-1.4867992309570313,114.96946564885496,5.061068702290076,-13.007633587786259
1749736785.981525,2025-06-12 20:59:45.981,30.177058823529414,2.059013427734375,-2.6982652709960937,10.189722265624999,113.74809160305344,-10.801526717557252,-6.99236641221374
1749736785.9911551,2025-06-12 20:59:45.991,30.177058823529414,0.9026140258789062,2.5330653564453125,11.525686791992188,123.7175572519084,3.6412213740458017,1.9770992366412214
1749736786.0007915,2025-06-12 20:59:46.000,30.177058823529414,-5.916072302246094,-0.44532150878906246,2.1883003173828124,106.02290076335878,-16.33587786259542,1.702290076335878
1749736786.0104141,2025-06-12 20:59:46.010,30.08294117647059,0.7876923461914062,0.5003881469726562,4.915296008300781,117.93129770992367,-0.20610687022900764,-4.305343511450381
1749736786.0200665,2025-06-12 20:59:46.020,30.08294117647059,-1.2306196533203124,-0.6703764648437499,10.931924780273437,122.3969465648855,-4.129770992366412,-4.526717557251908
1749736786.0297158,2025-06-12 20:59:46.029,30.130000000000003,-0.17956512451171874,-0.05985504150390625,13.608642236328125,121.52671755725191,7.755725190839694,-3.183206106870229
1749736786.0393496,2025-06-12 20:59:46.039,30.03588235294118,-2.9831752685546875,0.9097966308593749,5.9208607055664055,103.27480916030534,-11.0,6.351145038167939
1749736786.0489757,2025-06-12 20:59:46.048,30.130000000000003,-10.82179150390625,1.5705962890624998,-6.830657336425781,109.85496183206106,-73.50381679389314,-3.5877862595419847
1749736786.0586555,2025-06-12 20:59:46.058,30.08294117647059,-12.248735693359373,-3.3542765258789062,8.585607153320312,118.36641221374046,-85.55725190839695,-1.8091603053435115
1749736786.0682843,2025-06-12 20:59:46.068,30.08294117647059,-12.524068884277343,0.7350199096679687,2.437297290039062,131.2824427480916,-51.541984732824424,-8.0
1749736786.0785906,2025-06-12 20:59:46.078,30.08294117647059,-0.181959326171875,8.377311608886718,4.584896179199219,109.59541984732824,-11.80916030534351,-2.6106870229007635
1749736786.0882378,2025-06-12 20:59:46.088,30.130000000000003,-0.9648632690429687,-1.8531120849609375,-2.3391350219726563,112.33587786259542,-23.129770992366414,-9.961832061068701
1749736786.0978682,2025-06-12 20:59:46.097,30.224117647058826,-3.057395520019531,-1.0893617553710937,0.43574470214843747,119.26717557251908,-28.740458015267176,-3.717557251908397
