timestamp_unix,timestamp_readable,temp_c,accel_x,accel_y,accel_z,gyro_x,gyro_y,gyro_z
1749737003.0888417,2025-06-12 21:03:23.088,30.130000000000003,-0.6368576416015624,0.1292868896484375,8.48505068359375,116.48091603053435,-0.007633587786259542,-1.9236641221374047
1749737003.0984933,2025-06-12 21:03:23.098,30.08294117647059,-0.6105214233398437,0.2920926025390625,8.556876733398436,116.12213740458016,-0.32061068702290074,-1.9236641221374047
1749737003.1081188,2025-06-12 21:03:23.108,30.130000000000003,-0.47644613037109373,0.0909796630859375,8.513781103515624,116.09923664122137,-0.24427480916030533,-2.122137404580153
1749737003.1177535,2025-06-12 21:03:23.117,30.224117647058826,-0.6200982299804687,0.01915361328125,8.578424548339843,116.0381679389313,-0.35877862595419846,-2.015267175572519
1749737003.1274176,2025-06-12 21:03:23.127,30.177058823529414,-0.6081272216796875,0.24181436767578124,8.434772448730468,116.02290076335878,-0.08396946564885496,-2.099236641221374
1749737003.137133,2025-06-12 21:03:23.137,30.130000000000003,-0.6536170532226562,0.07422025146484375,8.518569506835936,116.14503816793894,-0.3282442748091603,-2.2442748091603053
1749737003.1468518,2025-06-12 21:03:23.146,30.177058823529414,-0.6368576416015624,0.14604630126953125,8.55448253173828,116.22137404580153,-0.2748091603053435,-2.0839694656488548
1749737003.1565154,2025-06-12 21:03:23.156,30.130000000000003,-0.7661445312499999,0.09576806640624999,8.588001354980468,116.30534351145039,-0.3969465648854962,-2.0
1749737003.1661417,2025-06-12 21:03:23.166,30.130000000000003,-0.6727706665039062,0.11731588134765625,8.475473876953124,116.33587786259542,-0.17557251908396945,-2.3435114503816794
1749737003.1757107,2025-06-12 21:03:23.175,30.177058823529414,-0.6584054565429687,0.08858546142578125,8.576030346679687,116.04580152671755,-0.25190839694656486,-2.2748091603053435
1749737003.1853557,2025-06-12 21:03:23.185,30.177058823529414,-0.4644751220703125,0.04548983154296875,8.578424548339843,116.14503816793894,-0.2748091603053435,-2.0
1749737003.1949947,2025-06-12 21:03:23.194,30.224117647058826,-0.7038952880859375,0.028730419921875,8.432378247070313,115.97709923664122,-0.5267175572519084,-2.0916030534351147
1749737003.2059956,2025-06-12 21:03:23.205,30.08294117647059,-0.7350199096679687,0.1149216796875,8.482656481933594,116.10687022900764,-0.2900763358778626,-2.015267175572519
1749737003.215609,2025-06-12 21:03:23.215,30.224117647058826,-0.5722141967773438,0.09337386474609374,8.549694128417968,116.07633587786259,-0.3053435114503817,-2.1297709923664123
1749737003.2252886,2025-06-12 21:03:23.225,30.130000000000003,-0.6488286499023437,0.062249243164062495,8.635885388183594,116.1526717557252,-0.5038167938931297,-2.1297709923664123
1749737003.2349267,2025-06-12 21:03:23.234,30.224117647058826,-0.6607996582031249,0.12449848632812499,8.590395556640624,115.74045801526718,-0.2824427480916031,-3.8931297709923665
1749737003.2445729,2025-06-12 21:03:23.244,30.224117647058826,-0.7541735229492187,0.1388636962890625,8.659827404785156,116.0381679389313,-0.16030534351145037,-2.198473282442748
1749737003.2542048,2025-06-12 21:03:23.254,30.224117647058826,-0.7445967163085937,0.1149216796875,8.731653454589843,116.12977099236642,-0.3893129770992366,-1.9770992366412214
1749737003.2638404,2025-06-12 21:03:23.263,30.224117647058826,-0.6416460449218749,0.143652099609375,8.700528833007812,116.1145038167939,-0.24427480916030533,-2.1297709923664123
1749737003.273522,2025-06-12 21:03:23.273,30.177058823529414,-0.6081272216796875,0.086191259765625,8.602366564941406,116.12213740458016,-0.2748091603053435,-2.2213740458015265
1749737003.2831597,2025-06-12 21:03:23.283,30.177058823529414,-0.622492431640625,0.16998831787109375,8.623914379882812,116.20610687022901,-0.0916030534351145,-2.213740458015267
1749737003.2927952,2025-06-12 21:03:23.292,30.224117647058826,-0.6009446166992187,0.14125789794921875,8.552088330078124,116.14503816793894,-0.15267175572519084,-2.0763358778625953
1749737003.3024225,2025-06-12 21:03:23.302,30.224117647058826,-0.612915625,0.1197100830078125,8.640673791503906,115.9618320610687,-0.29770992366412213,-2.435114503816794
1749737003.3130064,2025-06-12 21:03:23.313,30.08294117647059,-0.5961562133789062,0.16041151123046873,8.537723120117187,116.05343511450381,-0.2366412213740458,-2.2290076335877864
1749737003.3226874,2025-06-12 21:03:23.322,30.130000000000003,-0.5434837768554687,0.13646949462890623,8.427589843749999,116.17557251908397,-0.31297709923664124,-3.8931297709923665
1749737003.3323205,2025-06-12 21:03:23.332,30.177058823529414,-0.6057330200195312,0.11731588134765625,8.48505068359375,115.66412213740458,-0.09923664122137404,-2.1526717557251906
1749737003.341954,2025-06-12 21:03:23.341,30.08294117647059,-0.5051765502929687,0.1005564697265625,8.564059338378906,116.19083969465649,-0.20610687022900764,-3.900763358778626
1749737003.3515854,2025-06-12 21:03:23.351,30.177058823529414,-0.46686932373046874,0.13407529296874998,8.580818749999999,115.96946564885496,1.8702290076335877,-2.16793893129771
1749737003.361215,2025-06-12 21:03:23.361,30.177058823529414,-0.5698199951171875,0.12210428466796874,8.621520178222656,115.95419847328245,-0.25190839694656486,-2.0229007633587788
1749737003.370845,2025-06-12 21:03:23.370,30.08294117647059,-0.6153098266601562,0.12210428466796874,8.643067993164061,116.07633587786259,-0.1984732824427481,-2.068702290076336
1749737003.3804748,2025-06-12 21:03:23.380,30.177058823529414,-0.6344634399414062,0.08140285644531249,8.597578161621094,116.0,-0.3282442748091603,-2.145038167938931
1749737003.3901002,2025-06-12 21:03:23.390,30.224117647058826,-0.565031591796875,0.0909796630859375,8.590395556640624,116.14503816793894,-0.2366412213740458,-2.145038167938931
1749737003.399734,2025-06-12 21:03:23.399,30.130000000000003,-0.5865794067382812,0.0909796630859375,8.451531860351562,116.20610687022901,0.007633587786259542,-2.213740458015267
1749737003.409365,2025-06-12 21:03:23.409,30.224117647058826,-0.5746083984375,0.1005564697265625,8.664615808105468,115.95419847328245,-0.2366412213740458,-3.8931297709923665
1749737003.4189966,2025-06-12 21:03:23.418,30.224117647058826,-0.7613561279296874,0.15083470458984374,8.633491186523438,115.90076335877863,-0.10687022900763359,-2.1297709923664123
1749737003.4296727,2025-06-12 21:03:23.429,30.130000000000003,-0.46208092041015625,0.12210428466796874,8.681375219726561,116.00763358778626,-0.09923664122137404,-1.8473282442748091
1749737003.439348,2025-06-12 21:03:23.439,30.177058823529414,-0.6081272216796875,0.0909796630859375,8.528146313476562,116.01526717557252,-0.13740458015267176,-0.11450381679389313
1749737003.4490085,2025-06-12 21:03:23.449,30.177058823529414,-0.5961562133789062,0.16759411621093748,8.47786807861328,115.86259541984732,-0.1297709923664122,-3.9083969465648853
1749737003.4586513,2025-06-12 21:03:23.458,30.177058823529414,-0.6344634399414062,0.10295067138671875,8.657433203124999,116.19847328244275,-0.19083969465648856,-2.236641221374046
1749737003.4682953,2025-06-12 21:03:23.468,30.177058823529414,-0.6560112548828124,0.08858546142578125,8.549694128417968,116.3206106870229,-1.8778625954198473,-2.2595419847328246
1749737003.4779313,2025-06-12 21:03:23.477,30.130000000000003,-0.6296750366210937,0.1388636962890625,8.71489404296875,115.76335877862596,-0.45038167938931295,-2.4122137404580153
1749737003.4875677,2025-06-12 21:03:23.487,30.177058823529414,-0.6488286499023437,0.0,8.628702783203124,116.29007633587786,-0.22137404580152673,-2.1908396946564888
1749737003.497199,2025-06-12 21:03:23.497,30.177058823529414,-0.5961562133789062,0.1197100830078125,8.616731774902343,116.04580152671755,-0.04580152671755725,-2.099236641221374
1749737003.5068362,2025-06-12 21:03:23.506,30.130000000000003,-0.4740519287109375,0.12449848632812499,8.614337573242187,116.20610687022901,-0.29770992366412213,-2.2748091603053435
1749737003.516522,2025-06-12 21:03:23.516,30.224117647058826,-0.6536170532226562,0.05746083984375,8.504204296874999,115.9618320610687,-0.22137404580152673,-0.061068702290076333
1749737003.5261612,2025-06-12 21:03:23.526,30.08294117647059,-0.612915625,0.1197100830078125,8.549694128417968,116.21374045801527,-1.9541984732824427,-2.0916030534351147
1749737003.5364263,2025-06-12 21:03:23.536,30.224117647058826,-0.6464344482421874,0.3016694091796875,8.549694128417968,115.90076335877863,1.8778625954198473,-2.183206106870229
1749737003.5468984,2025-06-12 21:03:23.546,30.177058823529414,-0.6368576416015624,0.12689268798828124,8.556876733398436,116.20610687022901,-0.16030534351145037,-3.885496183206107
1749737003.5565174,2025-06-12 21:03:23.556,30.130000000000003,-0.6344634399414062,0.1388636962890625,8.51617530517578,116.09923664122137,-0.15267175572519084,-2.045801526717557
1749737003.566162,2025-06-12 21:03:23.566,30.130000000000003,-0.7302315063476562,0.0,8.427589843749999,116.1145038167939,-0.022900763358778626,-2.053435114503817
1749737003.5757916,2025-06-12 21:03:23.575,30.224117647058826,-0.5793968017578125,0.10773907470703124,8.595183959960938,116.12213740458016,-0.3893129770992366,-2.198473282442748
1749737003.585419,2025-06-12 21:03:23.585,30.224117647058826,-0.5889736083984375,0.08379705810546874,8.549694128417968,116.04580152671755,-1.9236641221374047,-2.1374045801526718
1749737003.5950468,2025-06-12 21:03:23.595,30.130000000000003,-0.6416460449218749,0.040701428222656245,8.683769421386717,115.97709923664122,-0.015267175572519083,-1.816793893129771
1749737003.604684,2025-06-12 21:03:23.604,30.130000000000003,-0.5506663818359374,0.15083470458984374,8.614337573242187,116.00763358778626,-0.13740458015267176,-2.0763358778625953
1749737003.6143217,2025-06-12 21:03:23.614,30.177058823529414,-0.6512228515624999,0.09576806640624999,8.576030346679687,116.16030534351145,-0.12213740458015267,-2.053435114503817
1749737003.6239562,2025-06-12 21:03:23.623,30.08294117647059,-0.6200982299804687,0.10773907470703124,8.55448253173828,116.25190839694656,-0.03816793893129771,-2.3206106870229006
1749737003.6336162,2025-06-12 21:03:23.633,30.08294117647059,-0.6655880615234374,0.1867477294921875,8.494627490234375,116.05343511450381,-0.1984732824427481,-1.816793893129771
1749737003.6434188,2025-06-12 21:03:23.643,30.130000000000003,-0.622492431640625,0.11731588134765625,8.621520178222656,116.3206106870229,-0.11450381679389313,-2.053435114503817
1749737003.653048,2025-06-12 21:03:23.653,30.130000000000003,-0.5913678100585937,0.09337386474609374,8.722076647949219,116.25190839694656,-0.06870229007633588,-2.1755725190839694
1749737003.6626754,2025-06-12 21:03:23.662,30.130000000000003,-0.5865794067382812,0.13407529296874998,8.501810095214843,116.05343511450381,1.8702290076335877,-2.0839694656488548
1749737003.6723127,2025-06-12 21:03:23.672,30.177058823529414,-0.6655880615234374,0.0,8.44674345703125,115.83206106870229,-0.31297709923664124,-2.404580152671756
1749737003.6819386,2025-06-12 21:03:23.681,30.177058823529414,-0.622492431640625,0.05027823486328125,8.566453540039062,116.32824427480917,-0.1984732824427481,-3.854961832061069
1749737003.6916041,2025-06-12 21:03:23.691,30.224117647058826,-0.6536170532226562,0.08379705810546874,8.451531860351562,116.1526717557252,-0.31297709923664124,-2.2748091603053435
1749737003.701237,2025-06-12 21:03:23.701,30.130000000000003,-0.6344634399414062,0.12210428466796874,8.571241943359375,116.01526717557252,-0.22137404580152673,-2.145038167938931
1749737003.7108748,2025-06-12 21:03:23.710,30.177058823529414,-0.6536170532226562,0.12689268798828124,8.573636145019531,115.91603053435115,-0.2824427480916031,-2.1603053435114505
1749737003.720507,2025-06-12 21:03:23.720,30.130000000000003,-0.7661445312499999,0.15562310791015624,8.542511523437499,116.13740458015268,-0.1297709923664122,-2.0916030534351147
1749737003.7301588,2025-06-12 21:03:23.730,30.177058823529414,-0.5746083984375,0.09816226806640624,8.473079675292968,116.0381679389313,-1.9083969465648856,-2.1068702290076335
1749737003.7398582,2025-06-12 21:03:23.739,30.177058823529414,-0.6464344482421874,0.15083470458984374,8.441955053710936,116.06870229007633,-1.900763358778626,-2.053435114503817
1749737003.75016,2025-06-12 21:03:23.750,30.177058823529414,-0.55545478515625,0.2609679809570312,8.662221606445312,115.98473282442748,0.007633587786259542,-2.381679389312977
1749737003.7597976,2025-06-12 21:03:23.759,30.130000000000003,-0.5817910034179687,0.13407529296874998,8.633491186523438,116.02290076335878,-0.015267175572519083,-2.2442748091603053
1749737003.7694256,2025-06-12 21:03:23.769,30.130000000000003,-0.5506663818359374,0.15083470458984374,8.56166513671875,116.00763358778626,0.08396946564885496,-2.2900763358778624
1749737003.779055,2025-06-12 21:03:23.779,30.177058823529414,-0.7517793212890624,0.0047884033203125,8.724470849609375,116.09923664122137,-0.16030534351145037,-2.2748091603053435
1749737003.788682,2025-06-12 21:03:23.788,30.177058823529414,-0.6344634399414062,0.09816226806640624,8.532934716796875,116.19847328244275,-1.9389312977099236,-2.3282442748091605
1749737003.7983081,2025-06-12 21:03:23.798,30.177058823529414,-0.6368576416015624,0.16759411621093748,8.535328918457031,115.94656488549619,-0.11450381679389313,-2.2061068702290076
1749737003.807941,2025-06-12 21:03:23.807,30.130000000000003,-0.584185205078125,0.1197100830078125,8.583212951660157,116.13740458015268,0.3969465648854962,-2.3053435114503817
1749737003.8175824,2025-06-12 21:03:23.817,30.08294117647059,-0.6248866333007812,0.08858546142578125,8.602366564941406,116.17557251908397,1.8702290076335877,-2.2442748091603053
1749737003.827245,2025-06-12 21:03:23.827,30.130000000000003,-0.6344634399414062,0.16519991455078123,8.427589843749999,115.80152671755725,-0.20610687022900764,-2.0763358778625953
1749737003.836924,2025-06-12 21:03:23.836,30.130000000000003,-0.6488286499023437,0.031124621582031248,8.681375219726561,115.93893129770993,1.916030534351145,-2.427480916030534
1749737003.8465595,2025-06-12 21:03:23.846,30.224117647058826,-0.5865794067382812,0.062249243164062495,8.537723120117187,116.10687022900764,0.1450381679389313,-2.3740458015267176
1749737003.8574789,2025-06-12 21:03:23.857,30.224117647058826,-0.46686932373046874,0.08858546142578125,8.473079675292968,115.89312977099236,-0.04580152671755725,-2.312977099236641
1749737003.8671181,2025-06-12 21:03:23.867,30.177058823529414,-0.5961562133789062,0.10773907470703124,8.544905725097657,116.07633587786259,1.9236641221374047,-2.1068702290076335
1749737003.8767521,2025-06-12 21:03:23.876,30.130000000000003,-0.47644613037109373,0.12689268798828124,8.497021691894531,116.06870229007633,-0.22137404580152673,-2.2213740458015265
1749737003.8863816,2025-06-12 21:03:23.886,30.177058823529414,-0.6368576416015624,0.076614453125,8.564059338378906,116.37404580152672,-0.10687022900763359,-2.1526717557251906
1749737003.896027,2025-06-12 21:03:23.896,30.130000000000003,-0.6584054565429687,0.07422025146484375,8.513781103515624,116.17557251908397,1.8549618320610688,-2.1755725190839694
1749737003.905656,2025-06-12 21:03:23.905,30.08294117647059,-0.507570751953125,0.011971008300781249,8.693346228027343,115.80152671755725,-0.1984732824427481,-2.122137404580153
1749737003.9152877,2025-06-12 21:03:23.915,30.08294117647059,-0.4836287353515625,0.09337386474609374,8.626308581542968,115.83969465648855,-0.22137404580152673,-1.9923664122137406
1749737003.9249132,2025-06-12 21:03:23.924,30.177058823529414,-0.5770026000976562,0.11252747802734374,8.578424548339843,115.93129770992367,-0.1297709923664122,-2.0610687022900764
1749737003.9345942,2025-06-12 21:03:23.934,30.08294117647059,-0.6464344482421874,0.105344873046875,8.63827958984375,115.93893129770993,0.09923664122137404,-3.877862595419847
1749737003.9442487,2025-06-12 21:03:23.944,30.130000000000003,-0.5530605834960938,0.11013327636718749,8.664615808105468,116.22900763358778,0.12213740458015267,-2.435114503816794
1749737003.9539454,2025-06-12 21:03:23.953,30.130000000000003,-0.4836287353515625,0.09816226806640624,8.482656481933594,116.09923664122137,-0.19083969465648856,-3.900763358778626
1749737003.9636505,2025-06-12 21:03:23.963,30.224117647058826,-0.6009446166992187,0.0909796630859375,8.494627490234375,116.13740458015268,-0.4122137404580153,-2.030534351145038
1749737003.9737294,2025-06-12 21:03:23.973,30.08294117647059,-0.4644751220703125,0.0909796630859375,8.552088330078124,116.23664122137404,-0.007633587786259542,-2.2290076335877864
1749737003.9833734,2025-06-12 21:03:23.983,30.130000000000003,-0.6153098266601562,0.09816226806640624,8.556876733398436,116.00763358778626,-0.16030534351145037,-2.3053435114503817
1749737003.993008,2025-06-12 21:03:23.993,30.224117647058826,-0.6727706665039062,0.04548983154296875,8.698134631347656,116.12977099236642,-0.2366412213740458,-2.1297709923664123
1749737004.0026438,2025-06-12 21:03:24.002,30.31823529411765,-0.47165772705078124,0.11013327636718749,8.549694128417968,116.45801526717557,-0.37404580152671757,-2.0839694656488548
1749737004.012267,2025-06-12 21:03:24.012,30.177058823529414,-0.6368576416015624,0.08140285644531249,8.726865051269531,116.16030534351145,-0.04580152671755725,-2.030534351145038
1749737004.021905,2025-06-12 21:03:24.021,30.177058823529414,-0.603338818359375,0.08379705810546874,8.530540515136718,115.94656488549619,-0.183206106870229,-2.0
1749737004.0315497,2025-06-12 21:03:24.031,30.130000000000003,-0.612915625,0.0909796630859375,8.590395556640624,116.00763358778626,0.030534351145038167,-2.1526717557251906
1749737004.0411873,2025-06-12 21:03:24.041,30.177058823529414,-0.63206923828125,0.07422025146484375,8.427589843749999,116.12977099236642,-0.13740458015267176,-3.885496183206107
1749737004.0508177,2025-06-12 21:03:24.050,30.130000000000003,-0.48123453369140623,0.2609679809570312,8.674192614746094,115.82442748091603,0.030534351145038167,-1.9923664122137406
1749737004.0604742,2025-06-12 21:03:24.060,30.08294117647059,-0.5602431884765625,0.1484405029296875,8.571241943359375,116.06870229007633,-0.12213740458015267,-2.0381679389312977
1749737004.0701087,2025-06-12 21:03:24.070,30.177058823529414,-0.6081272216796875,0.11252747802734374,8.585607153320312,116.41221374045801,0.06870229007633588,-1.8778625954198473
1749737004.0799646,2025-06-12 21:03:24.079,30.177058823529414,-0.6296750366210937,0.10295067138671875,8.540117321777343,116.09160305343511,-0.26717557251908397,-1.7786259541984732
1749737004.0896027,2025-06-12 21:03:24.089,30.177058823529414,-0.4955997436523437,0.11013327636718749,8.688557824707031,116.19083969465649,-0.2366412213740458,-1.8854961832061068
1749737004.0992553,2025-06-12 21:03:24.099,30.224117647058826,-0.4644751220703125,0.076614453125,8.573636145019531,116.38931297709924,-0.3435114503816794,-1.9389312977099236
1749737004.1088953,2025-06-12 21:03:24.108,30.08294117647059,-0.63206923828125,0.1292868896484375,8.59997236328125,116.27480916030534,-0.16793893129770993,-2.0076335877862594
1749737004.1185513,2025-06-12 21:03:24.118,30.271176470588237,-0.6105214233398437,0.1292868896484375,8.52335791015625,116.18320610687023,-0.04580152671755725,-1.5877862595419847
1749737004.1282215,2025-06-12 21:03:24.128,30.177058823529414,-0.6177040283203125,0.0,8.63109698486328,116.06870229007633,-0.16793893129770993,-1.786259541984733
1749737004.1378844,2025-06-12 21:03:24.137,30.08294117647059,-0.622492431640625,0.22266075439453123,8.695740429687499,115.92366412213741,0.11450381679389313,-1.8396946564885497
1749737004.147539,2025-06-12 21:03:24.147,30.130000000000003,-0.6560112548828124,0.296881005859375,8.504204296874999,116.05343511450381,-0.1297709923664122,-1.7251908396946565
1749737004.1571858,2025-06-12 21:03:24.157,30.130000000000003,-0.622492431640625,0.11013327636718749,8.628702783203124,115.6793893129771,-0.11450381679389313,-1.8396946564885497
1749737004.166847,2025-06-12 21:03:24.166,30.130000000000003,-0.63206923828125,0.12689268798828124,8.580818749999999,116.12213740458016,-0.1297709923664122,-3.8931297709923665
1749737004.176492,2025-06-12 21:03:24.176,30.130000000000003,-0.7493851196289062,0.11013327636718749,8.492233288574218,116.07633587786259,1.8244274809160306,-2.053435114503817
1749737004.1869714,2025-06-12 21:03:24.186,30.177058823529414,-0.6775590698242188,0.13407529296874998,8.520963708496094,115.86259541984732,-0.13740458015267176,-2.0229007633587788
1749737004.196615,2025-06-12 21:03:24.196,30.224117647058826,-0.74699091796875,0.15562310791015624,8.559270935058594,116.09160305343511,-0.183206106870229,-2.1068702290076335
1749737004.2062545,2025-06-12 21:03:24.206,30.224117647058826,-0.469263525390625,0.12449848632812499,8.674192614746094,115.86259541984732,-0.24427480916030533,-1.8625954198473282
1749737004.2158937,2025-06-12 21:03:24.215,30.130000000000003,-0.6607996582031249,0.0047884033203125,8.576030346679687,115.80916030534351,-0.10687022900763359,-1.8244274809160306
1749737004.2255406,2025-06-12 21:03:24.225,30.130000000000003,-0.6296750366210937,0.10295067138671875,8.633491186523438,115.93893129770993,-0.13740458015267176,-2.0381679389312977
1749737004.2352476,2025-06-12 21:03:24.235,30.177058823529414,-0.612915625,0.105344873046875,8.645462194824217,116.07633587786259,1.8702290076335877,-3.854961832061069
1749737004.2448926,2025-06-12 21:03:24.244,30.177058823529414,-0.6919242797851562,0.08379705810546874,8.508992700195313,116.22137404580153,-0.1450381679389313,-2.114503816793893
1749737004.2545288,2025-06-12 21:03:24.254,30.130000000000003,-0.6775590698242188,0.1005564697265625,8.690952026367187,116.10687022900764,-0.3893129770992366,-1.8778625954198473
1749737004.264163,2025-06-12 21:03:24.264,30.130000000000003,-0.6440402465820312,0.09816226806640624,8.580818749999999,116.25190839694656,-0.10687022900763359,-2.183206106870229
1749737004.2738333,2025-06-12 21:03:24.273,30.130000000000003,-0.74699091796875,0.16041151123046873,8.56166513671875,115.7557251908397,0.007633587786259542,-1.9083969465648856
1749737004.2834713,2025-06-12 21:03:24.283,30.130000000000003,-0.7589619262695312,0.143652099609375,8.604760766601562,116.13740458015268,-0.21374045801526717,-2.2061068702290076
1749737004.2933953,2025-06-12 21:03:24.293,30.224117647058826,-0.63206923828125,0.1292868896484375,8.492233288574218,116.12213740458016,-0.13740458015267176,-2.2900763358778624
1749737004.3030467,2025-06-12 21:03:24.303,30.177058823529414,-0.5865794067382812,0.11013327636718749,8.532934716796875,116.17557251908397,1.9465648854961832,-2.145038167938931
1749737004.312744,2025-06-12 21:03:24.312,30.271176470588237,-0.63206923828125,0.12689268798828124,8.66940421142578,116.07633587786259,-0.21374045801526717,-1.9923664122137406
1749737004.3224027,2025-06-12 21:03:24.322,30.177058823529414,-0.6607996582031249,0.09816226806640624,8.568847741699217,116.17557251908397,0.17557251908396945,-2.1908396946564888
1749737004.332044,2025-06-12 21:03:24.332,30.130000000000003,-0.6536170532226562,0.11013327636718749,8.602366564941406,116.25190839694656,-0.16030534351145037,-2.381679389312977
1749737004.3416934,2025-06-12 21:03:24.341,30.130000000000003,-0.7661445312499999,0.0909796630859375,8.726865051269531,116.22137404580153,-0.030534351145038167,-2.068702290076336
1749737004.3513815,2025-06-12 21:03:24.351,30.130000000000003,-0.6512228515624999,0.04548983154296875,8.683769421386717,116.27480916030534,-0.1450381679389313,-1.9618320610687023
1749737004.3610518,2025-06-12 21:03:24.361,30.224117647058826,-0.5865794067382812,0.18435352783203124,8.566453540039062,116.45038167938931,1.9312977099236641,-2.2748091603053435
1749737004.37069,2025-06-12 21:03:24.370,30.03588235294118,-0.6153098266601562,0.13168109130859373,8.513781103515624,115.90839694656489,-0.17557251908396945,-2.4427480916030535
1749737004.3803275,2025-06-12 21:03:24.380,30.224117647058826,-0.5123591552734374,0.1484405029296875,8.552088330078124,115.91603053435115,-1.9083969465648856,-2.404580152671756
1749737004.389996,2025-06-12 21:03:24.389,30.224117647058826,-0.6464344482421874,0.20350714111328125,8.47786807861328,116.21374045801527,-0.16030534351145037,-2.381679389312977
1749737004.4003854,2025-06-12 21:03:24.400,30.177058823529414,-0.5722141967773438,0.14125789794921875,8.621520178222656,115.93893129770993,-0.25190839694656486,-2.2442748091603053
1749737004.4100437,2025-06-12 21:03:24.410,30.224117647058826,-0.7110778930664062,0.143652099609375,8.564059338378906,115.85496183206106,-0.007633587786259542,-0.030534351145038167
1749737004.4196813,2025-06-12 21:03:24.419,30.224117647058826,-0.612915625,0.12689268798828124,8.588001354980468,116.08396946564885,-0.2900763358778626,-2.183206106870229
1749737004.429323,2025-06-12 21:03:24.429,30.224117647058826,-0.5602431884765625,0.09337386474609374,8.542511523437499,116.25190839694656,0.022900763358778626,-2.198473282442748
1749737004.4389834,2025-06-12 21:03:24.438,30.130000000000003,-0.59376201171875,0.033518823242187495,8.530540515136718,116.08396946564885,-0.26717557251908397,-2.145038167938931
1749737004.448625,2025-06-12 21:03:24.448,30.130000000000003,-0.6248866333007812,0.06703764648437499,8.564059338378906,116.19847328244275,-0.37404580152671757,-2.0916030534351147
1749737004.4582658,2025-06-12 21:03:24.458,30.224117647058826,-0.5458779785156249,0.17238251953125,8.501810095214843,116.29007633587786,0.03816793893129771,-2.122137404580153
1749737004.4679334,2025-06-12 21:03:24.467,30.130000000000003,-0.6272808349609375,0.1005564697265625,8.497021691894531,115.97709923664122,-0.22900763358778625,-2.0839694656488548
1749737004.4775703,2025-06-12 21:03:24.477,30.224117647058826,-0.6296750366210937,0.14125789794921875,8.530540515136718,116.18320610687023,-0.015267175572519083,-2.114503816793893
1749737004.4872098,2025-06-12 21:03:24.487,30.130000000000003,-0.47165772705078124,0.10295067138671875,8.578424548339843,116.12213740458016,-0.022900763358778626,-2.015267175572519
1749737004.4968472,2025-06-12 21:03:24.496,30.224117647058826,-0.6703764648437499,0.1292868896484375,8.564059338378906,116.10687022900764,-0.04580152671755725,-2.114503816793893
1749737004.5071466,2025-06-12 21:03:24.507,30.08294117647059,-0.6105214233398437,0.1292868896484375,8.535328918457031,116.16793893129771,-1.9312977099236641,-1.9465648854961832
1749737004.5167882,2025-06-12 21:03:24.516,30.177058823529414,-0.5003881469726562,0.08379705810546874,8.626308581542968,115.87022900763358,-0.29770992366412213,-2.1908396946564888
1749737004.5264637,2025-06-12 21:03:24.526,30.224117647058826,-0.59376201171875,0.11252747802734374,8.444349255371094,115.91603053435115,-0.061068702290076333,-2.183206106870229
1749737004.5363445,2025-06-12 21:03:24.536,30.130000000000003,-0.6248866333007812,0.13407529296874998,8.590395556640624,116.1145038167939,-0.25190839694656486,-2.4427480916030535
1749737004.54604,2025-06-12 21:03:24.546,30.130000000000003,-0.6631938598632812,0.12449848632812499,8.568847741699217,115.9618320610687,-0.22137404580152673,-1.9541984732824427
1749737004.5557292,2025-06-12 21:03:24.555,30.130000000000003,-0.6368576416015624,0.055066638183593745,8.614337573242187,116.19847328244275,-0.3435114503816794,-3.9083969465648853
1749737004.5654023,2025-06-12 21:03:24.565,30.130000000000003,-0.7613561279296874,0.24660277099609373,8.578424548339843,116.06106870229007,-0.15267175572519084,-2.122137404580153
1749737004.5750296,2025-06-12 21:03:24.575,30.08294117647059,-0.612915625,0.143652099609375,8.571241943359375,116.25190839694656,-1.900763358778626,-2.1374045801526718
1749737004.5847402,2025-06-12 21:03:24.584,30.130000000000003,-0.6153098266601562,0.031124621582031248,8.583212951660157,116.06870229007633,-0.26717557251908397,-2.2213740458015265
1749737004.5944073,2025-06-12 21:03:24.594,30.224117647058826,-0.4860229370117187,0.11731588134765625,8.717288244628906,116.2824427480916,-0.0916030534351145,-2.1068702290076335
1749737004.604032,2025-06-12 21:03:24.604,30.03588235294118,-0.47165772705078124,0.15083470458984374,8.623914379882812,116.22900763358778,-0.29770992366412213,-2.1297709923664123
1749737004.6140873,2025-06-12 21:03:24.614,30.177058823529414,-0.6560112548828124,0.1388636962890625,8.537723120117187,115.8854961832061,-0.12213740458015267,-2.2900763358778624
1749737004.6237352,2025-06-12 21:03:24.623,30.130000000000003,-0.6607996582031249,0.11013327636718749,8.626308581542968,116.00763358778626,-0.030534351145038167,-2.068702290076336
1749737004.6333997,2025-06-12 21:03:24.633,30.130000000000003,-0.6464344482421874,0.143652099609375,8.623914379882812,116.30534351145039,-0.1297709923664122,-0.0916030534351145
1749737004.6430438,2025-06-12 21:03:24.643,30.224117647058826,-0.6607996582031249,0.13168109130859373,8.635885388183594,116.32824427480917,-0.1297709923664122,-2.122137404580153
1749737004.6526866,2025-06-12 21:03:24.652,30.224117647058826,-0.7493851196289062,0.11252747802734374,8.590395556640624,116.0381679389313,0.08396946564885496,-2.2213740458015265
1749737004.6623251,2025-06-12 21:03:24.662,30.130000000000003,-0.6272808349609375,0.12689268798828124,8.607154968261717,116.22137404580153,0.1450381679389313,-2.0763358778625953
1749737004.6719644,2025-06-12 21:03:24.671,30.224117647058826,-0.6344634399414062,0.10773907470703124,8.645462194824217,116.09160305343511,-1.9312977099236641,-2.0763358778625953
1749737004.6815994,2025-06-12 21:03:24.681,30.177058823529414,-0.6296750366210937,0.17238251953125,8.48505068359375,116.45801526717557,-0.16030534351145037,-2.16793893129771
1749737004.6912618,2025-06-12 21:03:24.691,30.130000000000003,-0.7661445312499999,0.01915361328125,8.590395556640624,116.3206106870229,-0.33587786259541985,-2.145038167938931
1749737004.7008963,2025-06-12 21:03:24.700,30.177058823529414,-0.4836287353515625,0.09337386474609374,8.698134631347656,116.18320610687023,-0.26717557251908397,-2.236641221374046
1749737004.7105274,2025-06-12 21:03:24.710,30.177058823529414,-0.6655880615234374,0.1580173095703125,8.597578161621094,115.9618320610687,-0.24427480916030533,-2.122137404580153
1749737004.7203162,2025-06-12 21:03:24.720,30.224117647058826,-0.612915625,0.10295067138671875,8.51617530517578,115.97709923664122,-0.25190839694656486,-2.1603053435114505
1749737004.7299821,2025-06-12 21:03:24.729,30.177058823529414,-0.5865794067382812,0.13646949462890623,8.604760766601562,116.31297709923665,-0.31297709923664124,-2.16793893129771
1749737004.739615,2025-06-12 21:03:24.739,30.271176470588237,-0.6272808349609375,0.12210428466796874,8.532934716796875,116.19083969465649,-0.061068702290076333,-3.8396946564885495
1749737004.7493029,2025-06-12 21:03:24.749,30.271176470588237,-0.6607996582031249,0.086191259765625,8.449137658691406,116.17557251908397,-0.20610687022900764,-2.2519083969465647
1749737004.7589138,2025-06-12 21:03:24.758,30.177058823529414,-0.6392518432617187,0.16759411621093748,8.568847741699217,115.96946564885496,1.9236641221374047,-2.030534351145038
1749737004.768553,2025-06-12 21:03:24.768,30.177058823529414,-0.59376201171875,0.10773907470703124,8.604760766601562,115.86259541984732,-0.13740458015267176,-2.053435114503817
1749737004.778191,2025-06-12 21:03:24.778,30.177058823529414,-0.7613561279296874,0.28730419921875,8.597578161621094,116.21374045801527,-0.08396946564885496,-2.0839694656488548
1749737004.7879353,2025-06-12 21:03:24.787,30.177058823529414,-0.7350199096679687,0.181959326171875,8.628702783203124,116.06106870229007,0.030534351145038167,-1.9083969465648856
1749737004.797615,2025-06-12 21:03:24.797,30.177058823529414,-0.5913678100585937,0.011971008300781249,8.59997236328125,115.79389312977099,0.12213740458015267,-2.0
1749737004.8072832,2025-06-12 21:03:24.807,30.224117647058826,-0.5482721801757812,0.17956512451171874,8.590395556640624,115.97709923664122,-0.015267175572519083,-2.030534351145038
1749737004.816952,2025-06-12 21:03:24.816,30.130000000000003,-0.5530605834960938,0.19632453613281248,8.59278975830078,116.05343511450381,0.3511450381679389,-2.015267175572519
1749737004.8274183,2025-06-12 21:03:24.827,30.224117647058826,-0.5578489868164063,0.00718260498046875,8.688557824707031,115.85496183206106,0.1984732824427481,-1.9618320610687023
1749737004.8370707,2025-06-12 21:03:24.837,30.224117647058826,-0.5578489868164063,0.21068974609375,8.66940421142578,115.90839694656489,0.6183206106870229,-2.1603053435114505
1749737004.8467586,2025-06-12 21:03:24.846,30.271176470588237,-0.5530605834960938,0.1388636962890625,8.659827404785156,116.09160305343511,0.32061068702290074,-2.2748091603053435
1749737004.856447,2025-06-12 21:03:24.856,30.271176470588237,-0.5602431884765625,0.1580173095703125,8.695740429687499,115.96946564885496,0.6030534351145038,-2.068702290076336
1749737004.8660889,2025-06-12 21:03:24.866,30.177058823529414,-0.5674257934570313,0.011971008300781249,8.801085302734375,115.89312977099236,0.5954198473282443,-2.183206106870229
1749737004.8757267,2025-06-12 21:03:24.875,30.177058823529414,-0.5123591552734374,0.15562310791015624,8.702923034667968,115.94656488549619,0.8473282442748091,-2.145038167938931
1749737004.885382,2025-06-12 21:03:24.885,30.177058823529414,-0.5123591552734374,0.201112939453125,8.693346228027343,116.09160305343511,0.7862595419847328,-2.236641221374046
1749737004.895055,2025-06-12 21:03:24.895,30.08294117647059,-0.565031591796875,0.16998831787109375,8.657433203124999,115.78625954198473,0.8854961832061069,-2.549618320610687
1749737004.904729,2025-06-12 21:03:24.904,30.177058823529414,-0.5793968017578125,0.17956512451171874,8.8489693359375,115.81679389312977,0.9618320610687023,-2.404580152671756
1749737004.9143617,2025-06-12 21:03:24.914,30.130000000000003,-0.5051765502929687,0.15322890625,8.817844714355468,115.76335877862596,1.1374045801526718,-2.3206106870229006
1749737004.9239964,2025-06-12 21:03:24.923,30.177058823529414,-0.55545478515625,0.15322890625,8.650250598144531,115.93893129770993,1.1145038167938932,-2.5267175572519083
1749737004.933877,2025-06-12 21:03:24.933,30.177058823529414,-0.5363011718749999,0.17477672119140625,8.82263311767578,115.74809160305344,1.3358778625954197,-2.435114503816794
1749737004.9435127,2025-06-12 21:03:24.943,30.177058823529414,-0.5051765502929687,0.22026655273437498,8.623914379882812,115.6793893129771,1.297709923664122,-2.5419847328244276
1749737004.9531467,2025-06-12 21:03:24.953,30.177058823529414,-0.5482721801757812,0.08858546142578125,8.583212951660157,115.82442748091603,1.534351145038168,-2.6106870229007635
1749737004.9627852,2025-06-12 21:03:24.962,30.271176470588237,-0.5339069702148437,0.12210428466796874,8.590395556640624,116.14503816793894,1.633587786259542,-2.5114503816793894
1749737004.9724205,2025-06-12 21:03:24.972,30.177058823529414,-0.5099649536132812,0.10295067138671875,8.74601866455078,116.07633587786259,3.877862595419847,-2.717557251908397
1749737004.9820552,2025-06-12 21:03:24.982,30.224117647058826,-0.4165910888671875,0.047884033203124995,8.695740429687499,115.97709923664122,3.900763358778626,-2.6717557251908395
1749737004.991689,2025-06-12 21:03:24.991,30.130000000000003,-0.5793968017578125,0.1197100830078125,8.74601866455078,115.73282442748092,3.7786259541984735,-2.7709923664122136
1749737005.0013287,2025-06-12 21:03:25.001,30.224117647058826,-0.5865794067382812,0.10295067138671875,8.643067993164061,116.01526717557252,2.2442748091603053,-2.618320610687023
1749737005.0109613,2025-06-12 21:03:25.010,30.271176470588237,-0.5817910034179687,0.086191259765625,8.59997236328125,116.06870229007633,2.1908396946564888,-2.8625954198473282
1749737005.0205963,2025-06-12 21:03:25.020,30.130000000000003,-0.5434837768554687,0.16041151123046873,8.693346228027343,116.01526717557252,2.213740458015267,-2.6793893129770994
1749737005.030245,2025-06-12 21:03:25.030,30.224117647058826,-0.6200982299804687,0.19153613281249998,8.652644799804687,115.95419847328245,2.549618320610687,-2.519083969465649
1749737005.0399055,2025-06-12 21:03:25.039,30.177058823529414,-0.6177040283203125,0.1005564697265625,8.571241943359375,115.90839694656489,2.0839694656488548,-2.8473282442748094
1749737005.0496137,2025-06-12 21:03:25.049,30.177058823529414,-0.6177040283203125,0.18435352783203124,8.56166513671875,116.12213740458016,2.5572519083969465,-2.7022900763358777
1749737005.059259,2025-06-12 21:03:25.059,30.177058823529414,-0.7278373046875,0.19153613281249998,8.56166513671875,115.6412213740458,2.4656488549618323,-2.7938931297709924
1749737005.0689354,2025-06-12 21:03:25.068,30.177058823529414,-0.7038952880859375,0.011971008300781249,8.719682446289061,116.19847328244275,2.1908396946564888,-2.6106870229007635
1749737005.0785701,2025-06-12 21:03:25.078,30.130000000000003,-0.63206923828125,0.1149216796875,8.52335791015625,115.90839694656489,0.030534351145038167,-2.7786259541984735
1749737005.0882394,2025-06-12 21:03:25.088,30.177058823529414,-0.5913678100585937,0.06703764648437499,8.583212951660157,116.38167938931298,2.381679389312977,-2.9236641221374047
1749737005.0979135,2025-06-12 21:03:25.097,30.130000000000003,-0.7493851196289062,0.00239420166015625,8.595183959960938,116.12977099236642,0.24427480916030533,-2.83206106870229
1749737005.1075606,2025-06-12 21:03:25.107,30.177058823529414,-0.6344634399414062,0.02633621826171875,8.513781103515624,116.29007633587786,2.648854961832061,-2.687022900763359
1749737005.1172042,2025-06-12 21:03:25.117,30.31823529411765,-0.5315127685546874,0.05746083984375,8.585607153320312,116.09160305343511,2.6030534351145036,-2.4885496183206106
1749737005.126842,2025-06-12 21:03:25.126,30.177058823529414,-0.6536170532226562,0.15322890625,8.645462194824217,115.70229007633588,2.877862595419847,-2.435114503816794
1749737005.1364856,2025-06-12 21:03:25.136,30.177058823529414,-0.5051765502929687,0.047884033203124995,8.568847741699217,116.08396946564885,2.5114503816793894,-2.4427480916030535
1749737005.1461422,2025-06-12 21:03:25.146,30.130000000000003,-0.6871358764648438,0.06464344482421874,8.444349255371094,115.83206106870229,2.427480916030534,-2.427480916030534
1749737005.1558504,2025-06-12 21:03:25.155,30.08294117647059,-0.7206546997070312,0.2609679809570312,8.508992700195313,115.59541984732824,2.816793893129771,-2.49618320610687
1749737005.1655023,2025-06-12 21:03:25.165,30.224117647058826,-0.7517793212890624,-0.00239420166015625,8.583212951660157,115.65648854961832,2.0229007633587788,-2.2442748091603053
1749737005.1751409,2025-06-12 21:03:25.175,30.177058823529414,-0.6488286499023437,0.0047884033203125,8.506598498535157,116.09923664122137,0.16793893129770993,-2.2213740458015265
1749737005.1847794,2025-06-12 21:03:25.184,30.130000000000003,-0.622492431640625,0.07900865478515624,8.377311608886718,115.69465648854961,2.114503816793893,-2.1526717557251906
1749737005.1944275,2025-06-12 21:03:25.194,30.130000000000003,-0.7829039428710937,-0.143652099609375,8.501810095214843,116.12213740458016,1.4809160305343512,-2.33587786259542
1749737005.204069,2025-06-12 21:03:25.204,30.224117647058826,-0.8451531860351562,0.2657563842773437,8.583212951660157,115.8854961832061,1.8396946564885497,-1.8473282442748091
1749737005.2137136,2025-06-12 21:03:25.213,30.224117647058826,-0.9074024291992187,-0.21308394775390624,8.571241943359375,115.80916030534351,2.381679389312977,-2.2290076335877864
1749737005.2233572,2025-06-12 21:03:25.223,30.224117647058826,-0.8978256225585937,0.1149216796875,8.537723120117187,115.66412213740458,2.2061068702290076,-2.1297709923664123
1749737005.2329967,2025-06-12 21:03:25.232,30.177058823529414,-0.4860229370117187,0.201112939453125,8.724470849609375,115.6793893129771,1.748091603053435,-1.9770992366412214
1749737005.2426558,2025-06-12 21:03:25.242,30.224117647058826,-0.8595183959960937,0.016759411621093748,8.535328918457031,116.09160305343511,0.24427480916030533,-1.7251908396946565
1749737005.2523303,2025-06-12 21:03:25.252,30.224117647058826,-0.6153098266601562,-0.02154781494140625,8.760383874511719,116.01526717557252,0.007633587786259542,-1.8854961832061068
1749737005.262527,2025-06-12 21:03:25.262,30.224117647058826,-0.70868369140625,0.009576806640625,8.731653454589843,115.7557251908397,3.900763358778626,-1.6641221374045803
1749737005.2722087,2025-06-12 21:03:25.272,30.271176470588237,-0.6584054565429687,-0.0909796630859375,8.736441857910156,116.45801526717557,0.24427480916030533,-1.7099236641221374
1749737005.28186,2025-06-12 21:03:25.281,30.177058823529414,-1.0486603271484374,0.05985504150390625,8.56166513671875,116.12213740458016,1.8931297709923665,-1.6717557251908397
1749737005.291498,2025-06-12 21:03:25.291,30.224117647058826,-0.5291185668945312,-0.047884033203124995,8.683769421386717,116.02290076335878,2.5267175572519083,-1.6946564885496183
1749737005.301162,2025-06-12 21:03:25.301,30.224117647058826,-0.679953271484375,0.09337386474609374,8.667010009765624,116.00763358778626,2.5114503816793894,-1.297709923664122
1749737005.310858,2025-06-12 21:03:25.310,30.130000000000003,-0.8403647827148437,0.0526724365234375,8.525752111816406,115.90839694656489,2.122137404580153,-1.5877862595419847
1749737005.3205156,2025-06-12 21:03:25.320,30.271176470588237,-0.6416460449218749,0.05027823486328125,8.504204296874999,116.10687022900764,2.114503816793893,-1.3740458015267176
1749737005.330154,2025-06-12 21:03:25.330,30.177058823529414,-0.8499415893554687,0.07422025146484375,8.427589843749999,115.72519083969466,2.381679389312977,-1.534351145038168
1749737005.3398101,2025-06-12 21:03:25.339,30.224117647058826,-0.814028564453125,0.08858546142578125,8.518569506835936,113.41221374045801,2.2977099236641223,-1.465648854961832
1749737005.3494573,2025-06-12 21:03:25.349,30.271176470588237,-0.7876923461914062,-0.02154781494140625,8.415618835449218,115.74809160305344,2.236641221374046,-1.549618320610687
1749737005.3590953,2025-06-12 21:03:25.359,30.224117647058826,-0.8810662109374999,0.04548983154296875,8.542511523437499,116.09160305343511,2.1755725190839694,-1.4732824427480915
1749737005.3689241,2025-06-12 21:03:25.368,30.224117647058826,-0.7829039428710937,0.02633621826171875,8.528146313476562,116.14503816793894,2.045801526717557,-1.4809160305343512
1749737005.3785913,2025-06-12 21:03:25.378,30.177058823529414,-0.7685387329101562,-0.055066638183593745,8.463502868652343,116.0381679389313,2.1755725190839694,-1.4961832061068703
1749737005.3882294,2025-06-12 21:03:25.388,30.177058823529414,-0.7733271362304687,0.12449848632812499,8.453926062011718,116.18320610687023,2.2900763358778624,-1.2442748091603053
1749737005.3978667,2025-06-12 21:03:25.397,30.177058823529414,-0.8044517578125,0.0718260498046875,8.518569506835936,115.83206106870229,2.0229007633587788,-1.2366412213740459
1749737005.4075131,2025-06-12 21:03:25.407,30.177058823529414,-0.6943184814453125,0.1867477294921875,8.437166650390624,116.21374045801527,1.7328244274809161,-1.1526717557251909
1749737005.417149,2025-06-12 21:03:25.417,30.130000000000003,-0.7972691528320313,0.296881005859375,8.281543542480469,115.80916030534351,1.6488549618320612,-1.1755725190839694
1749737005.4267812,2025-06-12 21:03:25.426,30.177058823529414,-0.833182177734375,0.181959326171875,8.355763793945313,115.6793893129771,1.534351145038168,-0.9694656488549618
1749737005.4364157,2025-06-12 21:03:25.436,30.130000000000003,-0.9744400756835937,0.13168109130859373,8.154650854492187,115.70229007633588,0.022900763358778626,-1.1603053435114503
1749737005.4460804,2025-06-12 21:03:25.446,30.08294117647059,-0.6248866333007812,0.028730419921875,8.786720092773438,115.5114503816794,5.702290076335878,-1.3129770992366412
1749737005.4557326,2025-06-12 21:03:25.455,30.271176470588237,-0.3399766357421875,0.011971008300781249,8.212111694335936,115.16793893129771,2.9236641221374047,-1.6946564885496183
1749737005.4653773,2025-06-12 21:03:25.465,30.177058823529414,-0.16041151123046873,0.20829554443359374,9.093177905273437,115.92366412213741,5.229007633587786,-1.6564885496183206
1749737005.4758928,2025-06-12 21:03:25.475,30.224117647058826,-0.7613561279296874,0.47884033203125,8.233659509277343,115.41221374045801,0.3893129770992366,-1.4885496183206106
1749737005.485536,2025-06-12 21:03:25.485,30.130000000000003,-1.0223241088867188,0.181959326171875,8.588001354980468,115.98473282442748,2.4427480916030535,-1.450381679389313
1749737005.4951732,2025-06-12 21:03:25.495,30.130000000000003,-1.2497732666015624,0.016759411621093748,8.568847741699217,116.0381679389313,0.4732824427480916,-1.297709923664122
1749737005.504808,2025-06-12 21:03:25.504,30.177058823529414,-1.1635820068359375,0.10773907470703124,8.279149340820313,116.20610687022901,2.8625954198473282,-1.5114503816793894
1749737005.5144446,2025-06-12 21:03:25.514,30.08294117647059,-0.9935936889648437,0.22744915771484372,8.55448253173828,116.1145038167939,0.7557251908396947,-1.748091603053435
1749737005.5240803,2025-06-12 21:03:25.524,30.271176470588237,-0.8475473876953125,0.30885201416015623,8.48505068359375,115.78625954198473,1.0916030534351144,-1.5572519083969465
1749737005.5337415,2025-06-12 21:03:25.533,30.08294117647059,-1.0558429321289062,0.34237083740234375,8.532934716796875,115.6030534351145,0.7633587786259542,-1.8854961832061068
1749737005.5434058,2025-06-12 21:03:25.543,30.130000000000003,-1.0726023437499999,0.2561795776367187,8.43956085205078,115.06870229007633,0.030534351145038167,-1.5572519083969465
1749737005.5530527,2025-06-12 21:03:25.553,30.130000000000003,-1.0702081420898437,0.13407529296874998,8.360552197265624,115.77099236641222,0.6870229007633588,-1.9236641221374047
1749737005.5626917,2025-06-12 21:03:25.562,30.224117647058826,-0.9744400756835937,0.12449848632812499,8.303091357421874,115.87786259541984,0.007633587786259542,-3.9083969465648853
1749737005.5723276,2025-06-12 21:03:25.572,30.177058823529414,-1.0127473022460938,0.15083470458984374,8.231265307617187,115.90839694656489,0.5038167938931297,-2.0
1749737005.5825396,2025-06-12 21:03:25.582,30.130000000000003,-0.9504980590820312,0.04548983154296875,8.441955053710936,115.9618320610687,0.29770992366412213,-2.2061068702290076
1749737005.5921776,2025-06-12 21:03:25.592,30.224117647058826,-0.9840168823242187,0.18914193115234373,8.353369592285155,115.93129770992367,0.4732824427480916,-2.183206106870229
1749737005.6018124,2025-06-12 21:03:25.601,30.130000000000003,-0.93852705078125,0.1580173095703125,8.556876733398436,115.51908396946565,-1.7709923664122138,-1.7557251908396947
1749737005.611449,2025-06-12 21:03:25.611,30.177058823529414,-0.8499415893554687,0.0143652099609375,8.59278975830078,116.92366412213741,1.0458015267175573,-3.7786259541984735
1749737005.6210823,2025-06-12 21:03:25.621,30.177058823529414,-0.9552864624023437,0.17477672119140625,8.310273962402343,115.3969465648855,-0.3816793893129771,-2.351145038167939
1749737005.6307175,2025-06-12 21:03:25.630,30.177058823529414,-0.6775590698242188,0.031124621582031248,8.808267907714843,115.91603053435115,0.4122137404580153,-2.3435114503816794
1749737005.640384,2025-06-12 21:03:25.640,30.177058823529414,-1.0630255371093749,0.047884033203124995,8.52335791015625,116.3587786259542,-0.15267175572519084,-1.8854961832061068
1749737005.6500695,2025-06-12 21:03:25.650,30.224117647058826,-0.9816226806640624,0.12449848632812499,8.437166650390624,115.96946564885496,-1.717557251908397,-2.3969465648854964
1749737005.6597092,2025-06-12 21:03:25.659,30.224117647058826,-1.0534487304687499,-0.0718260498046875,8.43956085205078,116.32824427480917,-1.8244274809160306,-2.3282442748091605
1749737005.669343,2025-06-12 21:03:25.669,30.130000000000003,-0.6847416748046875,0.12210428466796874,8.329427575683594,116.08396946564885,0.9312977099236641,-2.2977099236641223
1749737005.6789746,2025-06-12 21:03:25.678,30.130000000000003,-0.9864110839843749,0.3280056274414062,8.37012900390625,115.3969465648855,-0.35877862595419846,-2.3435114503816794
1749737005.6889591,2025-06-12 21:03:25.688,30.08294117647059,-1.0175357055664063,-0.1771709228515625,8.305485559082031,116.79389312977099,0.2748091603053435,-2.480916030534351
1749737005.6986024,2025-06-12 21:03:25.698,30.177058823529414,-0.8858546142578124,0.2920926025390625,8.504204296874999,116.09160305343511,1.9465648854961832,-0.06870229007633588
1749737005.7082357,2025-06-12 21:03:25.708,30.130000000000003,-1.0438719238281249,0.09576806640624999,8.386888415527343,115.80152671755725,-0.12213740458015267,-2.2595419847328246
1749737005.7178705,2025-06-12 21:03:25.717,30.130000000000003,-1.1061211669921875,0.0526724365234375,8.149862451171874,116.25954198473282,-0.4122137404580153,-2.3053435114503817
1749737005.7275064,2025-06-12 21:03:25.727,30.130000000000003,-0.7924807495117187,0.1292868896484375,8.415618835449218,116.05343511450381,-0.5572519083969466,-2.450381679389313
1749737005.7371435,2025-06-12 21:03:25.737,30.224117647058826,-0.9911994873046874,0.09816226806640624,8.271966735839843,116.38167938931298,-1.9541984732824427,-2.312977099236641
1749737005.746799,2025-06-12 21:03:25.746,30.177058823529414,-0.9241618408203125,-0.062249243164062495,8.298302954101562,116.87022900763358,-1.2290076335877862,-2.351145038167939
1749737005.7564552,2025-06-12 21:03:25.756,30.130000000000003,-1.0007762939453124,0.277727392578125,8.166621862792969,115.98473282442748,-1.0763358778625953,-2.33587786259542
1749737005.7660954,2025-06-12 21:03:25.766,30.130000000000003,-0.9050082275390624,0.11731588134765625,8.47786807861328,115.91603053435115,-1.213740458015267,-2.4198473282442747
1749737005.7757316,2025-06-12 21:03:25.775,30.130000000000003,-1.0127473022460938,0.1580173095703125,8.303091357421874,115.91603053435115,-1.5877862595419847,-2.4427480916030535
1749737005.7853742,2025-06-12 21:03:25.785,30.130000000000003,-0.8212111694335937,0.16998831787109375,8.413224633789062,115.80152671755725,-1.1145038167938932,-2.198473282442748
1749737005.7957945,2025-06-12 21:03:25.795,30.224117647058826,-0.8188169677734375,0.13407529296874998,8.425195642089843,116.27480916030534,-1.8625954198473282,-2.2519083969465647
1749737005.8054347,2025-06-12 21:03:25.805,30.177058823529414,-1.0869675537109373,0.13646949462890623,8.506598498535157,116.09160305343511,-1.8015267175572518,-2.4580152671755724
1749737005.8150733,2025-06-12 21:03:25.815,30.130000000000003,-0.8858546142578124,0.2154781494140625,8.444349255371094,115.89312977099236,-1.5877862595419847,-2.2748091603053435
1749737005.8247087,2025-06-12 21:03:25.824,30.130000000000003,-0.9097966308593749,0.07900865478515624,8.434772448730468,116.01526717557252,-1.8549618320610688,-2.648854961832061
1749737005.8343773,2025-06-12 21:03:25.834,30.224117647058826,-0.9935936889648437,0.03591302490234375,8.595183959960938,116.54198473282443,-1.633587786259542,-2.1603053435114505
1749737005.8440473,2025-06-12 21:03:25.844,30.177058823529414,-0.9792284790039062,-0.023942016601562498,8.355763793945313,116.37404580152672,-1.6412213740458015,-2.0839694656488548
1749737005.8536856,2025-06-12 21:03:25.853,30.130000000000003,-0.93852705078125,0.0383072265625,8.769960681152343,115.83969465648855,-2.2213740458015265,-2.2748091603053435
1749737005.863325,2025-06-12 21:03:25.863,30.130000000000003,-0.8954314208984374,0.1484405029296875,8.698134631347656,116.18320610687023,-1.2061068702290076,-2.236641221374046
1749737005.8729625,2025-06-12 21:03:25.872,30.224117647058826,-0.9409212524414062,0.296881005859375,8.846575134277343,115.6412213740458,-1.618320610687023,-2.236641221374046
1749737005.8825989,2025-06-12 21:03:25.882,30.177058823529414,-0.8714894042968749,-0.028730419921875,8.487444885253906,115.87786259541984,-1.4351145038167938,-2.2519083969465647
1749737005.8922455,2025-06-12 21:03:25.892,30.224117647058826,-0.6967126831054687,0.1292868896484375,8.82263311767578,115.98473282442748,-1.4885496183206106,-2.183206106870229
1749737005.9022398,2025-06-12 21:03:25.902,30.224117647058826,-0.9050082275390624,-0.009576806640625,8.473079675292968,115.80152671755725,-1.5267175572519085,-2.50381679389313
1749737005.9118874,2025-06-12 21:03:25.911,30.177058823529414,-0.8882488159179687,0.0526724365234375,8.283937744140625,116.14503816793894,-1.6946564885496183,-2.595419847328244
1749737005.9215224,2025-06-12 21:03:25.921,30.177058823529414,-0.842758984375,0.3016694091796875,8.429984045410155,115.82442748091603,-1.3435114503816794,-2.0381679389312977
1749737005.9311564,2025-06-12 21:03:25.931,30.130000000000003,-0.718260498046875,-0.011971008300781249,8.327033374023436,116.19083969465649,-1.6488549618320612,-2.2900763358778624
1749737005.940793,2025-06-12 21:03:25.940,30.177058823529414,-0.63206923828125,0.076614453125,8.52335791015625,116.34351145038168,-1.816793893129771,-2.0
1749737005.9504468,2025-06-12 21:03:25.950,30.177058823529414,-0.8714894042968749,0.105344873046875,8.437166650390624,115.85496183206106,-1.297709923664122,-2.16793893129771
1749737005.9602258,2025-06-12 21:03:25.960,30.224117647058826,-0.8355763793945312,0.05027823486328125,8.655039001464843,116.38167938931298,-1.9389312977099236,-2.236641221374046
1749737005.9698625,2025-06-12 21:03:25.969,30.130000000000003,-0.8451531860351562,0.16041151123046873,8.482656481933594,116.22900763358778,-0.0916030534351145,-2.366412213740458
1749737005.979498,2025-06-12 21:03:25.979,30.03588235294118,-0.6177040283203125,0.10295067138671875,8.568847741699217,116.12213740458016,-1.8854961832061068,-2.1374045801526718
1749737005.9891331,2025-06-12 21:03:25.989,30.130000000000003,-0.7517793212890624,0.07900865478515624,8.683769421386717,116.48091603053435,-1.702290076335878,-2.0839694656488548
1749737005.99879,2025-06-12 21:03:25.998,30.177058823529414,-0.7398083129882812,0.00718260498046875,8.429984045410155,115.8473282442748,-1.7709923664122138,-2.2977099236641223
1749737006.008933,2025-06-12 21:03:26.008,30.177058823529414,-0.7062894897460937,0.076614453125,8.657433203124999,116.07633587786259,-1.8091603053435115,-2.145038167938931
1749737006.0185764,2025-06-12 21:03:26.018,30.224117647058826,-0.7350199096679687,0.08140285644531249,8.597578161621094,115.91603053435115,-1.7786259541984732,-2.213740458015267
1749737006.0282164,2025-06-12 21:03:26.028,30.224117647058826,-0.74699091796875,0.17477672119140625,8.757989672851561,116.22137404580153,-1.7099236641221374,-2.0381679389312977
1749737006.0378506,2025-06-12 21:03:26.037,30.177058823529414,-0.6153098266601562,0.11013327636718749,8.588001354980468,116.20610687022901,-1.8931297709923665,-2.4580152671755724
1749737006.0474973,2025-06-12 21:03:26.047,30.224117647058826,-0.6631938598632812,0.20350714111328125,8.760383874511719,116.31297709923665,-1.6793893129770991,-2.687022900763359
1749737006.0571513,2025-06-12 21:03:26.057,30.130000000000003,-0.6081272216796875,0.14604630126953125,8.647856396484375,116.09923664122137,-1.1603053435114503,-2.4656488549618323
1749737006.0667996,2025-06-12 21:03:26.066,30.177058823529414,-0.6631938598632812,0.02633621826171875,8.702923034667968,116.29007633587786,-1.6106870229007633,-2.366412213740458
1749737006.0765123,2025-06-12 21:03:26.076,30.224117647058826,-0.7110778930664062,0.02633621826171875,8.712499841308594,115.95419847328245,-1.2748091603053435,-2.4198473282442747
1749737006.0861404,2025-06-12 21:03:26.086,30.224117647058826,-0.5578489868164063,0.01915361328125,8.779537487792968,116.34351145038168,-0.7099236641221374,-2.1755725190839694
1749737006.0957644,2025-06-12 21:03:26.095,30.177058823529414,-0.7038952880859375,0.062249243164062495,8.757989672851561,116.29007633587786,-0.9847328244274809,-2.450381679389313
1749737006.1053944,2025-06-12 21:03:26.105,30.177058823529414,-0.6703764648437499,0.16041151123046873,8.621520178222656,115.93129770992367,-0.5343511450381679,-2.2595419847328246
1749737006.115717,2025-06-12 21:03:26.115,30.224117647058826,-0.7038952880859375,0.2825157958984375,8.66940421142578,115.87022900763358,-0.9007633587786259,-2.2595419847328246
1749737006.1253576,2025-06-12 21:03:26.125,30.177058823529414,-0.59376201171875,0.13168109130859373,8.647856396484375,116.1145038167939,-0.48091603053435117,-2.3587786259541983
1749737006.1349971,2025-06-12 21:03:26.134,30.271176470588237,-0.6847416748046875,0.12689268798828124,8.63827958984375,115.49618320610686,-0.7557251908396947,-2.198473282442748
1749737006.1446497,2025-06-12 21:03:26.144,30.08294117647059,-0.7015010864257812,0.05985504150390625,8.662221606445312,115.76335877862596,-0.17557251908396945,-2.0839694656488548
1749737006.1543043,2025-06-12 21:03:26.154,30.130000000000003,-0.74699091796875,0.08858546142578125,8.566453540039062,115.8473282442748,-0.7557251908396947,-3.8473282442748094
1749737006.1639793,2025-06-12 21:03:26.163,30.08294117647059,-0.63206923828125,-0.03591302490234375,8.59278975830078,116.29007633587786,-0.5877862595419847,-2.3435114503816794
1749737006.173638,2025-06-12 21:03:26.173,30.177058823529414,-0.5530605834960938,0.03591302490234375,8.681375219726561,116.5114503816794,-0.549618320610687,-3.8396946564885495
1749737006.1832368,2025-06-12 21:03:26.183,30.177058823529414,-0.7038952880859375,0.06943184814453125,8.56166513671875,116.33587786259542,-0.04580152671755725,-2.1374045801526718
1749737006.1928716,2025-06-12 21:03:26.192,30.130000000000003,-0.4955997436523437,0.0047884033203125,8.602366564941406,115.87022900763358,-0.4961832061068702,-2.0610687022900764
1749737006.2025034,2025-06-12 21:03:26.202,30.177058823529414,-0.6751648681640625,0.18914193115234373,8.633491186523438,115.52671755725191,-0.4580152671755725,-1.816793893129771
1749737006.2121656,2025-06-12 21:03:26.212,30.177058823529414,-0.6847416748046875,0.16280571289062498,8.698134631347656,115.16793893129771,-0.44274809160305345,-0.007633587786259542
1749737006.2222793,2025-06-12 21:03:26.222,30.224117647058826,-0.7422025146484375,0.07422025146484375,8.70771143798828,115.54198473282443,-0.42748091603053434,-1.9770992366412214
1749737006.2319355,2025-06-12 21:03:26.231,30.271176470588237,-0.6296750366210937,0.05985504150390625,8.463502868652343,115.46564885496183,-0.732824427480916,-1.8854961832061068
1749737006.2415733,2025-06-12 21:03:26.241,30.177058823529414,-0.8403647827148437,0.0047884033203125,8.386888415527343,115.63358778625954,-0.4961832061068702,-2.16793893129771
1749737006.251243,2025-06-12 21:03:26.251,30.130000000000003,-0.7158662963867187,-0.062249243164062495,8.475473876953124,116.25190839694656,-0.26717557251908397,-3.885496183206107
1749737006.260955,2025-06-12 21:03:26.260,30.130000000000003,-0.689530078125,0.08858546142578125,8.33182177734375,115.95419847328245,-0.48091603053435117,-0.0916030534351145
1749737006.2706387,2025-06-12 21:03:26.270,30.130000000000003,-0.6200982299804687,-0.062249243164062495,8.36294639892578,115.54961832061069,-0.4580152671755725,-1.5801526717557253
1749737006.2802784,2025-06-12 21:03:26.280,30.224117647058826,-0.7565677246093749,-0.16280571289062498,8.461108666992187,115.64885496183206,-1.0381679389312977,-1.5954198473282444
1749737006.2899804,2025-06-12 21:03:26.289,30.130000000000003,-0.7541735229492187,0.07900865478515624,8.355763793945313,115.83206106870229,-0.732824427480916,-1.3282442748091603
1749737006.299589,2025-06-12 21:03:26.299,30.224117647058826,-0.6512228515624999,0.02154781494140625,8.465897070312499,115.8854961832061,-0.9618320610687023,-1.5877862595419847
1749737006.309231,2025-06-12 21:03:26.309,30.130000000000003,-0.612915625,0.09337386474609374,8.604760766601562,115.53435114503817,-0.8091603053435115,-1.4045801526717556
1749737006.3188694,2025-06-12 21:03:26.318,30.177058823529414,-0.5865794067382812,0.15322890625,8.583212951660157,115.46564885496183,-0.9312977099236641,-1.1984732824427482
1749737006.3290343,2025-06-12 21:03:26.329,30.177058823529414,-0.5985504150390625,0.023942016601562498,8.657433203124999,115.16793893129771,-0.7938931297709924,-1.297709923664122
1749737006.3386686,2025-06-12 21:03:26.338,30.130000000000003,-0.5913678100585937,-0.10295067138671875,8.55448253173828,115.17557251908397,-0.9007633587786259,-1.251908396946565
1749737006.3483279,2025-06-12 21:03:26.348,30.177058823529414,-0.5027823486328125,-0.10295067138671875,8.547299926757812,113.36641221374046,-0.9007633587786259,-1.0305343511450382
1749737006.357969,2025-06-12 21:03:26.357,30.224117647058826,-0.5123591552734374,-0.0143652099609375,8.652644799804687,115.10687022900764,-0.4732824427480916,-0.6717557251908397
1749737006.3676076,2025-06-12 21:03:26.367,30.224117647058826,-0.5195417602539062,-0.023942016601562498,8.724470849609375,115.05343511450381,-0.2366412213740458,-0.7175572519083969
1749737006.3780408,2025-06-12 21:03:26.378,30.130000000000003,-0.47884033203125,-0.1580173095703125,8.805873706054687,113.54961832061069,-0.20610687022900764,-0.4732824427480916
1749737006.3889568,2025-06-12 21:03:26.388,30.130000000000003,-0.46208092041015625,-0.18435352783203124,8.750807067871094,115.54961832061069,-0.1450381679389313,-0.7557251908396947
1749737006.3986635,2025-06-12 21:03:26.398,30.130000000000003,-0.4644751220703125,-0.05746083984375,8.645462194824217,115.45801526717557,-0.4580152671755725,-0.7938931297709924
1749737006.4083385,2025-06-12 21:03:26.408,30.130000000000003,-0.4572925170898437,0.033518823242187495,8.647856396484375,115.40458015267176,-0.3435114503816794,-0.4351145038167939
1749737006.4179816,2025-06-12 21:03:26.417,30.224117647058826,-0.5434837768554687,0.13646949462890623,8.458714465332031,114.77099236641222,0.3053435114503817,-0.24427480916030533
1749737006.427617,2025-06-12 21:03:26.427,30.130000000000003,-0.38307226562499996,0.12689268798828124,8.432378247070313,114.64885496183206,0.5343511450381679,-0.3511450381679389
1749737006.4374413,2025-06-12 21:03:26.437,30.224117647058826,-0.316034619140625,-0.10295067138671875,8.722076647949219,115.19083969465649,1.8931297709923665,-0.13740458015267176
1749737006.4470813,2025-06-12 21:03:26.447,30.224117647058826,-0.34715924072265625,-0.19871873779296872,8.839392529296875,115.43511450381679,-1.8244274809160306,-0.3969465648854962
1749737006.4567368,2025-06-12 21:03:26.456,30.130000000000003,-0.5291185668945312,-0.21308394775390624,8.695740429687499,116.14503816793894,-0.33587786259541985,-1.8778625954198473
1749737006.466381,2025-06-12 21:03:26.466,30.08294117647059,-0.44532150878906246,0.06943184814453125,8.621520178222656,115.4885496183206,-0.32061068702290074,0.1450381679389313
1749737006.4760368,2025-06-12 21:03:26.476,30.08294117647059,-0.612915625,-0.11731588134765625,8.51617530517578,114.68702290076335,-1.9312977099236641,0.09923664122137404
1749737006.4856794,2025-06-12 21:03:26.485,30.177058823529414,-0.3758896606445312,0.033518823242187495,8.403647827148436,115.18320610687023,0.25190839694656486,-1.9312977099236641
1749737006.4953237,2025-06-12 21:03:26.495,30.177058823529414,-0.3806780639648437,0.05027823486328125,8.413224633789062,115.02290076335878,0.05343511450381679,1.8244274809160306
1749737006.5049624,2025-06-12 21:03:26.504,30.177058823529414,-0.6105214233398437,0.3112462158203125,8.396465222167969,115.16030534351145,-0.29770992366412213,-0.061068702290076333
1749737006.5146015,2025-06-12 21:03:26.514,30.224117647058826,-0.3806780639648437,0.2657563842773437,8.240842114257813,114.55725190839695,-0.8320610687022901,-0.13740458015267176
1749737006.5242462,2025-06-12 21:03:26.524,30.271176470588237,-0.5817910034179687,0.15083470458984374,8.406042028808594,114.59541984732824,-1.1145038167938932,-0.20610687022900764
1749737006.5338886,2025-06-12 21:03:26.533,30.224117647058826,-0.40462008056640625,0.22744915771484372,8.173804467773436,115.22900763358778,-0.8625954198473282,-0.08396946564885496
1749737006.544223,2025-06-12 21:03:26.544,30.130000000000003,-0.4644751220703125,0.2346317626953125,7.766790185546874,114.77099236641222,-0.09923664122137404,-0.4351145038167939
1749737006.5538654,2025-06-12 21:03:26.553,30.177058823529414,-0.51714755859375,0.4285620971679687,8.092401611328125,115.38167938931298,-2.5343511450381677,-0.6106870229007634
1749737006.5635076,2025-06-12 21:03:26.563,30.177058823529414,-0.5674257934570313,0.26336218261718747,8.197746484375,114.62595419847328,-2.6030534351145036,-0.648854961832061
1749737006.573188,2025-06-12 21:03:26.573,30.271176470588237,-0.5027823486328125,-0.1149216796875,8.750807067871094,116.25190839694656,-2.312977099236641,-0.8396946564885496
1749737006.5828674,2025-06-12 21:03:26.582,30.224117647058826,-0.49799394531249996,-0.05027823486328125,8.556876733398436,117.09160305343511,-2.7251908396946565,-0.6946564885496184
1749737006.5925012,2025-06-12 21:03:26.592,30.130000000000003,-0.6009446166992187,0.062249243164062495,8.683769421386717,116.73282442748092,-3.5419847328244276,-0.6870229007633588
1749737006.6021323,2025-06-12 21:03:26.602,30.271176470588237,-0.4572925170898437,0.258573779296875,8.695740429687499,115.7557251908397,-3.213740458015267,-0.4732824427480916
1749737006.611757,2025-06-12 21:03:26.611,30.224117647058826,-0.4525041137695312,0.23223756103515625,8.798691101074219,114.50381679389314,-2.3435114503816794,-0.13740458015267176
1749737006.6213996,2025-06-12 21:03:26.621,30.177058823529414,-0.5913678100585937,0.1580173095703125,8.789114294433594,113.6412213740458,-2.427480916030534,-0.3435114503816794
1749737006.6310334,2025-06-12 21:03:26.631,30.177058823529414,-0.45489831542968745,-0.07900865478515624,8.755595471191405,114.43511450381679,-0.04580152671755725,-0.4961832061068702
1749737006.6407173,2025-06-12 21:03:26.640,30.271176470588237,-0.5003881469726562,-0.1771709228515625,8.961496813964843,115.55725190839695,-2.717557251908397,-0.6412213740458015
1749737006.6511598,2025-06-12 21:03:26.651,30.130000000000003,-0.5458779785156249,-0.1292868896484375,8.583212951660157,115.86259541984732,-2.4427480916030535,-0.9541984732824428
1749737006.6607897,2025-06-12 21:03:26.660,30.224117647058826,-0.5602431884765625,-0.21787235107421873,8.597578161621094,116.49618320610686,-2.4656488549618323,-0.6030534351145038
1749737006.670422,2025-06-12 21:03:26.670,30.224117647058826,-0.5219359619140624,-0.02154781494140625,8.13310303955078,116.09923664122137,-2.595419847328244,-0.7709923664122137
1749737006.680082,2025-06-12 21:03:26.680,30.224117647058826,-0.5458779785156249,0.00239420166015625,8.269572534179687,115.90076335877863,-2.717557251908397,-0.4122137404580153
1749737006.6897354,2025-06-12 21:03:26.689,30.177058823529414,-0.47884033203125,-0.24181436767578124,8.647856396484375,116.45801526717557,-2.4122137404580153,-0.32061068702290074
1749737006.6993926,2025-06-12 21:03:26.699,30.177058823529414,-0.5482721801757812,-0.0383072265625,8.585607153320312,116.07633587786259,-2.3587786259541983,-0.3282442748091603
1749737006.7090392,2025-06-12 21:03:26.709,30.271176470588237,-0.6440402465820312,-0.17956512451171874,8.947131604003905,116.90839694656489,-3.0,-0.7786259541984732
1749737006.7187097,2025-06-12 21:03:26.718,30.177058823529414,-0.5817910034179687,-0.0383072265625,8.738836059570312,116.99236641221374,-2.7557251908396947,-1.015267175572519
1749737006.728375,2025-06-12 21:03:26.728,30.130000000000003,-0.5339069702148437,0.3399766357421875,8.750807067871094,116.38167938931298,-3.145038167938931,-0.8244274809160306
1749737006.7379863,2025-06-12 21:03:26.737,30.177058823529414,-0.5506663818359374,0.2346317626953125,8.382100012207031,115.96946564885496,-2.366412213740458,-1.0458015267175573
1749737006.7476535,2025-06-12 21:03:26.747,30.224117647058826,-0.5889736083984375,0.016759411621093748,8.200140686035155,116.02290076335878,-2.572519083969466,-1.0610687022900764
1749737006.7580662,2025-06-12 21:03:26.758,30.177058823529414,-0.6536170532226562,-0.02633621826171875,8.180987072753906,115.80916030534351,-3.198473282442748,-1.0687022900763359
1749737006.7677064,2025-06-12 21:03:26.767,30.130000000000003,-0.4572925170898437,-0.17238251953125,8.71489404296875,116.62595419847328,-2.351145038167939,-1.0916030534351144
1749737006.77735,2025-06-12 21:03:26.777,30.224117647058826,-0.5219359619140624,-0.13407529296874998,8.846575134277343,116.3969465648855,-2.50381679389313,-0.9618320610687023
1749737006.7869961,2025-06-12 21:03:26.786,30.224117647058826,-0.5003881469726562,-0.05985504150390625,8.686163623046875,116.86259541984732,-2.8931297709923665,-1.1297709923664123
1749737006.796631,2025-06-12 21:03:26.796,30.177058823529414,-0.32561142578124996,0.2561795776367187,8.772354882812499,116.70992366412214,-3.015267175572519,-0.9618320610687023
1749737006.8062623,2025-06-12 21:03:26.806,30.177058823529414,-0.430956298828125,0.29927520751953124,8.568847741699217,116.22137404580153,-2.5572519083969465,-1.2061068702290076
1749737006.815898,2025-06-12 21:03:26.815,30.177058823529414,-0.40222587890625,0.21308394775390624,8.506598498535157,116.72519083969466,-2.8091603053435112,-1.282442748091603
1749737006.825533,2025-06-12 21:03:26.825,30.177058823529414,-0.5410895751953124,0.29448680419921874,8.173804467773436,116.41221374045801,-2.854961832061069,-1.4732824427480915
1749737006.8351722,2025-06-12 21:03:26.835,30.224117647058826,-0.29927520751953124,0.3447650390625,8.413224633789062,115.54961832061069,-2.801526717557252,-1.7251908396946565
1749737006.8448026,2025-06-12 21:03:26.844,30.177058823529414,-0.28012159423828126,0.1580173095703125,8.863334545898438,115.78625954198473,-2.1603053435114505,-1.5114503816793894
1749737006.854448,2025-06-12 21:03:26.854,30.08294117647059,-0.29448680419921874,0.3902548706054687,8.894459167480468,115.31297709923665,-2.122137404580153,-1.633587786259542
1749737006.864722,2025-06-12 21:03:26.864,30.177058823529414,-0.4525041137695312,0.33039982910156246,9.064447485351561,115.87786259541984,-2.0916030534351147,-1.6412213740458015
1749737006.8743603,2025-06-12 21:03:26.874,30.224117647058826,-0.1771709228515625,0.38307226562499996,8.904035974121093,115.93129770992367,-2.381679389312977,-1.7557251908396947
1749737006.8840184,2025-06-12 21:03:26.884,30.130000000000003,-0.13168109130859373,0.3854664672851562,8.738836059570312,115.62595419847328,-2.099236641221374,-1.7099236641221374
1749737006.8936484,2025-06-12 21:03:26.893,30.224117647058826,-0.2154781494140625,0.3854664672851562,8.55448253173828,115.30534351145039,-0.015267175572519083,-1.8396946564885497
1749737006.9032812,2025-06-12 21:03:26.903,30.224117647058826,-0.10773907470703124,0.3280056274414062,8.360552197265624,114.94656488549619,-1.4885496183206106,-2.0
1749737006.9129102,2025-06-12 21:03:26.912,30.130000000000003,-0.06943184814453125,0.5434837768554687,8.621520178222656,113.59541984732824,-1.717557251908397,-3.7251908396946565
1749737006.9225423,2025-06-12 21:03:26.922,30.271176470588237,-0.05746083984375,0.39983167724609375,8.89924757080078,114.33587786259542,-1.465648854961832,-2.122137404580153
1749737006.9321842,2025-06-12 21:03:26.932,30.224117647058826,-0.09337386474609374,0.2825157958984375,8.951920007324219,113.91603053435115,-0.0916030534351145,-2.068702290076336
1749737006.9418178,2025-06-12 21:03:26.941,30.224117647058826,-0.1197100830078125,0.10773907470703124,8.942343200683593,114.41984732824427,-1.7251908396946565,-1.83206106870229
1749737006.9514954,2025-06-12 21:03:26.951,30.08294117647059,-0.08140285644531249,-0.0526724365234375,8.664615808105468,114.83969465648855,-1.6717557251908397,-1.633587786259542
1749737006.9611351,2025-06-12 21:03:26.961,30.130000000000003,-0.23702596435546874,-0.040701428222656245,8.492233288574218,115.21374045801527,-0.32061068702290074,-1.5877862595419847
1749737006.971922,2025-06-12 21:03:26.971,30.177058823529414,-0.2657563842773437,0.009576806640625,8.365340600585936,115.02290076335878,-2.1603053435114505,-1.6412213740458015
1749737006.9815931,2025-06-12 21:03:26.981,30.130000000000003,-0.21068974609375,-0.15083470458984374,8.580818749999999,115.44274809160305,-2.2442748091603053,-1.465648854961832
1749737006.991275,2025-06-12 21:03:26.991,30.130000000000003,-0.2609679809570312,-0.11013327636718749,8.662221606445312,114.38167938931298,-0.13740458015267176,-1.1755725190839694
1749737007.0009232,2025-06-12 21:03:27.000,30.130000000000003,-0.086191259765625,-0.028730419921875,8.736441857910156,113.64885496183206,-2.435114503816794,-1.0
1749737007.010559,2025-06-12 21:03:27.010,30.130000000000003,-0.09337386474609374,0.08379705810546874,8.63109698486328,113.16793893129771,-2.618320610687023,-0.6793893129770993
1749737007.0201955,2025-06-12 21:03:27.020,30.224117647058826,-0.08140285644531249,-0.09816226806640624,8.508992700195313,113.62595419847328,-2.480916030534351,-0.8244274809160306
1749737007.0298302,2025-06-12 21:03:27.029,30.224117647058826,-0.12689268798828124,-0.5770026000976562,8.130708837890625,114.38167938931298,-2.931297709923664,-1.1145038167938932
1749737007.0394695,2025-06-12 21:03:27.039,30.177058823529414,0.0526724365234375,-0.33039982910156246,8.135497241210937,115.5114503816794,-2.9236641221374047,-0.9007633587786259
1749737007.0491025,2025-06-12 21:03:27.049,30.271176470588237,0.016759411621093748,-0.24899697265624998,8.001421948242188,115.14503816793894,-2.7251908396946565,-0.6183206106870229
1749737007.058797,2025-06-12 21:03:27.058,30.224117647058826,0.10773907470703124,-0.3854664672851562,8.212111694335936,115.41984732824427,-3.053435114503817,-0.0916030534351145
1749737007.0684366,2025-06-12 21:03:27.068,30.224117647058826,0.181959326171875,-0.18914193115234373,8.173804467773436,114.74809160305344,-2.2290076335877864,-0.05343511450381679
1749737007.0780766,2025-06-12 21:03:27.078,30.224117647058826,0.3495534423828125,-0.0143652099609375,8.628702783203124,115.23664122137404,-2.0839694656488548,-0.33587786259541985
1749737007.0878704,2025-06-12 21:03:27.087,30.224117647058826,0.19871873779296872,-0.009576806640625,8.657433203124999,116.03053435114504,-2.66412213740458,-0.5343511450381679
1749737007.097511,2025-06-12 21:03:27.097,30.177058823529414,0.19632453613281248,0.055066638183593745,8.595183959960938,116.74045801526718,-2.801526717557252,-1.0916030534351144
1749737007.1072624,2025-06-12 21:03:27.107,30.130000000000003,0.0526724365234375,0.28490999755859375,8.528146313476562,116.42748091603053,-2.717557251908397,-1.4427480916030535
1749737007.1168704,2025-06-12 21:03:27.116,30.177058823529414,0.040701428222656245,0.09816226806640624,8.2743609375,115.98473282442748,-2.8625954198473282,-1.748091603053435
1749737007.126512,2025-06-12 21:03:27.126,30.08294117647059,-0.06464344482421874,0.33758243408203126,8.678981018066406,115.76335877862596,-3.3053435114503817,-1.4427480916030535
1749737007.1361537,2025-06-12 21:03:27.136,30.177058823529414,0.011971008300781249,0.40940848388671874,8.690952026367187,114.21374045801527,-2.946564885496183,-1.3053435114503817
1749737007.145798,2025-06-12 21:03:27.145,30.271176470588237,0.09816226806640624,-0.031124621582031248,8.851363537597656,114.95419847328245,-3.1908396946564888,-1.5954198473282444
1749737007.1554627,2025-06-12 21:03:27.155,30.130000000000003,-0.239420166015625,0.19393033447265623,8.604760766601562,117.13740458015268,-3.33587786259542,-2.1297709923664123
1749737007.1651113,2025-06-12 21:03:27.165,30.224117647058826,-0.0143652099609375,0.19871873779296872,8.621520178222656,115.34351145038168,-3.4732824427480917,-2.5419847328244276
1749737007.1747499,2025-06-12 21:03:27.174,30.177058823529414,-0.055066638183593745,0.40462008056640625,8.508992700195313,116.01526717557252,-3.5572519083969465,-2.5572519083969465
1749737007.184388,2025-06-12 21:03:27.184,30.177058823529414,0.06464344482421874,0.411802685546875,8.451531860351562,117.17557251908397,-2.8244274809160306,-2.8091603053435112
1749737007.1945727,2025-06-12 21:03:27.194,30.177058823529414,-0.32561142578124996,-0.13407529296874998,8.43956085205078,116.31297709923665,-3.068702290076336,-2.9923664122137406
1749737007.2042127,2025-06-12 21:03:27.204,30.224117647058826,-0.39264907226562495,-0.18914193115234373,8.63827958984375,116.72519083969466,-3.6412213740458017,-3.2748091603053435
1749737007.2138493,2025-06-12 21:03:27.213,30.130000000000003,-0.13646949462890623,0.1197100830078125,8.901641772460938,116.22900763358778,-3.2519083969465647,-2.145038167938931
1749737007.2234933,2025-06-12 21:03:27.223,30.08294117647059,-0.03591302490234375,0.1771709228515625,9.334992272949219,115.16793893129771,-2.7404580152671754,-2.282442748091603
1749737007.2331312,2025-06-12 21:03:27.233,30.177058823529414,-0.11252747802734374,0.28012159423828126,9.17458076171875,115.03053435114504,-3.1297709923664123,-2.1603053435114505
1749737007.2427678,2025-06-12 21:03:27.242,30.130000000000003,-0.2609679809570312,0.33039982910156246,9.380482104492186,117.18320610687023,-2.717557251908397,-2.763358778625954
1749737007.2524953,2025-06-12 21:03:27.252,30.177058823529414,-0.14125789794921875,0.26815058593749996,8.8872765625,117.21374045801527,-2.2213740458015265,-3.2977099236641223
1749737007.2621531,2025-06-12 21:03:27.262,30.130000000000003,-0.00718260498046875,-0.055066638183593745,8.777143286132812,116.68702290076335,-1.8244274809160306,-3.1755725190839694
1749737007.271804,2025-06-12 21:03:27.271,30.130000000000003,-0.040701428222656245,-0.0047884033203125,8.44674345703125,116.61068702290076,-1.4809160305343512,-3.2213740458015265
1749737007.281447,2025-06-12 21:03:27.281,30.130000000000003,-0.15322890625,-0.16998831787109375,8.312668164062499,115.98473282442748,-2.2977099236641223,-3.2977099236641223
1749737007.2910848,2025-06-12 21:03:27.291,30.271176470588237,-0.06703764648437499,-0.5985504150390625,8.67658681640625,117.33587786259542,-2.1526717557251906,-2.549618320610687
1749737007.3012874,2025-06-12 21:03:27.301,30.177058823529414,-0.2059013427734375,-0.565031591796875,8.166621862792969,117.91603053435115,-1.3587786259541985,-2.5114503816793894
1749737007.310931,2025-06-12 21:03:27.310,30.177058823529414,-0.2537853759765625,-0.8762778076171874,8.422801440429687,119.19083969465649,-1.9083969465648856,-2.3206106870229006
1749737007.3205695,2025-06-12 21:03:27.320,30.224117647058826,-0.32082302246093747,-0.6009446166992187,8.628702783203124,119.87022900763358,-2.366412213740458,-2.4198473282442747
1749737007.3302066,2025-06-12 21:03:27.330,30.224117647058826,-0.35673604736328124,-0.19393033447265623,8.920795385742187,118.90839694656489,-2.3053435114503817,-2.5572519083969465
1749737007.339844,2025-06-12 21:03:27.339,30.130000000000003,-0.2537853759765625,-0.4285620971679687,9.270348828125,119.58778625954199,-1.6488549618320612,-2.3282442748091605
1749737007.3494854,2025-06-12 21:03:27.349,30.224117647058826,-0.28012159423828126,-0.229843359375,8.892064965820312,119.1145038167939,-1.4427480916030535,-2.3969465648854964
1749737007.35914,2025-06-12 21:03:27.359,30.177058823529414,-0.32561142578124996,-0.19393033447265623,8.825027319335938,117.74045801526718,-2.2900763358778624,-2.6259541984732824
1749737007.368783,2025-06-12 21:03:27.368,30.224117647058826,-0.13646949462890623,-0.24181436767578124,8.892064965820312,117.80152671755725,-0.9541984732824428,-2.312977099236641
1749737007.3784242,2025-06-12 21:03:27.378,30.224117647058826,-0.4261678955078125,-0.23702596435546874,9.069235888671875,117.26717557251908,-0.5190839694656488,-2.282442748091603
1749737007.3880622,2025-06-12 21:03:27.388,30.31823529411765,-0.41898529052734373,-0.3327940307617187,8.863334545898438,117.77862595419847,-1.1450381679389312,-2.0916030534351147
1749737007.397715,2025-06-12 21:03:27.397,30.130000000000003,-0.10295067138671875,-0.10773907470703124,8.693346228027343,117.2824427480916,-1.9083969465648856,-3.7709923664122136
1749737007.4079328,2025-06-12 21:03:27.407,30.130000000000003,-0.047884033203124995,-0.2059013427734375,8.693346228027343,117.47328244274809,-0.3893129770992366,-2.0610687022900764
1749737007.4175684,2025-06-12 21:03:27.417,30.177058823529414,-0.2537853759765625,0.2537853759765625,8.90643017578125,117.80916030534351,-1.8091603053435115,-1.9312977099236641
1749737007.4272072,2025-06-12 21:03:27.427,30.177058823529414,-0.040701428222656245,0.3232172241210937,8.695740429687499,115.77099236641222,0.7633587786259542,-0.022900763358778626
1749737007.4368412,2025-06-12 21:03:27.436,30.130000000000003,-0.00239420166015625,-0.18914193115234373,8.932766394042968,115.43511450381679,0.4351145038167939,-2.16793893129771
1749737007.4464726,2025-06-12 21:03:27.446,30.130000000000003,-0.4477157104492187,0.11731588134765625,9.100360510253905,118.27480916030534,0.5877862595419847,-1.8473282442748091
1749737007.456154,2025-06-12 21:03:27.456,30.224117647058826,-0.2705447875976562,0.6416460449218749,9.100360510253905,115.78625954198473,0.7175572519083969,-1.8702290076335877
1749737007.4658003,2025-06-12 21:03:27.465,30.177058823529414,-0.3136404174804687,-0.02154781494140625,8.74601866455078,116.22900763358778,1.0,-1.7099236641221374
1749737007.4754465,2025-06-12 21:03:27.475,30.177058823529414,-0.3112462158203125,-0.20829554443359374,8.78432589111328,119.38931297709924,-0.15267175572519084,-1.900763358778626
1749737007.485085,2025-06-12 21:03:27.485,30.177058823529414,-0.05746083984375,0.354341845703125,8.257601525878906,117.6412213740458,-1.9312977099236641,-1.8244274809160306
1749737007.4947212,2025-06-12 21:03:27.494,30.177058823529414,-0.031124621582031248,0.04548983154296875,8.671798413085938,117.74045801526718,-1.9389312977099236,-1.8854961832061068
1749737007.5043836,2025-06-12 21:03:27.504,30.177058823529414,0.0383072265625,0.09576806640624999,8.346186987304687,119.92366412213741,-0.26717557251908397,-1.6793893129770991
1749737007.514677,2025-06-12 21:03:27.514,30.271176470588237,0.11731588134765625,0.6967126831054687,8.396465222167969,117.3206106870229,-1.5190839694656488,-2.1374045801526718
1749737007.5243113,2025-06-12 21:03:27.524,30.224117647058826,-0.11731588134765625,0.25139117431640623,8.422801440429687,119.51908396946565,-1.8015267175572518,-2.4732824427480917
1749737007.5339768,2025-06-12 21:03:27.533,30.224117647058826,-0.033518823242187495,0.40222587890625,8.51617530517578,120.14503816793894,-2.3053435114503817,-2.7022900763358777
1749737007.5436127,2025-06-12 21:03:27.543,30.130000000000003,-0.06464344482421874,0.5147533569335937,8.576030346679687,119.23664122137404,-1.4274809160305344,-3.0381679389312977
1749737007.5532396,2025-06-12 21:03:27.553,30.224117647058826,0.11252747802734374,0.3064578125,8.465897070312499,118.6793893129771,-0.26717557251908397,-3.5267175572519083
1749737007.5628874,2025-06-12 21:03:27.562,30.130000000000003,0.047884033203124995,0.5889736083984375,8.36294639892578,117.83969465648855,-0.8778625954198473,-5.694656488549619
1749737007.5725248,2025-06-12 21:03:27.572,30.224117647058826,0.1197100830078125,0.5506663818359374,8.798691101074219,116.05343511450381,-0.9770992366412213,-3.4885496183206106
1749737007.5821598,2025-06-12 21:03:27.582,30.08294117647059,0.12689268798828124,0.2657563842773437,8.671798413085938,115.77862595419847,-0.5877862595419847,-3.618320610687023
1749737007.5917945,2025-06-12 21:03:27.591,30.271176470588237,0.033518823242187495,0.2657563842773437,8.820238916015624,116.12213740458016,-0.4580152671755725,-3.3053435114503817
1749737007.6014328,2025-06-12 21:03:27.601,30.177058823529414,0.11731588134765625,-0.12210428466796874,8.614337573242187,116.40458015267176,-0.4580152671755725,-3.5877862595419847
1749737007.6110625,2025-06-12 21:03:27.611,30.177058823529414,0.062249243164062495,-0.49799394531249996,9.006986645507812,118.09923664122137,-0.7480916030534351,-4.129770992366412
1749737007.6212528,2025-06-12 21:03:27.621,30.271176470588237,-0.201112939453125,0.1292868896484375,9.114725720214842,117.72519083969466,-0.26717557251908397,-3.5801526717557253
1749737007.6308887,2025-06-12 21:03:27.630,30.224117647058826,-0.181959326171875,-0.016759411621093748,8.935160595703124,117.9618320610687,0.5190839694656488,-3.2519083969465647
1749737007.6405354,2025-06-12 21:03:27.640,30.224117647058826,-0.2825157958984375,-0.11731588134765625,9.045293872070312,118.21374045801527,-0.648854961832061,-3.0229007633587788
1749737007.650953,2025-06-12 21:03:27.650,30.177058823529414,-0.29448680419921874,-0.028730419921875,8.719682446289061,117.35114503816794,-1.0763358778625953,-3.312977099236641
1749737007.6606345,2025-06-12 21:03:27.660,30.271176470588237,-0.10295067138671875,0.0143652099609375,8.827421520996094,117.58015267175573,-0.3816793893129771,-3.1755725190839694
1749737007.6702735,2025-06-12 21:03:27.670,30.224117647058826,-0.031124621582031248,-0.06703764648437499,8.20971749267578,118.58015267175573,-0.7786259541984732,-2.9083969465648853
1749737007.6799116,2025-06-12 21:03:27.679,30.224117647058826,-0.36631285400390623,-0.09576806640624999,8.437166650390624,118.1145038167939,-1.3129770992366412,-2.4198473282442747
1749737007.6895406,2025-06-12 21:03:27.689,30.130000000000003,0.17956512451171874,-0.3064578125,8.473079675292968,118.58015267175573,-0.732824427480916,-2.450381679389313
1749737007.69917,2025-06-12 21:03:27.699,30.224117647058826,0.01915361328125,0.07900865478515624,8.264784130859374,117.70992366412214,-0.4351145038167939,-2.435114503816794
1749737007.7088006,2025-06-12 21:03:27.708,30.177058823529414,-0.11731588134765625,0.08858546142578125,8.578424548339843,117.52671755725191,-1.0,-2.2213740458015265
1749737007.7184308,2025-06-12 21:03:27.718,30.271176470588237,0.24181436767578124,0.1005564697265625,8.499415893554687,118.03053435114504,-0.05343511450381679,-1.6564885496183206
1749737007.7284179,2025-06-12 21:03:27.728,30.224117647058826,-0.05027823486328125,0.928950244140625,9.05965908203125,115.59541984732824,-0.48854961832061067,-1.7786259541984732
1749737007.7380574,2025-06-12 21:03:27.738,30.224117647058826,-0.08140285644531249,0.6871358764648438,8.281543542480469,114.14503816793894,0.05343511450381679,-2.1755725190839694
1749737007.7477396,2025-06-12 21:03:27.747,30.08294117647059,-0.28012159423828126,0.32082302246093747,8.231265307617187,115.55725190839695,-1.0763358778625953,-2.351145038167939
1749737007.7573884,2025-06-12 21:03:27.757,30.08294117647059,-0.12449848632812499,0.3711012573242187,8.377311608886718,115.20610687022901,-3.816793893129771,-1.8931297709923665
1749737007.7670262,2025-06-12 21:03:27.767,30.177058823529414,-0.19871873779296872,0.40222587890625,8.614337573242187,114.3969465648855,-0.5038167938931297,-1.618320610687023
1749737007.776704,2025-06-12 21:03:27.776,30.03588235294118,-0.36631285400390623,-0.16519991455078123,9.030928662109375,114.87786259541984,-1.3740458015267176,-1.702290076335878
1749737007.7863376,2025-06-12 21:03:27.786,30.130000000000003,-0.36152445068359373,0.0909796630859375,9.014169250488282,115.41221374045801,-1.3740458015267176,-0.7938931297709924
1749737007.795973,2025-06-12 21:03:27.795,30.130000000000003,-0.5698199951171875,0.2442085693359375,9.028534460449219,114.03053435114504,-2.50381679389313,-0.9618320610687023
1749737007.8056223,2025-06-12 21:03:27.805,30.177058823529414,-0.40940848388671874,-0.28730419921875,8.336610180664062,113.36641221374046,-1.7099236641221374,-0.6564885496183206
1749737007.8152583,2025-06-12 21:03:27.815,30.130000000000003,-0.4429273071289062,-0.14604630126953125,8.688557824707031,115.91603053435115,-2.885496183206107,-0.4351145038167939
1749737007.8248937,2025-06-12 21:03:27.824,30.130000000000003,-0.29927520751953124,0.16759411621093748,8.291120349121094,115.31297709923665,-3.9083969465648853,-0.549618320610687
1749737007.835152,2025-06-12 21:03:27.835,30.130000000000003,-0.2609679809570312,-0.49320554199218747,8.75320126953125,116.4885496183206,-1.7328244274809161,-0.29770992366412213
1749737007.8448253,2025-06-12 21:03:27.844,30.130000000000003,-0.13646949462890623,-0.59376201171875,8.74601866455078,119.04580152671755,-2.5877862595419847,-0.2366412213740458
1749737007.8544817,2025-06-12 21:03:27.854,30.130000000000003,0.16998831787109375,0.16041151123046873,8.851363537597656,117.0,-1.3435114503816794,0.3969465648854962
1749737007.864128,2025-06-12 21:03:27.864,30.224117647058826,0.016759411621093748,-0.4261678955078125,8.585607153320312,116.74045801526718,-0.2824427480916031,0.5343511450381679
1749737007.8737643,2025-06-12 21:03:27.873,30.177058823529414,0.11252747802734374,-0.3112462158203125,8.568847741699217,118.12213740458016,-1.4274809160305344,0.6259541984732825
1749737007.883396,2025-06-12 21:03:27.883,30.177058823529414,-0.01915361328125,0.023942016601562498,9.054870678710937,116.68702290076335,-0.24427480916030533,0.8320610687022901
1749737007.893081,2025-06-12 21:03:27.893,30.177058823529414,0.12210428466796874,0.009576806640625,8.700528833007812,116.76335877862596,-1.6106870229007633,0.9541984732824428
1749737007.9027455,2025-06-12 21:03:27.902,30.130000000000003,0.05746083984375,0.05027823486328125,8.865728747558594,115.83969465648855,0.5801526717557252,0.9541984732824428
1749737007.912371,2025-06-12 21:03:27.912,30.224117647058826,-0.19153613281249998,0.1867477294921875,8.750807067871094,114.34351145038168,0.3893129770992366,0.9236641221374046
1749737007.9219997,2025-06-12 21:03:27.922,30.271176470588237,-0.39264907226562495,-0.0383072265625,9.141061938476563,113.19083969465649,-1.9312977099236641,1.1068702290076335
1749737007.93163,2025-06-12 21:03:27.931,30.177058823529414,0.055066638183593745,-0.7613561279296874,8.59997236328125,114.2824427480916,1.1755725190839694,2.145038167938931
1749737007.942109,2025-06-12 21:03:27.942,30.224117647058826,-0.4908113403320312,-0.6177040283203125,9.095572106933593,116.67175572519083,0.22137404580152673,2.786259541984733
1749737007.9518209,2025-06-12 21:03:27.951,30.177058823529414,-0.7637503295898437,-0.062249243164062495,8.628702783203124,113.69465648854961,-1.015267175572519,2.2900763358778624
1749737007.9614704,2025-06-12 21:03:27.961,30.271176470588237,0.22026655273437498,-0.55545478515625,9.026140258789061,114.07633587786259,0.9389312977099237,1.786259541984733
1749737007.9711027,2025-06-12 21:03:27.971,30.130000000000003,-0.8547299926757812,-0.86191259765625,9.313444458007812,119.51908396946565,1.5114503816793894,3.1526717557251906
1749737007.9807372,2025-06-12 21:03:27.980,30.177058823529414,-0.7230489013671875,-0.239420166015625,8.305485559082031,118.5114503816794,1.5190839694656488,3.1526717557251906
1749737007.990366,2025-06-12 21:03:27.990,30.224117647058826,-0.3280056274414062,-0.4381389038085937,8.810662109374999,117.91603053435115,0.2824427480916031,2.9923664122137406
1749737008.0000188,2025-06-12 21:03:28.000,30.130000000000003,-0.2705447875976562,-0.507570751953125,8.406042028808594,120.2442748091603,0.2900763358778626,3.0610687022900764
1749737008.0096464,2025-06-12 21:03:28.009,30.130000000000003,-0.229843359375,0.3806780639648437,8.360552197265624,119.70992366412214,0.44274809160305345,2.8091603053435112
1749737008.0192435,2025-06-12 21:03:28.019,30.130000000000003,-0.16280571289062498,-0.2537853759765625,8.02536396484375,120.50381679389314,-0.3435114503816794,3.3587786259541983
1749737008.028883,2025-06-12 21:03:28.028,30.130000000000003,-0.011971008300781249,-0.49320554199218747,8.037334973144532,122.46564885496183,-0.007633587786259542,2.6259541984732824
1749737008.0385144,2025-06-12 21:03:28.038,30.224117647058826,-0.6296750366210937,0.507570751953125,8.908824377441405,119.95419847328245,-1.8549618320610688,3.0
1749737008.048149,2025-06-12 21:03:28.048,30.224117647058826,-0.3806780639648437,0.40222587890625,8.90643017578125,118.74809160305344,1.2366412213740459,2.717557251908397
1749737008.0579157,2025-06-12 21:03:28.057,30.130000000000003,0.03591302490234375,0.5961562133789062,8.968679418945312,117.82442748091603,1.3435114503816794,2.8091603053435112
1749737008.0675545,2025-06-12 21:03:28.067,30.177058823529414,0.0,0.7278373046875,8.980650427246093,115.69465648854961,2.7786259541984735,2.0916030534351147
1749737008.0772324,2025-06-12 21:03:28.077,30.177058823529414,-0.2561795776367187,0.44053310546874996,8.98304462890625,115.01526717557252,2.7099236641221376,2.3282442748091605
1749737008.086863,2025-06-12 21:03:28.086,30.177058823529414,-0.3280056274414062,0.4477157104492187,9.557653027343749,116.02290076335878,2.595419847328244,2.2442748091603053
1749737008.0965278,2025-06-12 21:03:28.096,30.271176470588237,-0.4165910888671875,0.8044517578125,9.466673364257812,114.13740458015268,3.2748091603053435,2.312977099236641
1749737008.106155,2025-06-12 21:03:28.106,30.224117647058826,-0.6105214233398437,0.430956298828125,9.732429748535155,114.22900763358778,3.50381679389313,0.007633587786259542
1749737008.11578,2025-06-12 21:03:28.115,30.224117647058826,-0.39983167724609375,-0.3112462158203125,9.023746057128905,116.00763358778626,3.7786259541984735,1.6717557251908397
1749737008.1254117,2025-06-12 21:03:28.125,30.130000000000003,-0.34715924072265625,0.23223756103515625,8.810662109374999,118.4885496183206,3.9770992366412212,2.015267175572519
1749737008.135068,2025-06-12 21:03:28.135,30.177058823529414,-0.4572925170898437,0.26815058593749996,8.580818749999999,119.09160305343511,5.038167938931298,1.7786259541984732
1749737008.1447098,2025-06-12 21:03:28.144,30.130000000000003,-0.34237083740234375,0.39264907226562495,8.420407238769531,119.80916030534351,5.687022900763359,2.2519083969465647
1749737008.154352,2025-06-12 21:03:28.154,30.08294117647059,-0.13407529296874998,0.5267243652343749,7.975085729980468,120.42748091603053,4.4961832061068705,1.2061068702290076
1749737008.1645253,2025-06-12 21:03:28.164,30.130000000000003,-0.469263525390625,0.9696516723632812,7.745242370605468,119.66412213740458,3.9923664122137406,1.4580152671755726
1749737008.174178,2025-06-12 21:03:28.174,30.271176470588237,-0.6607996582031249,0.40222587890625,7.948749511718749,120.09160305343511,4.076335877862595,1.0
1749737008.1838582,2025-06-12 21:03:28.183,30.130000000000003,-0.3184288208007812,0.8212111694335937,7.666233715820312,119.83969465648855,4.183206106870229,0.5038167938931297
1749737008.193489,2025-06-12 21:03:28.193,30.224117647058826,-0.36391865234375,1.6328455322265625,8.207323291015625,119.06870229007633,5.847328244274809,0.6106870229007634
1749737008.2031198,2025-06-12 21:03:28.203,30.130000000000003,-0.3950432739257812,0.8116343627929687,7.431601953125,114.67175572519083,3.717557251908397,-1.9236641221374047
1749737008.2127445,2025-06-12 21:03:28.212,30.224117647058826,-0.2753331909179687,0.6344634399414062,7.958326318359375,115.48091603053435,3.4122137404580153,-0.12213740458015267
1749737008.2223845,2025-06-12 21:03:28.222,30.224117647058826,-0.11013327636718749,0.9720458740234375,7.9295958984374995,114.1145038167939,2.786259541984733,1.9389312977099236
1749737008.232009,2025-06-12 21:03:28.232,30.130000000000003,-0.06464344482421874,1.0630255371093749,8.161833459472655,113.06870229007633,2.4198473282442747,-0.366412213740458
1749737008.2416205,2025-06-12 21:03:28.241,30.177058823529414,-0.1484405029296875,0.9074024291992187,8.619125976562499,112.77862595419847,1.015267175572519,-0.6259541984732825
1749737008.251227,2025-06-12 21:03:28.251,30.177058823529414,-0.13168109130859373,0.6392518432617187,8.75320126953125,112.29007633587786,1.213740458015267,-0.5572519083969466
1749737008.26085,2025-06-12 21:03:28.260,30.177058823529414,-0.47884033203125,0.4261678955078125,9.234435803222656,112.19847328244275,1.1221374045801527,-0.21374045801526717
1749737008.270475,2025-06-12 21:03:28.270,30.130000000000003,-0.44053310546874996,-0.02154781494140625,8.769960681152343,113.34351145038168,1.4045801526717556,-0.1297709923664122
1749737008.280077,2025-06-12 21:03:28.280,30.224117647058826,-0.5865794067382812,-0.40940848388671874,8.552088330078124,115.79389312977099,0.9312977099236641,0.17557251908396945
1749737008.2896783,2025-06-12 21:03:28.289,30.224117647058826,-0.4860229370117187,-0.258573779296875,8.444349255371094,117.48091603053435,0.8931297709923665,0.31297709923664124
1749737008.2992792,2025-06-12 21:03:28.299,30.177058823529414,-0.3399766357421875,0.679953271484375,8.365340600585936,116.97709923664122,0.9083969465648855,0.5267175572519084
1749737008.3088794,2025-06-12 21:03:28.308,30.177058823529414,-0.59376201171875,0.51714755859375,8.465897070312499,116.78625954198473,1.3206106870229009,0.13740458015267176
1749737008.31848,2025-06-12 21:03:28.318,30.03588235294118,-0.7493851196289062,0.8738836059570312,7.987056738281249,116.18320610687023,0.26717557251908397,-0.11450381679389313
1749737008.3280804,2025-06-12 21:03:28.328,30.130000000000003,-0.6919242797851562,0.8906430175781249,8.429984045410155,115.25190839694656,0.061068702290076333,-0.2748091603053435
1749737008.3376832,2025-06-12 21:03:28.337,30.130000000000003,-0.4740519287109375,0.7637503295898437,8.166621862792969,114.35114503816794,1.2290076335877862,-0.37404580152671757
1749737008.3472898,2025-06-12 21:03:28.347,30.130000000000003,-0.6368576416015624,0.6631938598632812,8.152256652832031,112.6030534351145,0.31297709923664124,-0.4122137404580153
1749737008.3569002,2025-06-12 21:03:28.356,30.177058823529414,-0.33758243408203126,0.3280056274414062,8.032546569824218,112.52671755725191,-0.4198473282442748,-0.3511450381679389
1749737008.3665113,2025-06-12 21:03:28.366,30.177058823529414,-0.1484405029296875,0.6536170532226562,8.219294299316406,113.18320610687023,1.8473282442748091,0.2366412213740458
1749737008.3761275,2025-06-12 21:03:28.376,30.271176470588237,-0.430956298828125,0.7924807495117187,8.013392956542969,108.32824427480917,-0.48854961832061067,0.2900763358778626
1749737008.385778,2025-06-12 21:03:28.385,30.130000000000003,-0.5865794067382812,-0.033518823242187495,8.487444885253906,109.86259541984732,-1.4274809160305344,0.13740458015267176
1749737008.3954175,2025-06-12 21:03:28.395,30.224117647058826,-0.39743747558593745,0.04548983154296875,8.671798413085938,111.74045801526718,-1.4351145038167938,0.12213740458015267
1749737008.40505,2025-06-12 21:03:28.405,30.130000000000003,-0.507570751953125,0.3327940307617187,8.585607153320312,110.54961832061069,-1.1221374045801527,0.6412213740458015
1749737008.41468,2025-06-12 21:03:28.414,30.130000000000003,-0.4525041137695312,-0.201112939453125,8.655039001464843,110.98473282442748,-0.08396946564885496,0.8625954198473282
1749737008.4243238,2025-06-12 21:03:28.424,30.177058823529414,-0.4165910888671875,-0.55545478515625,8.075642199707032,112.90839694656489,-1.7251908396946565,1.4580152671755726
1749737008.433955,2025-06-12 21:03:28.433,30.177058823529414,-0.39983167724609375,-0.2609679809570312,7.896077075195312,114.07633587786259,-1.8625954198473282,1.8473282442748091
1749737008.443622,2025-06-12 21:03:28.443,30.224117647058826,-0.09576806640624999,-0.28969840087890625,7.8553756469726554,115.13740458015268,-1.4122137404580153,2.099236641221374
1749737008.4532714,2025-06-12 21:03:28.453,30.177058823529414,-0.16280571289062498,0.06703764648437499,7.690175732421874,115.3587786259542,-1.7709923664122138,1.6412213740458015
1749737008.4629116,2025-06-12 21:03:28.462,30.271176470588237,-0.37828386230468747,0.34715924072265625,7.994239343261718,114.98473282442748,-3.4427480916030535,1.4885496183206106
1749737008.4725437,2025-06-12 21:03:28.472,30.08294117647059,-0.1771709228515625,0.15562310791015624,7.970297326660156,114.87022900763358,-1.8625954198473282,1.3358778625954197
1749737008.4821763,2025-06-12 21:03:28.482,30.08294117647059,-0.47644613037109373,0.3280056274414062,8.51617530517578,114.40458015267176,-3.213740458015267,0.9541984732824428
1749737008.4918082,2025-06-12 21:03:28.491,30.177058823529414,-0.3591302490234375,0.5386953735351562,8.556876733398436,113.27480916030534,-3.3893129770992365,0.9465648854961832
1749737008.5014384,2025-06-12 21:03:28.501,30.271176470588237,0.00718260498046875,0.8595183959960937,8.79150849609375,110.90839694656489,-2.213740458015267,1.3587786259541985
1749737008.5111032,2025-06-12 21:03:28.511,30.177058823529414,-0.28490999755859375,0.55545478515625,8.808267907714843,107.8473282442748,-2.7709923664122136,0.6106870229007634
1749737008.5207691,2025-06-12 21:03:28.520,30.177058823529414,-0.59376201171875,-0.181959326171875,9.629479077148437,109.3587786259542,-2.519083969465649,0.5954198473282443
1749737008.5304132,2025-06-12 21:03:28.530,30.271176470588237,-0.17477672119140625,-0.8858546142578124,9.770736975097655,112.22137404580153,-1.8778625954198473,0.5725190839694656
1749737008.5400863,2025-06-12 21:03:28.540,30.177058823529414,-0.2825157958984375,-0.47884033203125,9.591171850585937,113.52671755725191,-0.21374045801526717,1.4198473282442747
1749737008.5499582,2025-06-12 21:03:28.549,30.271176470588237,-0.1005564697265625,-0.45489831542968745,9.0788126953125,112.49618320610686,-1.4885496183206106,1.1984732824427482
1749737008.5595975,2025-06-12 21:03:28.559,30.177058823529414,-0.1484405029296875,-0.8188169677734375,8.765172277832031,115.90839694656489,-1.3969465648854962,1.4809160305343512
1749737008.5692418,2025-06-12 21:03:28.569,30.224117647058826,-0.4261678955078125,-1.01514150390625,8.700528833007812,118.6793893129771,-1.6870229007633588,1.366412213740458
1749737008.578886,2025-06-12 21:03:28.578,30.177058823529414,-0.05985504150390625,-0.7661445312499999,8.832209924316405,120.53435114503817,-0.8625954198473282,1.0229007633587786
1749737008.5885215,2025-06-12 21:03:28.588,30.177058823529414,0.16519991455078123,-0.9433154541015625,8.427589843749999,122.80916030534351,-0.015267175572519083,0.816793893129771
1749737008.5981543,2025-06-12 21:03:28.598,30.177058823529414,-0.20350714111328125,0.4860229370117187,8.870517150878905,122.69465648854961,0.5038167938931297,1.0458015267175573
1749737008.6077945,2025-06-12 21:03:28.607,30.177058823529414,-0.05985504150390625,1.0223241088867188,8.339004382324218,117.87022900763358,0.9923664122137404,0.31297709923664124
1749737008.6174293,2025-06-12 21:03:28.617,30.177058823529414,-0.01915361328125,0.13646949462890623,8.999804040527343,119.52671755725191,0.7480916030534351,-1.251908396946565
1749737008.6271071,2025-06-12 21:03:28.627,30.224117647058826,0.40222587890625,0.7015010864257812,9.081206896972656,120.21374045801527,1.748091603053435,-1.6106870229007633
1749737008.6367714,2025-06-12 21:03:28.636,30.130000000000003,0.03591302490234375,1.93451494140625,8.789114294433594,114.31297709923665,1.916030534351145,-1.7633587786259541
1749737008.6464071,2025-06-12 21:03:28.646,30.271176470588237,-0.09816226806640624,0.40940848388671874,9.351751684570312,113.2824427480916,0.17557251908396945,-2.312977099236641
1749737008.6567721,2025-06-12 21:03:28.656,30.130000000000003,-0.82360537109375,-0.5386953735351562,9.17458076171875,116.01526717557252,-1.8473282442748091,-2.030534351145038
1749737008.6664205,2025-06-12 21:03:28.666,30.177058823529414,-0.9169792358398436,0.28012159423828126,9.1554271484375,114.83969465648855,1.9465648854961832,-2.1603053435114505
1749737008.6760516,2025-06-12 21:03:28.676,30.130000000000003,-0.277727392578125,-0.49799394531249996,8.185775476074218,116.56488549618321,1.5648854961832062,-2.1374045801526718
1749737008.685682,2025-06-12 21:03:28.685,30.130000000000003,-0.5865794067382812,-1.0917559570312498,8.28633194580078,122.19083969465649,0.08396946564885496,-1.4351145038167938
1749737008.6953318,2025-06-12 21:03:28.695,30.271176470588237,-0.15083470458984374,-0.32561142578124996,7.963114721679687,122.8854961832061,-1.8778625954198473,-2.0
1749737008.704977,2025-06-12 21:03:28.704,30.177058823529414,-0.5698199951171875,-0.4213794921875,9.165003955078124,121.33587786259542,-1.8473282442748091,-1.8015267175572518
1749737008.714611,2025-06-12 21:03:28.714,30.177058823529414,0.10773907470703124,-0.1771709228515625,9.478644372558593,126.25954198473282,1.3511450381679388,-1.7328244274809161
1749737008.724242,2025-06-12 21:03:28.724,30.224117647058826,0.023942016601562498,0.6560112548828124,8.894459167480468,124.44274809160305,3.213740458015267,-2.7022900763358777
1749737008.7338905,2025-06-12 21:03:28.733,30.224117647058826,-0.5602431884765625,0.4955997436523437,8.88009395751953,123.66412213740458,0.21374045801526717,-2.900763358778626
1749737008.7435813,2025-06-12 21:03:28.743,30.130000000000003,-0.2442085693359375,0.5315127685546874,8.580818749999999,124.68702290076335,1.6259541984732824,-3.7786259541984735
1749737008.7532325,2025-06-12 21:03:28.753,30.177058823529414,-0.2154781494140625,1.2641384765625,9.567229833984374,120.68702290076335,1.3358778625954197,-3.572519083969466
1749737008.7639458,2025-06-12 21:03:28.763,30.130000000000003,-0.5817910034179687,0.49799394531249996,8.276755139160155,119.77099236641222,2.9618320610687023,-3.83206106870229
1749737008.773578,2025-06-12 21:03:28.773,30.224117647058826,0.3064578125,0.296881005859375,9.057264880371093,119.56488549618321,-1.3587786259541985,-4.526717557251908
1749737008.7832172,2025-06-12 21:03:28.783,30.130000000000003,-0.28490999755859375,0.7589619262695312,9.821015209960937,118.97709923664122,2.2519083969465647,-4.740458015267175
1749737008.7928526,2025-06-12 21:03:28.792,30.177058823529414,0.9121908325195311,0.26336218261718747,9.581595043945311,120.20610687022901,4.244274809160306,-4.511450381679389
1749737008.8024886,2025-06-12 21:03:28.802,30.177058823529414,0.17956512451171874,1.0319009155273438,9.37808790283203,120.33587786259542,4.366412213740458,-3.9389312977099236
1749737008.8122401,2025-06-12 21:03:28.812,30.130000000000003,-1.5753846923828123,0.5865794067382812,7.843404638671874,118.93129770992367,-1.5572519083969465,-4.534351145038168
1749737008.8219075,2025-06-12 21:03:28.821,30.224117647058826,-0.928950244140625,1.0342951171875,8.973467822265624,118.7557251908397,2.3053435114503817,-5.412213740458015
1749737008.8315597,2025-06-12 21:03:28.831,30.177058823529414,-0.2537853759765625,-0.11252747802734374,9.351751684570312,120.6793893129771,2.351145038167939,-5.862595419847328
1749737008.8411999,2025-06-12 21:03:28.841,30.130000000000003,-0.39743747558593745,0.5195417602539062,9.375693701171874,124.50381679389314,5.534351145038168,-5.259541984732825
1749737008.8508375,2025-06-12 21:03:28.850,30.224117647058826,-1.3527239379882812,1.9009961181640624,8.14028564453125,119.06106870229007,-0.1450381679389313,-5.816793893129771
1749737008.860508,2025-06-12 21:03:28.860,30.271176470588237,-0.3327940307617187,1.5610194824218748,8.949525805664061,119.05343511450381,-1.099236641221374,-6.251908396946565
1749737008.8704896,2025-06-12 21:03:28.870,30.177058823529414,-0.22744915771484372,1.5155296508789062,8.973467822265624,119.44274809160305,3.145038167938931,-7.473282442748092
1749737008.880124,2025-06-12 21:03:28.880,30.271176470588237,1.149216796875,1.8698714965820311,8.319850769042969,115.02290076335878,3.885496183206107,-8.396946564885496
1749737008.8897583,2025-06-12 21:03:28.889,30.177058823529414,1.9967641845703124,0.8451531860351562,9.540893615722656,116.14503816793894,5.648854961832061,-8.740458015267176
1749737008.899392,2025-06-12 21:03:28.899,30.271176470588237,1.2401964599609374,0.9265560424804687,9.30147344970703,117.83206106870229,1.9923664122137406,-8.351145038167939
1749737008.9090471,2025-06-12 21:03:28.909,30.130000000000003,0.9313444458007812,1.6639701538085936,8.793902697753905,113.35114503816794,4.435114503816794,-7.526717557251908
1749737008.918698,2025-06-12 21:03:28.918,30.177058823529414,1.3670891479492187,0.49320554199218747,8.738836059570312,113.66412213740458,0.22137404580152673,-7.259541984732825
1749737008.9283662,2025-06-12 21:03:28.928,30.177058823529414,0.6775590698242188,1.120486376953125,8.267178332519531,113.4885496183206,-0.2824427480916031,-7.816793893129771
1749737008.9380126,2025-06-12 21:03:28.938,30.177058823529414,0.4860229370117187,1.4915876342773438,8.37012900390625,114.80916030534351,-2.816793893129771,-8.572519083969466
1749737008.947649,2025-06-12 21:03:28.947,30.177058823529414,0.6703764648437499,1.43652099609375,8.63827958984375,114.80152671755725,-3.595419847328244,-8.870229007633588
1749737008.9572797,2025-06-12 21:03:28.957,30.271176470588237,0.3136404174804687,1.5179238525390624,8.724470849609375,115.25954198473282,-2.572519083969466,-9.15267175572519
1749737008.9669285,2025-06-12 21:03:28.966,30.177058823529414,0.18914193115234373,1.2042834350585936,8.621520178222656,112.31297709923665,-3.8091603053435112,-9.0
1749737008.9771924,2025-06-12 21:03:28.977,30.271176470588237,0.40462008056640625,0.7948749511718749,8.82981572265625,113.27480916030534,-0.07633587786259542,-9.221374045801527
1749737008.9868593,2025-06-12 21:03:28.986,30.08294117647059,0.70868369140625,0.43574470214843747,9.789890588378906,110.03053435114504,1.3969465648854962,-8.82442748091603
1749737008.9964998,2025-06-12 21:03:28.996,30.224117647058826,0.5363011718749999,-0.10773907470703124,9.576806640625,112.12213740458016,1.83206106870229,-8.076335877862595
1749737009.0062249,2025-06-12 21:03:29.006,30.177058823529414,0.4165910888671875,0.19393033447265623,10.290278735351562,110.70229007633588,1.717557251908397,-7.564885496183206
1749737009.015943,2025-06-12 21:03:29.015,30.130000000000003,0.737414111328125,-0.11252747802734374,10.254365710449218,110.58778625954199,3.4580152671755724,-6.8396946564885495
1749737009.025584,2025-06-12 21:03:29.025,30.177058823529414,0.44532150878906246,0.277727392578125,10.450690246582031,110.03053435114504,2.7404580152671754,-6.450381679389313
1749737009.0352526,2025-06-12 21:03:29.035,30.224117647058826,0.239420166015625,-0.48123453369140623,9.85692823486328,109.54198473282443,3.0229007633587788,-6.221374045801527
1749737009.0448985,2025-06-12 21:03:29.044,30.224117647058826,0.7733271362304687,-0.8092401611328125,9.399635717773437,111.95419847328245,5.564885496183206,-7.66412213740458
1749737009.054534,2025-06-12 21:03:29.054,30.177058823529414,0.3399766357421875,-0.5482721801757812,8.920795385742187,112.61068702290076,5.076335877862595,-5.030534351145038
1749737009.064167,2025-06-12 21:03:29.064,30.177058823529414,-0.3950432739257812,-0.16041151123046873,9.318232861328125,112.0,3.984732824427481,-4.106870229007634
1749737009.0738406,2025-06-12 21:03:29.073,30.130000000000003,0.7134720947265625,-0.3495534423828125,9.282319836425781,111.86259541984732,8.763358778625955,-3.595419847328244
1749737009.0840304,2025-06-12 21:03:29.084,30.177058823529414,-0.7996633544921875,0.45489831542968745,7.809885815429687,107.1145038167939,6.908396946564886,-3.6564885496183206
1749737009.0936673,2025-06-12 21:03:29.093,30.130000000000003,-0.9840168823242187,0.2920926025390625,8.207323291015625,108.94656488549619,4.366412213740458,-4.106870229007634
1749737009.1033037,2025-06-12 21:03:29.103,30.224117647058826,-0.5913678100585937,0.0718260498046875,8.75320126953125,108.62595419847328,6.557251908396947,-3.2748091603053435
1749737009.1129375,2025-06-12 21:03:29.112,30.130000000000003,-0.9528922607421875,0.43574470214843747,8.877699755859375,106.06106870229007,5.595419847328245,-3.2213740458015265
1749737009.12257,2025-06-12 21:03:29.122,30.130000000000003,-0.8092401611328125,-0.4261678955078125,9.725247143554688,107.42748091603053,7.458015267175573,-2.2213740458015265
1749737009.132215,2025-06-12 21:03:29.132,30.130000000000003,-1.618480322265625,-1.0702081420898437,10.196904870605469,107.55725190839695,4.00763358778626,-2.1603053435114505
1749737009.1418514,2025-06-12 21:03:29.141,30.271176470588237,-2.1691467041015624,-0.08858546142578125,9.069235888671875,105.22137404580153,7.404580152671755,-1.6793893129770991
1749737009.1514904,2025-06-12 21:03:29.151,30.271176470588237,-3.1675287963867187,-1.5322890624999999,7.0844427124023435,108.50381679389314,1.8702290076335877,-1.4427480916030535
1749737009.1611269,2025-06-12 21:03:29.161,30.271176470588237,-2.9759926635742184,-1.0845733520507812,7.8170684204101555,111.66412213740458,-5.2748091603053435,-1.618320610687023
1749737009.1707852,2025-06-12 21:03:29.170,30.224117647058826,-3.0071172851562498,-0.4381389038085937,6.667851623535156,109.49618320610686,-2.2290076335877864,-1.5725190839694656
1749737009.1804264,2025-06-12 21:03:29.180,30.177058823529414,-1.1037269653320312,-1.3215993164062498,8.872911352539061,113.62595419847328,-0.366412213740458,-0.6259541984732825
1749737009.190806,2025-06-12 21:03:29.190,30.224117647058826,-0.1149216796875,-0.6919242797851562,8.966285217285156,115.40458015267176,4.99236641221374,-0.9923664122137404
1749737009.2004478,2025-06-12 21:03:29.200,30.177058823529414,-0.5602431884765625,0.11252747802734374,8.494627490234375,113.70229007633588,4.259541984732825,-1.0305343511450382
1749737009.2100885,2025-06-12 21:03:29.210,30.177058823529414,-1.0007762939453124,-0.8044517578125,7.970297326660156,113.5114503816794,2.1374045801526718,-1.6946564885496183
1749737009.2197456,2025-06-12 21:03:29.219,30.177058823529414,-1.024718310546875,0.201112939453125,8.010998754882811,115.1145038167939,3.480916030534351,-1.6870229007633588
1749737009.229384,2025-06-12 21:03:29.229,30.177058823529414,1.2401964599609374,0.93852705078125,9.289502441406249,109.91603053435115,13.244274809160306,-1.7709923664122138
1749737009.2390237,2025-06-12 21:03:29.239,30.177058823529414,1.6543933471679686,-0.07422025146484375,8.243236315917969,110.22137404580153,13.129770992366412,-3.877862595419847
1749737009.248664,2025-06-12 21:03:29.248,30.271176470588237,2.528276953125,-0.062249243164062495,10.218452685546874,110.5114503816794,15.458015267175572,-2.618320610687023
1749737009.2582986,2025-06-12 21:03:29.258,30.177058823529414,1.7741034301757812,0.10295067138671875,10.429142431640624,110.6793893129771,18.213740458015266,-2.1908396946564888
1749737009.2679644,2025-06-12 21:03:29.267,30.224117647058826,3.0813375366210938,0.24660277099609373,10.66137999267578,110.61832061068702,18.65648854961832,-1.4732824427480915
1749737009.2776027,2025-06-12 21:03:29.277,30.177058823529414,2.090138049316406,-0.10773907470703124,10.005368737792969,109.74045801526718,14.702290076335878,-1.5114503816793894
1749737009.2872725,2025-06-12 21:03:29.287,30.08294117647059,1.1228805786132812,-0.45010991210937495,9.291896643066405,111.93129770992367,12.778625954198473,-1.450381679389313
1749737009.2974305,2025-06-12 21:03:29.297,30.224117647058826,-0.9313444458007812,-0.9097966308593749,9.145850341796875,116.04580152671755,1.4351145038167938,-0.061068702290076333
1749737009.3070695,2025-06-12 21:03:29.307,30.130000000000003,-1.8507178833007811,-0.6392518432617187,9.09796630859375,117.61832061068702,5.022900763358779,-1.0687022900763359
1749737009.3167086,2025-06-12 21:03:29.316,30.177058823529414,-2.6719290527343746,-1.218648645019531,6.490680700683593,117.41221374045801,-7.00763358778626,0.06870229007633588
1749737009.3263438,2025-06-12 21:03:29.326,30.177058823529414,-3.737348791503906,0.3016694091796875,7.862558251953125,119.04580152671755,-10.282442748091603,-1.1984732824427482
1749737009.3360076,2025-06-12 21:03:29.336,30.177058823529414,-2.6048914062499997,-0.603338818359375,6.098031628417968,118.55725190839695,-12.816793893129772,-2.5572519083969465
1749737009.3456461,2025-06-12 21:03:29.345,30.177058823529414,-1.2473790649414063,0.430956298828125,7.237671618652343,119.12213740458016,-6.213740458015267,-3.122137404580153
1749737009.3552847,2025-06-12 21:03:29.355,30.177058823529414,-0.5123591552734374,0.6081272216796875,8.176198669433592,118.83969465648855,-0.21374045801526717,-1.9618320610687023
1749737009.364919,2025-06-12 21:03:29.364,30.177058823529414,-2.8802245971679685,-0.08140285644531249,7.41244833984375,114.50381679389314,-9.458015267175572,-2.786259541984733
1749737009.3745656,2025-06-12 21:03:29.374,30.130000000000003,-2.4851813232421875,-0.7541735229492187,8.310273962402343,114.09923664122137,-7.366412213740458,-2.9923664122137406
1749737009.384207,2025-06-12 21:03:29.384,30.177058823529414,-3.227383837890625,-0.031124621582031248,7.242460021972656,113.77862595419847,-0.7862595419847328,-2.83206106870229
1749737009.3938432,2025-06-12 21:03:29.393,30.271176470588237,-3.162740393066406,-0.22026655273437498,6.890512377929687,113.04580152671755,0.31297709923664124,-3.0916030534351147
1749737009.4040575,2025-06-12 21:03:29.404,30.177058823529414,-1.7645266235351562,-0.5722141967773438,7.362170104980469,114.54198473282443,-8.206106870229007,-3.4732824427480917
1749737009.4136965,2025-06-12 21:03:29.413,30.130000000000003,-0.37828386230468747,-0.105344873046875,8.406042028808594,116.18320610687023,-6.473282442748092,-3.3740458015267176
1749737009.423337,2025-06-12 21:03:29.423,30.224117647058826,-1.9129671264648436,-0.3184288208007812,8.954314208984375,115.4885496183206,-4.656488549618321,-2.267175572519084
1749737009.4329767,2025-06-12 21:03:29.432,30.271176470588237,-1.0654197387695312,-1.484405029296875,8.384494213867187,119.32824427480917,-0.1450381679389313,-1.984732824427481
1749737009.4426446,2025-06-12 21:03:29.442,30.224117647058826,-1.599326708984375,-0.7230489013671875,7.615955480957031,120.73282442748092,-2.618320610687023,-3.6564885496183206
1749737009.4522855,2025-06-12 21:03:29.452,30.130000000000003,-1.8698714965820311,-0.3184288208007812,7.098807922363281,120.16793893129771,-3.50381679389313,-2.732824427480916
1749737009.4619238,2025-06-12 21:03:29.461,30.177058823529414,-1.2330138549804688,0.09816226806640624,7.388506323242187,120.45038167938931,-3.1374045801526718,-2.4580152671755724
1749737009.471576,2025-06-12 21:03:29.471,30.130000000000003,-1.5586252807617187,-0.2825157958984375,7.498639599609374,121.46564885496183,-4.916030534351145,-2.687022900763359
1749737009.4812207,2025-06-12 21:03:29.481,30.224117647058826,-1.3335703247070312,-0.055066638183593745,7.809885815429687,121.89312977099236,-7.0458015267175576,-3.015267175572519
1749737009.4908547,2025-06-12 21:03:29.490,30.177058823529414,-1.5322890624999999,0.9337386474609375,7.987056738281249,117.93129770992367,-5.778625954198473,-2.984732824427481
1749737009.5004964,2025-06-12 21:03:29.500,30.224117647058826,-0.5578489868164063,0.9409212524414062,8.046911779785155,115.6793893129771,-4.793893129770993,-3.236641221374046
1749737009.510839,2025-06-12 21:03:29.510,30.08294117647059,-1.20667763671875,0.0143652099609375,7.821856823730468,115.10687022900764,-6.396946564885496,-2.717557251908397
1749737009.520479,2025-06-12 21:03:29.520,30.177058823529414,-1.1085153686523437,-0.39983167724609375,8.52335791015625,116.54198473282443,-7.526717557251908,-3.1297709923664123
1749737009.5301113,2025-06-12 21:03:29.530,30.177058823529414,-1.16837041015625,0.22026655273437498,9.057264880371093,114.45038167938931,-7.137404580152672,-2.954198473282443
1749737009.5397918,2025-06-12 21:03:29.539,30.224117647058826,-0.86191259765625,-0.45010991210937495,8.973467822265624,115.04580152671755,-3.015267175572519,-3.5801526717557253
1749737009.549443,2025-06-12 21:03:29.549,30.224117647058826,-0.7278373046875,-0.8116343627929687,8.884882360839843,116.31297709923665,-5.366412213740458,-2.5419847328244276
1749737009.5590818,2025-06-12 21:03:29.559,30.271176470588237,-0.46686932373046874,-0.8499415893554687,8.659827404785156,118.46564885496183,-4.465648854961832,-1.702290076335878
1749737009.5687153,2025-06-12 21:03:29.568,30.31823529411765,-0.6703764648437499,-0.8259995727539062,8.365340600585936,119.79389312977099,-4.1603053435114505,-1.3129770992366412
1749737009.5783594,2025-06-12 21:03:29.578,30.130000000000003,-0.4333505004882812,-0.5243301635742187,8.262389929199218,121.45801526717557,-5.549618320610687,-1.213740458015267
1749737009.588052,2025-06-12 21:03:29.588,30.03588235294118,-0.36631285400390623,-0.0430956298828125,8.010998754882811,120.95419847328245,-5.8320610687022905,-1.549618320610687
1749737009.5977044,2025-06-12 21:03:29.597,30.177058823529414,-0.076614453125,0.5003881469726562,8.109161022949218,120.63358778625954,-4.6183206106870225,-0.04580152671755725
1749737009.6073449,2025-06-12 21:03:29.607,30.130000000000003,-0.4070142822265625,0.8068459594726562,8.157045056152343,118.22900763358778,-5.038167938931298,-1.702290076335878
1749737009.6170228,2025-06-12 21:03:29.617,30.08294117647059,-0.5746083984375,-0.02633621826171875,8.418013037109375,117.98473282442748,-4.519083969465649,-2.1908396946564888
1749737009.6266596,2025-06-12 21:03:29.626,30.130000000000003,-0.16519991455078123,0.26815058593749996,8.681375219726561,115.74809160305344,-3.801526717557252,-1.9770992366412214
