timestamp_unix,timestamp_readable,temp_c,accel_x,accel_y,accel_z,gyro_x,gyro_y,gyro_z
1749734582.2150784,2025-06-12 20:23:02.215,27.68294117647059,2.3151930053710936,-4.927267016601562,8.762778076171875,-110.1526717557252,25.984732824427482,123.3969465648855
1749734582.2251623,2025-06-12 20:23:02.225,27.635882352941177,-3.5529952636718747,1.678335363769531,6.246472131347656,21.00763358778626,-38.969465648854964,103.61832061068702
1749734582.2347991,2025-06-12 20:23:02.234,27.68294117647059,-4.1946413085937495,2.1787235107421874,7.570465649414062,106.67175572519083,32.61832061068702,0.061068702290076333
1749734582.2444186,2025-06-12 20:23:02.244,27.635882352941177,1.3311761230468748,-3.526659045410156,12.562376110839843,110.8854961832061,-22.984732824427482,-0.5190839694656488
1749734582.2540696,2025-06-12 20:23:02.254,27.588823529411766,-6.057330200195312,-3.1579519897460937,7.345410693359375,122.50381679389314,8.923664122137405,-1.5801526717557253
1749734582.2636857,2025-06-12 20:23:02.263,27.588823529411766,2.0781670410156248,5.580884069824219,2.042254016113281,120.02290076335878,-43.64885496183206,-3.1755725190839694
1749734582.2733054,2025-06-12 20:23:02.273,27.68294117647059,-1.5035586425781249,-0.09816226806640624,9.471461767578125,112.08396946564885,15.51908396946565,-1.2366412213740459
1749734582.2829533,2025-06-12 20:23:02.282,27.635882352941177,6.198588098144531,-3.3542765258789062,14.204798449707031,115.32824427480917,-4.374045801526718,-0.9389312977099237
1749734582.2928014,2025-06-12 20:23:02.292,27.588823529411766,-3.8091748413085935,-0.4213794921875,6.993463049316406,120.12977099236642,-21.66412213740458,-6.633587786259542
1749734582.30247,2025-06-12 20:23:02.302,27.494705882352942,-2.3343466186523436,9.923965881347655,2.8131869506835936,124.68702290076335,25.259541984732824,-14.885496183206106
1749734582.3122323,2025-06-12 20:23:02.312,27.635882352941177,6.962338427734375,-1.5227122558593749,13.4458365234375,107.42748091603053,34.44274809160305,-2.633587786259542
1749734582.322052,2025-06-12 20:23:02.322,27.68294117647059,0.6272808349609375,-5.104437939453125,12.770671655273437,122.29007633587786,12.198473282442748,-3.717557251908397
1749734582.3318694,2025-06-12 20:23:02.331,27.635882352941177,1.0582371337890624,-2.530671154785156,8.655039001464843,119.04580152671755,-21.69465648854962,-3.5267175572519083
1749734582.343728,2025-06-12 20:23:02.343,27.635882352941177,-6.1267620483398435,3.42849677734375,1.2378022583007813,115.64885496183206,-16.0,-0.5954198473282443
1749734582.3537886,2025-06-12 20:23:02.353,27.73,0.86191259765625,0.6679822631835937,9.052476477050782,114.36641221374046,-8.16793893129771,-4.442748091603053
1749734582.3638785,2025-06-12 20:23:02.363,27.635882352941177,-1.9608511596679685,-2.35589443359375,13.134590307617186,122.34351145038168,-34.12213740458015,-0.5648854961832062
1749734582.3739166,2025-06-12 20:23:02.373,27.68294117647059,0.6871358764648438,-0.17477672119140625,11.326968054199218,121.2442748091603,43.97709923664122,-3.2900763358778624
1749734582.384067,2025-06-12 20:23:02.384,27.68294117647059,1.8555062866210936,4.007893579101562,4.948814831542968,110.89312977099236,4.404580152671755,-3.763358778625954
1749734582.3941982,2025-06-12 20:23:02.394,27.588823529411766,0.37828386230468747,-0.3591302490234375,9.011775048828124,103.94656488549619,-36.54961832061068,-10.732824427480915
1749734582.4039865,2025-06-12 20:23:02.403,27.68294117647059,-3.0550013183593747,-1.446097802734375,5.614402893066406,117.78625954198473,-48.57251908396947,-4.961832061068702
1749734582.4137802,2025-06-12 20:23:02.413,27.68294117647059,1.0031704956054688,-2.868253588867187,9.253589416503905,119.23664122137404,31.49618320610687,0.04580152671755725
1749734582.4238517,2025-06-12 20:23:02.423,27.73,0.8738836059570312,5.176263989257812,2.674323254394531,106.45038167938931,-18.786259541984734,0.5648854961832062
1749734582.4337966,2025-06-12 20:23:02.433,27.68294117647059,-10.081983190917969,-2.1356278808593747,4.390965844726562,118.73282442748092,2.045801526717557,-7.694656488549619
1749734582.443529,2025-06-12 20:23:02.443,27.73,-0.2705447875976562,-4.388571643066406,17.33402001953125,123.87786259541984,41.02290076335878,-3.877862595419847
1749734582.4551332,2025-06-12 20:23:02.455,27.73,-0.3950432739257812,2.91134921875,13.026851232910156,115.45801526717557,22.35114503816794,2.3282442748091605
1749734582.4655454,2025-06-12 20:23:02.465,27.635882352941177,-1.01514150390625,0.8020575561523438,2.748543505859375,108.54198473282443,14.083969465648854,-0.48854961832061067
1749734582.475792,2025-06-12 20:23:02.475,27.73,1.7286135986328124,1.8243816650390623,11.918335864257811,108.74045801526718,-17.099236641221374,-4.251908396946565
1749734582.4857192,2025-06-12 20:23:02.485,27.73,-2.437297290039062,-5.9783215454101555,11.461043347167967,117.30534351145039,-0.35877862595419846,2.5267175572519083
1749734582.4962866,2025-06-12 20:23:02.496,27.777058823529412,3.0526071166992184,-1.0558429321289062,12.655749975585938,124.06870229007633,30.38167938931298,-6.435114503816794
1749734582.5059495,2025-06-12 20:23:02.505,27.73,-0.28490999755859375,6.160280871582031,5.348646508789062,118.95419847328245,71.93129770992367,-17.519083969465647
1749734582.5159166,2025-06-12 20:23:02.515,27.73,10.098742602539062,5.604826086425781,16.4338001953125,112.63358778625954,-39.25954198473283,-10.580152671755725
1749734582.525703,2025-06-12 20:23:02.525,27.777058823529412,-0.18914193115234373,-0.39264907226562495,8.413224633789062,123.1145038167939,-42.908396946564885,-15.13740458015267
1749734582.53561,2025-06-12 20:23:02.535,27.777058823529412,0.6248866333007812,3.6056677001953124,5.743689782714843,124.41221374045801,36.87786259541985,-11.01526717557252
1749734582.5454335,2025-06-12 20:23:02.545,27.777058823529412,-0.1484405029296875,1.0007762939453124,12.933477368164061,120.09160305343511,54.404580152671755,1.6946564885496183
1749734582.5553427,2025-06-12 20:23:02.555,27.824117647058827,8.482656481933594,-5.8083332275390624,7.44357296142578,102.83969465648855,-61.54961832061068,-3.572519083969466
1749734582.5651386,2025-06-12 20:23:02.565,27.777058823529412,1.5658078857421873,-3.0933085449218747,9.576806640625,118.04580152671755,-24.81679389312977,-6.603053435114504
1749734582.5776699,2025-06-12 20:23:02.577,27.635882352941177,-0.02633621826171875,4.781220715332031,4.2880151733398435,122.0381679389313,19.801526717557252,6.687022900763359
1749734582.587757,2025-06-12 20:23:02.587,27.824117647058827,-7.4699091796875,0.076614453125,3.5601778686523438,108.61832061068702,0.9236641221374046,-1.8931297709923665
1749734582.5977192,2025-06-12 20:23:02.597,27.73,-8.0828248046875,-4.96078583984375,9.93354268798828,120.30534351145039,-79.49618320610686,-3.9770992366412212
1749734582.6076467,2025-06-12 20:23:02.607,27.777058823529412,-6.622361791992187,-0.6607996582031249,5.719747766113281,127.67175572519083,66.87022900763358,0.8549618320610687
1749734582.6179316,2025-06-12 20:23:02.617,27.777058823529412,4.280832568359375,2.89219560546875,3.689464758300781,114.1526717557252,27.297709923664122,-5.603053435114504
1749734582.6288264,2025-06-12 20:23:02.628,27.73,10.321403356933594,-0.7972691528320313,15.78197879333496,104.29770992366412,-16.427480916030536,-8.908396946564885
1749734582.6391644,2025-06-12 20:23:02.639,27.635882352941177,14.202404248046873,6.742071875,11.951256137084961,133.45801526717557,7.122137404580153,4.030534351145038
1749734582.6499877,2025-06-12 20:23:02.649,27.824117647058827,-5.971138940429687,8.413224633789062,5.164292980957031,120.85496183206106,-19.106870229007633,-1.83206106870229
1749734582.660747,2025-06-12 20:23:02.660,27.777058823529412,-7.556100439453124,4.007893579101562,-3.5027170288085934,100.43511450381679,36.82442748091603,-4.0534351145038165
1749734582.6707284,2025-06-12 20:23:02.670,27.777058823529412,4.647145422363281,-4.005499377441406,19.61270144958496,114.6412213740458,5.587786259541985,-1.9312977099236641
1749734582.6829598,2025-06-12 20:23:02.682,27.824117647058827,-0.15322890625,8.17859287109375,5.142745166015625,123.99236641221374,18.366412213740457,-7.572519083969466
1749734582.6931672,2025-06-12 20:23:02.693,27.777058823529412,-0.55545478515625,3.6439749267578123,2.6862942626953124,104.85496183206106,3.8931297709923665,-8.778625954198473
1749734582.7030082,2025-06-12 20:23:02.703,27.87117647058824,2.6408044311523438,-6.868964562988281,6.4643444824218745,103.64885496183206,-27.33587786259542,4.061068702290076
1749734582.712719,2025-06-12 20:23:02.712,27.777058823529412,-9.490615380859374,-3.842693664550781,8.997409838867187,125.91603053435115,-7.702290076335878,8.954198473282442
1749734582.7225313,2025-06-12 20:23:02.722,27.777058823529412,1.8602946899414061,-1.0678139404296874,12.119448803710936,121.46564885496183,18.16030534351145,-6.297709923664122
1749734582.7325025,2025-06-12 20:23:02.732,27.777058823529412,2.8802245971679685,5.1331683593749995,5.442020373535156,111.55725190839695,2.885496183206107,-3.122137404580153
1749734582.742194,2025-06-12 20:23:02.742,27.824117647058827,0.8068459594726562,-0.8547299926757812,12.342109558105468,110.51908396946565,-21.27480916030534,-4.396946564885496
1749734582.7520027,2025-06-12 20:23:02.752,27.73,-5.231330627441406,-9.873687646484374,7.771578588867187,119.21374045801527,-21.732824427480917,1.2900763358778626
1749734582.7619362,2025-06-12 20:23:02.761,27.73,3.0550013183593747,-0.16759411621093748,8.073247998046874,117.50381679389314,-21.595419847328245,3.7404580152671754
1749734582.7717462,2025-06-12 20:23:02.771,27.824117647058827,-5.233724829101562,2.7461493041992187,1.180341418457031,103.70229007633588,-46.10687022900763,-5.137404580152672
1749734582.7819653,2025-06-12 20:23:02.781,27.824117647058827,-3.488351818847656,-1.4413093994140624,12.473790649414061,112.52671755725191,17.33587786259542,-4.969465648854962
1749734582.7921157,2025-06-12 20:23:02.792,27.777058823529412,0.26336218261718747,-2.104503259277344,10.857704528808593,120.78625954198473,0.7404580152671756,-0.4961832061068702
1749734582.8039367,2025-06-12 20:23:02.803,27.91823529411765,3.2034418212890623,3.816357446289062,11.731588134765625,123.87022900763358,-8.450381679389313,7.793893129770993
1749734582.8139405,2025-06-12 20:23:02.813,27.824117647058827,-2.8993782104492185,3.84987626953125,0.6655880615234374,113.82442748091603,18.870229007633586,-1.1603053435114503
1749734582.8240066,2025-06-12 20:23:02.824,27.777058823529412,-3.873818286132812,0.4429273071289062,6.734889270019531,110.00763358778626,-7.748091603053435,-4.984732824427481
1749734582.8340013,2025-06-12 20:23:02.834,27.777058823529412,11.324573852539062,-3.1747114013671873,17.23585775146484,124.50381679389314,11.068702290076336,5.32824427480916
1749734582.843925,2025-06-12 20:23:02.843,27.68294117647059,-1.3024457031249999,2.849099975585937,15.272612390136718,114.44274809160305,-12.86259541984733,-1.7328244274809161
1749734582.853686,2025-06-12 20:23:02.853,27.824117647058827,-5.889736083984375,1.4317325927734375,4.9823336547851556,109.09160305343511,25.435114503816795,-1.6564885496183206
1749734582.8635027,2025-06-12 20:23:02.863,27.87117647058824,-1.0558429321289062,0.5482721801757812,9.404424121093749,113.56488549618321,-8.320610687022901,-3.122137404580153
1749734582.8732567,2025-06-12 20:23:02.873,27.824117647058827,2.5953145996093747,0.46686932373046874,10.608707556152343,111.38167938931298,-27.641221374045802,-0.2748091603053435
1749734582.8829832,2025-06-12 20:23:02.882,27.824117647058827,-0.46208092041015625,-2.123656872558594,9.141061938476563,124.29007633587786,15.595419847328245,-0.48091603053435117
1749734582.8926473,2025-06-12 20:23:02.892,27.87117647058824,2.925714428710937,5.446808776855469,6.351817004394531,118.06106870229007,-6.419847328244275,-3.564885496183206
1749734582.9025948,2025-06-12 20:23:02.902,27.87117647058824,-3.191470812988281,-0.7685387329101562,4.113238452148437,122.30534351145039,30.916030534351144,7.1603053435114505
1749734582.915041,2025-06-12 20:23:02.915,27.777058823529412,-6.574477758789062,1.7764976318359373,12.921506359863281,124.56488549618321,20.603053435114504,3.801526717557252
1749734582.9253337,2025-06-12 20:23:02.925,27.777058823529412,10.01733974609375,2.384624853515625,9.081206896972656,117.27480916030534,55.213740458015266,2.7251908396946565
1749734582.9356878,2025-06-12 20:23:02.935,27.824117647058827,-1.936909143066406,0.2537853759765625,6.663063220214843,110.51908396946565,3.8396946564885495,-2.16793893129771
1749734582.945801,2025-06-12 20:23:02.945,27.777058823529412,1.5227122558593749,3.2609026611328122,13.232752575683593,102.96946564885496,10.977099236641221,-5.809160305343512
1749734582.955674,2025-06-12 20:23:02.955,27.824117647058827,5.461173986816406,-1.9512743530273435,10.601524951171875,126.54198473282443,-40.49618320610687,5.801526717557252
1749734582.9654636,2025-06-12 20:23:02.965,27.87117647058824,-5.942408520507812,3.076549133300781,5.65031591796875,121.92366412213741,-10.381679389312977,0.5725190839694656
1749734582.9751544,2025-06-12 20:23:02.975,27.824117647058827,-4.1946413085937495,-0.1292868896484375,3.845087866210937,109.74809160305344,32.70992366412214,-3.030534351145038
1749734582.9850059,2025-06-12 20:23:02.985,27.91823529411765,-2.090138049316406,-0.39743747558593745,9.90241806640625,109.95419847328245,0.1297709923664122,-0.4732824427480916
1749734582.9946923,2025-06-12 20:23:02.994,27.87117647058824,0.7015010864257812,-6.205770703124999,9.591171850585937,130.9083969465649,-51.13740458015267,-0.3053435114503817
1749734583.004462,2025-06-12 20:23:03.004,27.87117647058824,-2.0159177978515626,2.152387292480469,8.858546142578124,118.73282442748092,-13.664122137404581,0.3511450381679389
1749734583.014077,2025-06-12 20:23:03.014,27.824117647058827,-4.963180041503906,1.1180921752929687,1.7477672119140624,113.08396946564885,-19.900763358778626,1.0229007633587786
1749734583.0259643,2025-06-12 20:23:03.025,27.87117647058824,-3.0119056884765625,-0.7924807495117187,8.188169677734374,105.09160305343511,-29.419847328244273,-7.648854961832061
1749734583.0361896,2025-06-12 20:23:03.036,27.777058823529412,-0.016759411621093748,-3.507505432128906,13.034033837890624,115.47328244274809,9.351145038167939,-0.8473282442748091
1749734583.0462313,2025-06-12 20:23:03.046,27.824117647058827,2.1116858642578125,-0.9983820922851562,9.892841259765625,122.32824427480917,29.38167938931298,-2.351145038167939
1749734583.0564775,2025-06-12 20:23:03.056,27.91823529411765,-3.737348791503906,2.5953145996093747,3.5889082885742187,109.73282442748092,26.045801526717558,-2.595419847328244
1749734583.0664313,2025-06-12 20:23:03.066,27.87117647058824,2.9281086303710935,-2.896984008789062,13.486537951660155,112.8854961832061,-18.946564885496183,-3.068702290076336
1749734583.0763874,2025-06-12 20:23:03.076,27.87117647058824,0.3758896606445312,4.3454760131835934,9.387664709472656,126.3969465648855,0.916030534351145,0.22137404580152673
1749734583.0864496,2025-06-12 20:23:03.086,27.824117647058827,-2.8562825805664063,3.440467785644531,5.595249279785156,119.96946564885496,15.442748091603054,-3.5801526717557253
1749734583.0962727,2025-06-12 20:23:03.096,27.91823529411765,2.408566870117187,3.3207577026367185,8.657433203124999,104.61068702290076,17.450381679389313,1.0381679389312977
1749734583.106304,2025-06-12 20:23:03.106,27.73,-4.2305543334960936,-2.597708801269531,16.551116076660154,114.07633587786259,6.511450381679389,0.5648854961832062
1749734583.1160817,2025-06-12 20:23:03.116,27.87117647058824,4.771643908691406,-1.446097802734375,16.761805822753907,123.7557251908397,21.282442748091604,-0.19083969465648856
1749734583.125839,2025-06-12 20:23:03.125,27.91823529411765,0.51714755859375,4.544194750976562,9.5384994140625,111.16793893129771,15.50381679389313,0.5419847328244275
1749734583.1372917,2025-06-12 20:23:03.137,27.87117647058824,-1.7549498168945312,1.3144167114257812,3.229778039550781,113.33587786259542,-4.122137404580153,-3.114503816793893
1749734583.1473565,2025-06-12 20:23:03.147,27.91823529411765,-3.5984850952148437,-1.419761584472656,6.004657763671875,110.3969465648855,-28.793893129770993,1.5114503816793894
1749734583.157287,2025-06-12 20:23:03.157,27.777058823529412,-1.20667763671875,-3.2225954345703123,14.949395166015623,123.77099236641222,5.32824427480916,4.786259541984733
1749734583.1670804,2025-06-12 20:23:03.167,27.824117647058827,3.603273498535156,1.5562310791015623,4.414907861328125,119.2824427480916,5.3893129770992365,5.572519083969466
1749734583.1767461,2025-06-12 20:23:03.176,27.87117647058824,-0.7110778930664062,1.4006079711914061,2.9951462768554684,110.3587786259542,7.33587786259542,-0.3435114503816794
1749734583.1864636,2025-06-12 20:23:03.186,27.91823529411765,0.4740519287109375,1.0390835205078124,9.05965908203125,106.1526717557252,-25.290076335877863,-0.15267175572519084
1749734583.1962135,2025-06-12 20:23:03.196,27.965294117647062,0.507570751953125,-4.469974499511719,11.089942089843749,116.90839694656489,-12.931297709923664,5.1679389312977095
1749734583.2061455,2025-06-12 20:23:03.206,27.87117647058824,-1.1731588134765625,-0.5243301635742187,4.752490295410156,127.77099236641222,-35.961832061068705,0.8778625954198473
1749734583.2159784,2025-06-12 20:23:03.215,27.965294117647062,-14.068328955078124,2.923320227050781,0.105344873046875,107.53435114503817,29.65648854961832,-4.312977099236641
1749734583.2262466,2025-06-12 20:23:03.226,27.965294117647062,1.0630255371093749,-1.1109095703125,15.301342810058593,116.54961832061069,21.83206106870229,0.9389312977099237
1749734583.2360504,2025-06-12 20:23:03.236,27.87117647058824,-0.2753331909179687,-1.917755529785156,10.939107385253905,119.22137404580153,-35.51908396946565,7.282442748091603
1749734583.2459192,2025-06-12 20:23:03.245,27.777058823529412,-3.2154128295898436,-0.5051765502929687,9.414000927734374,112.83206106870229,-12.778625954198473,1.6030534351145038
1749734583.258199,2025-06-12 20:23:03.258,27.965294117647062,-5.7700260009765625,4.833893151855468,3.1651345947265623,96.3206106870229,-11.893129770992367,-5.526717557251908
1749734583.2682147,2025-06-12 20:23:03.268,27.965294117647062,-4.592078784179687,-2.9855694702148434,13.41950030517578,116.29007633587786,-7.419847328244275,2.0916030534351147
1749734583.277924,2025-06-12 20:23:03.277,27.87117647058824,6.057330200195312,-5.135562561035156,13.620613244628906,123.22137404580153,21.442748091603054,4.519083969465649
1749734583.2876916,2025-06-12 20:23:03.287,27.965294117647062,1.7717092285156248,6.983886242675781,3.294421484375,114.7557251908397,-22.81679389312977,0.9541984732824428
1749734583.2973433,2025-06-12 20:23:03.297,27.91823529411765,-12.030863342285155,-0.49799394531249996,2.85388837890625,113.94656488549619,29.931297709923665,-5.435114503816794
1749734583.306938,2025-06-12 20:23:03.306,27.824117647058827,3.327940307617187,-6.284779357910156,16.69476817626953,123.50381679389314,38.58015267175573,-1.3740458015267176
1749734583.3168097,2025-06-12 20:23:03.316,27.87117647058824,0.12449848632812499,4.173093493652344,15.114595080566405,126.61068702290076,-1.0534351145038168,-8.572519083969466
1749734583.3264284,2025-06-12 20:23:03.326,27.87117647058824,0.6392518432617187,3.450044592285156,3.4332851806640625,114.52671755725191,37.534351145038165,-5.229007633587786
1749734583.3361833,2025-06-12 20:23:03.336,27.87117647058824,6.3709706176757805,2.2840683837890623,8.202534887695313,114.46564885496183,16.229007633587788,-1.1755725190839694
1749734583.3458424,2025-06-12 20:23:03.345,27.824117647058827,-1.35990654296875,-5.84185205078125,9.828197814941406,109.6793893129771,-19.213740458015266,-0.7862595419847328
1749734583.3556352,2025-06-12 20:23:03.355,27.91823529411765,-1.4820108276367188,-4.237736938476562,6.1459156616210935,125.07633587786259,-4.847328244274809,-3.7480916030534353
1749734583.3671668,2025-06-12 20:23:03.367,27.87117647058824,-0.14125789794921875,4.953603234863281,3.1076737548828124,109.94656488549619,24.65648854961832,-7.229007633587786
1749734583.376948,2025-06-12 20:23:03.376,27.91823529411765,5.157110375976562,6.335057592773437,5.164292980957031,122.79389312977099,12.13740458015267,-9.80916030534351
1749734583.3865829,2025-06-12 20:23:03.386,27.87117647058824,8.353369592285155,-1.4101847778320311,18.38687019958496,120.09160305343511,33.88549618320611,0.8931297709923665
1749734583.3964844,2025-06-12 20:23:03.396,27.87117647058824,13.936647863769531,-3.1675287963867187,14.173673828124999,118.16030534351145,4.900763358778626,-2.236641221374046
1749734583.4061508,2025-06-12 20:23:03.406,27.87117647058824,-6.385335827636719,0.7230489013671875,4.723759875488281,109.93129770992367,-54.954198473282446,-5.3893129770992365
1749734583.4160345,2025-06-12 20:23:03.416,27.87117647058824,-0.16759411621093748,2.1595698974609374,8.66940421142578,108.4885496183206,6.3893129770992365,-5.885496183206107
1749734583.4259248,2025-06-12 20:23:03.425,28.012352941176474,1.465251416015625,-5.686228942871093,14.745888024902342,115.2442748091603,3.0610687022900764,0.7480916030534351
1749734583.4356892,2025-06-12 20:23:03.435,27.965294117647062,9.804255798339844,-1.5969325073242187,9.026140258789061,129.4732824427481,3.6412213740458017,1.5038167938931297
1749734583.4459136,2025-06-12 20:23:03.445,27.824117647058827,-4.527435339355469,2.655169641113281,4.80755693359375,103.81679389312977,13.076335877862595,9.48091603053435
1749734583.4557087,2025-06-12 20:23:03.455,27.91823529411765,-0.5195417602539062,-4.826710546875,4.76924970703125,113.53435114503817,-43.404580152671755,-0.6335877862595419
1749734583.465443,2025-06-12 20:23:03.465,27.87117647058824,1.8507178833007811,0.70868369140625,13.63019005126953,136.57251908396947,11.587786259541986,5.7251908396946565
1749734583.4772048,2025-06-12 20:23:03.477,27.91823529411765,0.4333505004882812,6.919242797851562,0.2537853759765625,129.93893129770993,-33.74809160305343,-4.312977099236641
1749734583.4875371,2025-06-12 20:23:03.487,27.824117647058827,-9.80665,0.7015010864257812,7.113173132324218,117.56488549618321,46.38167938931298,-6.770992366412214
1749734583.4972806,2025-06-12 20:23:03.497,27.87117647058824,5.190629199218749,1.848323681640625,14.140155004882812,100.1145038167939,-19.580152671755727,-9.404580152671755
1749734583.5069149,2025-06-12 20:23:03.506,27.965294117647062,4.69263525390625,-0.06943184814453125,11.647791076660155,132.6412213740458,-36.64885496183206,3.2519083969465647
1749734583.5168893,2025-06-12 20:23:03.516,27.91823529411765,-6.89530078125,2.925714428710937,5.255272644042968,115.31297709923665,-32.099236641221374,6.229007633587786
1749734583.5269294,2025-06-12 20:23:03.526,27.87117647058824,-6.667851623535156,3.9815573608398434,0.36391865234375,109.77099236641222,16.641221374045802,2.900763358778626
1749734583.536768,2025-06-12 20:23:03.536,27.91823529411765,-0.8499415893554687,-1.9847931762695312,17.472883715820313,113.98473282442748,-11.244274809160306,-5.473282442748092
1749734583.546991,2025-06-12 20:23:03.546,27.91823529411765,6.6702458251953125,4.283226770019531,16.979678173828123,130.93893129770993,40.44274809160305,-6.412213740458015
1749734583.5569165,2025-06-12 20:23:03.556,27.91823529411765,3.4524387939453125,5.475539196777343,9.627084875488281,114.73282442748092,32.57251908396947,9.67175572519084
1749734583.566588,2025-06-12 20:23:03.566,27.87117647058824,-1.0223241088867188,1.0773907470703123,1.5035586425781249,110.76335877862596,-17.47328244274809,-1.1755725190839694
1749734583.5764,2025-06-12 20:23:03.576,27.777058823529412,-3.0550013183593747,0.584185205078125,8.743624462890624,103.06106870229007,-30.580152671755727,-6.748091603053435
1749734583.5885382,2025-06-12 20:23:03.588,27.965294117647062,4.671087438964843,0.47165772705078124,13.469778540039062,136.40458015267177,9.083969465648854,2.5419847328244276
1749734583.5990539,2025-06-12 20:23:03.599,27.87117647058824,-6.830657336425781,4.666299035644531,1.5634136840820312,106.14503816793894,-29.83206106870229,-2.763358778625954
1749734583.608619,2025-06-12 20:23:03.608,27.965294117647062,1.455674609375,1.2306196533203124,6.426037255859375,110.1145038167939,31.82442748091603,-10.022900763358779
1749734583.6185465,2025-06-12 20:23:03.618,27.965294117647062,7.45075556640625,-3.277662072753906,17.470489514160157,137.4885496183206,15.244274809160306,-2.519083969465649
1749734583.628476,2025-06-12 20:23:03.628,27.91823529411765,1.8626888916015625,2.5426421630859375,8.350975390624999,125.01526717557252,7.786259541984733,-10.778625954198473
1749734583.6382656,2025-06-12 20:23:03.638,27.965294117647062,-3.3303345092773435,0.3711012573242187,5.760449194335937,98.02290076335878,22.603053435114504,-15.17557251908397
1749734583.6481884,2025-06-12 20:23:03.648,28.059411764705885,7.134720947265625,6.301538769531249,12.593500732421875,110.77099236641222,-31.129770992366414,-3.0763358778625953
1749734583.6579554,2025-06-12 20:23:03.657,27.965294117647062,-5.667075329589843,-4.723759875488281,5.571307263183593,116.72519083969466,-34.7557251908397,-7.129770992366412
1749734583.6676764,2025-06-12 20:23:03.667,27.91823529411765,-1.0726023437499999,-0.24181436767578124,13.872004418945311,129.25190839694656,56.80152671755725,5.282442748091603
1749734583.6773634,2025-06-12 20:23:03.677,27.91823529411765,7.098807922363281,1.5538368774414062,1.4700398193359374,106.2442748091603,-33.0763358778626,-4.343511450381679
1749734583.6870008,2025-06-12 20:23:03.687,27.87117647058824,-5.473144995117187,0.3758896606445312,4.3263223999023435,110.10687022900764,-21.27480916030534,-1.9618320610687023
1749734583.6965735,2025-06-12 20:23:03.696,27.965294117647062,-2.91134921875,-1.3263877197265623,6.969521032714844,139.65648854961833,-54.38167938931298,-11.725190839694656
1749734583.7084446,2025-06-12 20:23:03.708,27.965294117647062,-6.330269189453125,2.272097375488281,6.804321118164062,121.48091603053435,55.3587786259542,1.8015267175572518
1749734583.7185323,2025-06-12 20:23:03.718,27.87117647058824,2.094926452636719,-0.47644613037109373,5.781997009277344,109.0381679389313,52.82442748091603,3.114503816793893
1749734583.7285428,2025-06-12 20:23:03.728,27.965294117647062,5.76523759765625,2.1930887207031247,19.35712042236328,100.32824427480917,-28.267175572519083,-1.3587786259541985
1749734583.7384508,2025-06-12 20:23:03.738,27.965294117647062,-1.1133037719726562,-1.7812860351562498,7.9846625366210935,116.83969465648855,-36.36641221374046,-4.152671755725191
1749734583.748234,2025-06-12 20:23:03.748,27.87117647058824,-0.5147533569335937,-0.29927520751953124,13.634978454589843,118.94656488549619,52.25190839694657,-0.5877862595419847
1749734583.7579343,2025-06-12 20:23:03.757,27.91823529411765,-0.9241618408203125,1.6998831787109374,1.908178723144531,101.54198473282443,-1.4274809160305344,0.24427480916030533
1749734583.7678285,2025-06-12 20:23:03.767,28.012352941176474,-4.642357019042969,-5.054159704589844,14.168885424804687,105.22137404580153,-32.06106870229008,-7.870229007633588
1749734583.7774994,2025-06-12 20:23:03.777,27.965294117647062,2.1356278808593747,-0.21068974609375,14.671667773437498,123.29007633587786,12.053435114503817,-0.2824427480916031
1749734583.7870328,2025-06-12 20:23:03.787,27.965294117647062,0.7278373046875,5.236119030761718,8.583212951660157,119.06106870229007,1.5725190839694656,-0.45038167938931295
1749734583.796777,2025-06-12 20:23:03.796,27.91823529411765,-9.452308154296874,3.948038537597656,-0.9337386474609375,109.42748091603053,4.969465648854962,-1.9083969465648856
1749734583.8065488,2025-06-12 20:23:03.806,28.012352941176474,-1.3527239379882812,-3.651157531738281,13.532027783203125,113.95419847328245,-21.801526717557252,-1.0916030534351144
1749734583.8176324,2025-06-12 20:23:03.817,27.91823529411765,5.190629199218749,-0.5913678100585937,8.030152368164062,127.00763358778626,-7.580152671755725,-7.488549618320611
1749734583.8277586,2025-06-12 20:23:03.827,27.965294117647062,-6.349422802734375,0.6440402465820312,1.0869675537109373,101.74809160305344,-21.801526717557252,0.40458015267175573
1749734583.8375256,2025-06-12 20:23:03.837,27.965294117647062,1.235408056640625,1.1827356201171875,4.510675927734375,108.68702290076335,-12.648854961832061,0.6870229007633588
1749734583.847283,2025-06-12 20:23:03.847,28.012352941176474,-5.164292980957031,-1.2521674682617188,11.762712756347655,114.70992366412214,-39.045801526717554,0.13740458015267176
1749734583.8572354,2025-06-12 20:23:03.857,27.965294117647062,1.8411410766601561,-2.81558115234375,9.83777462158203,117.41221374045801,-6.900763358778626,-10.709923664122137
1749734583.8673673,2025-06-12 20:23:03.867,27.91823529411765,-2.882618798828125,10.369287390136718,6.943184814453125,113.73282442748092,77.40458015267176,-2.282442748091603
1749734583.8771572,2025-06-12 20:23:03.877,27.965294117647062,11.927912670898436,2.789244934082031,12.23915888671875,116.65648854961832,5.297709923664122,-5.290076335877862
1749734583.8868153,2025-06-12 20:23:03.886,28.012352941176474,-1.0438719238281249,1.2641384765625,10.721235034179687,103.16793893129771,-34.37404580152672,-7.305343511450381
1749734583.8966854,2025-06-12 20:23:03.896,27.965294117647062,-2.9496564453125,-0.97683427734375,7.955932116699218,121.87786259541984,-25.748091603053435,-3.8625954198473282
1749734583.906288,2025-06-12 20:23:03.906,27.965294117647062,-4.177881896972656,2.578555187988281,8.511386901855468,115.74045801526718,41.091603053435115,2.3587786259541983
1749734583.9159563,2025-06-12 20:23:03.915,28.012352941176474,2.729389892578125,-0.5602431884765625,9.085995300292968,107.3206106870229,10.297709923664122,-0.5114503816793893
1749734583.927326,2025-06-12 20:23:03.927,27.965294117647062,-1.0175357055664063,-0.469263525390625,7.881711865234375,113.12977099236642,-40.48854961832061,1.1221374045801527
1749734583.9375198,2025-06-12 20:23:03.937,28.012352941176474,-1.8195932617187498,-0.6751648681640625,9.3852705078125,122.90839694656489,13.526717557251908,-1.7099236641221374
1749734583.9470909,2025-06-12 20:23:03.947,27.965294117647062,3.651157531738281,2.9664158569335934,9.26316622314453,118.13740458015268,25.236641221374047,-0.6335877862595419
1749734583.9567966,2025-06-12 20:23:03.956,28.012352941176474,3.6200329101562496,4.690241052246093,6.030993981933594,109.6030534351145,-7.541984732824427,-0.17557251908396945
1749734583.9665306,2025-06-12 20:23:03.966,27.965294117647062,-2.04943662109375,-1.0390835205078124,8.98304462890625,110.89312977099236,-6.854961832061068,-13.053435114503817
1749734583.9762084,2025-06-12 20:23:03.976,27.91823529411765,5.870582470703124,0.48123453369140623,13.314155432128905,127.16793893129771,26.954198473282442,1.0763358778625953
1749734583.9857829,2025-06-12 20:23:03.985,27.87117647058824,1.43652099609375,-0.3806780639648437,6.605602380371093,117.29007633587786,-6.519083969465649,0.16030534351145037
1749734583.9954736,2025-06-12 20:23:03.995,28.012352941176474,-0.11731588134765625,4.015076184082031,5.303156677246093,114.73282442748092,27.114503816793892,-7.1679389312977095
1749734584.0051317,2025-06-12 20:23:04.005,27.91823529411765,-0.7829039428710937,-3.342305517578125,5.410895751953125,124.52671755725191,4.549618320610687,-4.175572519083969
1749734584.0148737,2025-06-12 20:23:04.014,27.965294117647062,14.18564483642578,4.264073156738281,14.19282744140625,134.84732824427482,-15.694656488549619,-10.870229007633588
1749734584.0246928,2025-06-12 20:23:04.024,28.012352941176474,7.407659936523437,3.181894006347656,10.386046801757812,109.97709923664122,29.633587786259543,-1.2442748091603053
1749734584.034464,2025-06-12 20:23:04.034,27.965294117647062,5.6766521362304685,3.497928625488281,2.389413256835937,109.78625954198473,10.198473282442748,-7.870229007633588
1749734584.0459456,2025-06-12 20:23:04.045,27.91823529411765,4.819527941894531,0.2705447875976562,6.653486413574218,107.77099236641222,-34.38167938931298,-4.1603053435114505
1749734584.055991,2025-06-12 20:23:04.055,27.91823529411765,-2.5378537597656248,-5.894524487304687,5.178658190917968,121.66412213740458,-21.236641221374047,2.4122137404580153
1749734584.0656433,2025-06-12 20:23:04.065,28.012352941176474,-9.26316622314453,-3.383006945800781,4.637568615722656,127.17557251908397,-2.1526717557251906,-7.297709923664122
1749734584.0753434,2025-06-12 20:23:04.075,27.965294117647062,1.3670891479492187,5.930437512207031,5.008669873046875,111.09160305343511,64.3206106870229,-2.1755725190839694
1749734584.085154,2025-06-12 20:23:04.085,27.965294117647062,7.151480358886718,0.948103857421875,11.202469567871093,110.14503816793894,-25.908396946564885,1.916030534351145
1749734584.0947168,2025-06-12 20:23:04.094,28.012352941176474,-4.350264416503906,-4.204218115234375,3.785232824707031,125.61832061068702,-74.29007633587786,-0.8854961832061069
1749734584.1043887,2025-06-12 20:23:04.104,27.91823529411765,0.1580173095703125,4.455609289550781,11.056423266601563,128.31297709923663,29.69465648854962,-0.05343511450381679
1749734584.1139379,2025-06-12 20:23:04.113,28.012352941176474,3.995922570800781,-2.109291662597656,3.88818349609375,100.57251908396947,-6.1679389312977095,-3.236641221374046
1749734584.1237328,2025-06-12 20:23:04.123,27.965294117647062,-0.6368576416015624,-2.7629087158203123,10.311826550292968,116.3969465648855,-13.030534351145038,-2.50381679389313
1749734584.1337652,2025-06-12 20:23:04.133,28.106470588235297,-8.061276989746093,-3.3494881225585935,6.399701037597656,114.10687022900764,-14.572519083969466,2.9236641221374047
1749734584.1436367,2025-06-12 20:23:04.143,27.91823529411765,1.1348515869140625,3.5769372802734374,6.847416748046874,122.65648854961832,30.061068702290076,-2.5419847328244276
1749734584.1550095,2025-06-12 20:23:04.155,28.012352941176474,1.9991583862304687,1.9800047729492187,5.178658190917968,108.58015267175573,-17.16793893129771,-4.343511450381679
1749734584.1651912,2025-06-12 20:23:04.165,27.965294117647062,-2.5450363647460934,-1.889025109863281,8.731653454589843,117.44274809160305,-22.81679389312977,5.374045801526718
1749734584.1749873,2025-06-12 20:23:04.174,28.012352941176474,-6.083666418457031,-0.6296750366210937,5.360617517089843,124.99236641221374,-46.33587786259542,-0.3435114503816794
1749734584.1847546,2025-06-12 20:23:04.184,27.965294117647062,-4.395754248046875,6.768408093261718,-2.760514514160156,111.35114503816794,-1.5572519083969465,-1.0381679389312977
1749734584.194873,2025-06-12 20:23:04.194,27.965294117647062,-0.82360537109375,-0.4860229370117187,7.359775903320312,113.97709923664122,28.80916030534351,-2.618320610687023
1749734584.2046068,2025-06-12 20:23:04.204,27.965294117647062,0.6368576416015624,-2.722207287597656,5.303156677246093,112.3206106870229,-47.94656488549618,-5.572519083969466
1749734584.2146869,2025-06-12 20:23:04.214,27.965294117647062,-2.9185318237304685,-0.814028564453125,8.726865051269531,126.83206106870229,14.870229007633588,-0.9465648854961832
1749734584.2248793,2025-06-12 20:23:04.224,27.965294117647062,-2.825157958984375,4.199429711914062,3.641580725097656,114.1526717557252,-4.67175572519084,1.4351145038167938
1749734584.2345302,2025-06-12 20:23:04.234,27.965294117647062,3.9815573608398434,4.778826513671874,10.424354028320312,116.77099236641222,46.51145038167939,5.061068702290076
1749734584.244266,2025-06-12 20:23:04.244,27.965294117647062,0.33518823242187495,-2.346317626953125,10.218452685546874,112.64885496183206,-14.885496183206106,-2.0381679389312977
1749734584.254143,2025-06-12 20:23:04.254,27.965294117647062,2.0063409912109376,1.0678139404296874,9.773131176757811,117.87786259541984,-15.770992366412214,-4.4961832061068705
1749734584.2652671,2025-06-12 20:23:04.265,28.059411764705885,-2.3439234252929686,1.5179238525390624,6.64630380859375,119.12213740458016,14.748091603053435,-3.900763358778626
1749734584.2751448,2025-06-12 20:23:04.275,27.965294117647062,-0.40222587890625,2.214636535644531,3.7301661865234372,115.29770992366412,11.030534351145038,-0.4198473282442748
1749734584.2849617,2025-06-12 20:23:04.284,28.012352941176474,2.1356278808593747,-1.9823989746093749,9.976638317871092,107.70229007633588,-19.27480916030534,-8.946564885496183
1749734584.294516,2025-06-12 20:23:04.294,28.012352941176474,5.422866760253906,3.385401147460937,8.75320126953125,130.06870229007635,-54.6793893129771,-1.0305343511450382
1749734584.3041818,2025-06-12 20:23:04.304,27.965294117647062,-4.829104748535156,-1.0558429321289062,5.549759448242187,122.93893129770993,42.37404580152672,5.519083969465649
1749734584.3137574,2025-06-12 20:23:04.313,27.965294117647062,-1.4508862060546874,2.3151930053710936,3.447650390625,102.66412213740458,3.7022900763358777,-0.22137404580152673
1749734584.3234372,2025-06-12 20:23:04.323,27.965294117647062,-2.868253588867187,0.5602431884765625,12.914323754882812,104.61832061068702,-17.198473282442748,-0.8931297709923665
1749734584.3334074,2025-06-12 20:23:04.333,28.012352941176474,-0.44532150878906246,-5.051765502929687,9.30147344970703,130.1908396946565,-0.5343511450381679,2.198473282442748
1749734584.34306,2025-06-12 20:23:04.343,28.012352941176474,1.177947216796875,1.4149731811523436,3.1842882080078123,117.6030534351145,-12.122137404580153,-0.44274809160305345
1749734584.3532572,2025-06-12 20:23:04.353,28.059411764705885,-7.467514978027343,3.277662072753906,8.269572534179687,105.99236641221374,13.083969465648854,-4.740458015267175
1749734584.3631048,2025-06-12 20:23:04.363,28.059411764705885,-0.44053310546874996,-3.0238766967773434,9.6917283203125,109.41221374045801,28.366412213740457,-14.366412213740459
1749734584.3726976,2025-06-12 20:23:04.372,28.012352941176474,7.501033801269531,0.2442085693359375,14.554351892089842,127.01526717557252,26.366412213740457,2.9389312977099236
1749734584.384048,2025-06-12 20:23:04.384,28.012352941176474,0.9792284790039062,3.0933085449218747,6.1626750732421876,121.25190839694656,0.5801526717557252,3.3206106870229006
1749734584.3940206,2025-06-12 20:23:04.394,28.012352941176474,-4.065354418945312,2.291250988769531,3.057395520019531,103.61068702290076,5.641221374045801,-2.3587786259541983
1749734584.4037273,2025-06-12 20:23:04.403,27.965294117647062,1.4867992309570313,1.3120225097656248,11.901576452636718,112.72519083969466,-22.96946564885496,-4.221374045801527
1749734584.4134736,2025-06-12 20:23:04.413,28.059411764705885,3.806780639648437,-2.7629087158203123,12.526463085937499,122.09923664122137,-13.580152671755725,-6.114503816793893
1749734584.4231343,2025-06-12 20:23:04.423,28.012352941176474,-1.6927005737304686,4.838681555175781,9.801861596679688,122.41221374045801,27.69465648854962,2.2442748091603053
1749734584.4329367,2025-06-12 20:23:04.432,28.012352941176474,0.48123453369140623,1.9656395629882812,2.3367408203125,109.45801526717557,4.114503816793893,-2.786259541984733
1749734584.4425325,2025-06-12 20:23:04.442,28.012352941176474,1.7022773803710936,-4.120421057128906,11.269507214355468,112.17557251908397,1.465648854961832,-2.984732824427481
1749734584.452182,2025-06-12 20:23:04.452,28.012352941176474,2.0063409912109376,-0.18435352783203124,11.693280908203125,123.65648854961832,-29.954198473282442,4.603053435114504
1749734584.4617407,2025-06-12 20:23:04.461,27.965294117647062,-0.603338818359375,0.14604630126953125,5.872976672363281,118.85496183206106,9.977099236641221,-3.480916030534351
1749734584.4714513,2025-06-12 20:23:04.471,27.965294117647062,-4.790797521972656,-1.0390835205078124,8.343792785644531,107.45801526717557,23.84732824427481,-0.7633587786259542
1749734584.481735,2025-06-12 20:23:04.481,27.965294117647062,1.659181750488281,-1.180341418457031,19.038691601562498,107.21374045801527,-21.69465648854962,-3.3893129770992365
1749734584.492503,2025-06-12 20:23:04.492,28.012352941176474,0.6081272216796875,4.402936853027343,10.292672937011718,132.3206106870229,-45.25954198473283,2.984732824427481
1749734584.502203,2025-06-12 20:23:04.502,28.059411764705885,-2.7748797241210936,2.04943662109375,13.364433666992186,115.29770992366412,51.20610687022901,-2.816793893129771
1749734584.5118506,2025-06-12 20:23:04.511,28.106470588235297,-1.5777788940429687,2.741360900878906,9.68454571533203,104.27480916030534,47.42748091603053,-2.1603053435114505
1749734584.5214972,2025-06-12 20:23:04.521,28.059411764705885,1.4939818359375,-4.096479040527344,10.857704528808593,110.62595419847328,-12.587786259541986,-10.404580152671755
1749734584.531143,2025-06-12 20:23:04.531,28.012352941176474,1.0390835205078124,-1.7381904052734374,7.750030773925781,121.5114503816794,33.83969465648855,-0.9694656488549618
1749734584.541175,2025-06-12 20:23:04.541,28.059411764705885,2.27927998046875,4.6255976074218745,8.123526232910155,124.0,0.29770992366412213,5.442748091603053
1749734584.550986,2025-06-12 20:23:04.550,27.91823529411765,-2.7269956909179687,0.28490999755859375,-0.18914193115234373,105.77862595419847,13.610687022900763,-5.0
1749734584.5607338,2025-06-12 20:23:04.560,27.965294117647062,-1.209071838378906,-3.0334535034179684,13.180080139160156,107.44274809160305,-16.6793893129771,-2.648854961832061
1749734584.5705523,2025-06-12 20:23:04.570,28.059411764705885,-0.4525041137695312,-0.7422025146484375,12.279860314941406,125.93893129770993,5.0534351145038165,1.8702290076335877
1749734584.5802143,2025-06-12 20:23:04.580,28.059411764705885,1.2425906616210938,5.4013189453125,6.79953271484375,119.57251908396947,0.5343511450381679,6.442748091603053
1749734584.5897634,2025-06-12 20:23:04.589,28.012352941176474,-4.977545251464844,2.032677209472656,5.087678527832031,102.61832061068702,6.977099236641221,0.183206106870229
1749734584.5993176,2025-06-12 20:23:04.599,27.965294117647062,-6.9719152343749995,-2.2002713256835937,8.128314636230469,113.65648854961832,-10.961832061068701,-5.938931297709924
1749734584.6094012,2025-06-12 20:23:04.609,28.059411764705885,5.032611889648437,0.63206923828125,11.628637463378906,117.26717557251908,27.923664122137403,-3.8396946564885495
1749734584.6193187,2025-06-12 20:23:04.619,28.012352941176474,5.324704492187499,1.1540052001953125,11.281478222656249,123.61068702290076,-10.045801526717558,7.793893129770993
1749734584.6289482,2025-06-12 20:23:04.628,28.012352941176474,-11.054029064941405,1.484405029296875,-2.9496564453125,102.01526717557252,3.6946564885496183,-0.015267175572519083
1749734584.6385758,2025-06-12 20:23:04.638,28.106470588235297,-1.848323681640625,-1.956062756347656,11.410765112304686,107.80916030534351,-18.81679389312977,-2.7786259541984735
1749734584.6482017,2025-06-12 20:23:04.648,28.106470588235297,3.488351818847656,-1.0486603271484374,14.633360546874998,127.19083969465649,-2.1526717557251906,1.3358778625954197
1749734584.6578224,2025-06-12 20:23:04.657,28.059411764705885,3.797203833007812,3.73495458984375,9.811438403320311,113.48091603053435,-10.198473282442748,-1.0305343511450382
1749734584.6674404,2025-06-12 20:23:04.667,27.965294117647062,-9.524134204101562,0.22744915771484372,3.383006945800781,100.72519083969466,34.16793893129771,-0.09923664122137404
1749734584.6770558,2025-06-12 20:23:04.677,27.91823529411765,1.6041151123046875,-1.8100164550781248,11.571176623535155,119.57251908396947,-6.106870229007634,-3.732824427480916
1749734584.6866643,2025-06-12 20:23:04.686,28.106470588235297,-1.1635820068359375,-0.1771709228515625,5.073313317871094,119.5114503816794,11.450381679389313,-3.236641221374046
1749734584.6962721,2025-06-12 20:23:04.696,28.059411764705885,0.316034619140625,2.195482922363281,8.743624462890624,118.07633587786259,3.114503816793893,-0.37404580152671757
1749734584.7058792,2025-06-12 20:23:04.705,28.059411764705885,1.0893617553710937,0.040701428222656245,5.410895751953125,109.6030534351145,5.9541984732824424,0.6259541984732825
1749734584.7154956,2025-06-12 20:23:04.715,28.059411764705885,-4.742913488769531,-1.6711527587890624,6.517016918945312,114.97709923664122,-21.72519083969466,-0.7938931297709924
1749734584.7251031,2025-06-12 20:23:04.725,28.012352941176474,-0.39264907226562495,-0.1580173095703125,8.597578161621094,122.73282442748092,-4.137404580152672,-7.427480916030534
1749734584.7347114,2025-06-12 20:23:04.734,28.059411764705885,1.5275006591796874,2.3870190551757813,13.685256689453125,118.63358778625954,32.229007633587784,-1.4427480916030535
1749734584.7443197,2025-06-12 20:23:04.744,27.965294117647062,0.9409212524414062,1.3814543579101561,10.070012182617187,115.54961832061069,27.946564885496183,-1.8549618320610688
1749734584.7539284,2025-06-12 20:23:04.753,27.965294117647062,4.096479040527344,2.6910826660156246,9.236830004882812,111.07633587786259,-23.572519083969464,-3.984732824427481
1749734584.7635396,2025-06-12 20:23:04.763,28.012352941176474,-0.258573779296875,-1.668758557128906,9.452308154296874,112.73282442748092,-22.412213740458014,-1.7099236641221374
1749734584.7731469,2025-06-12 20:23:04.773,28.012352941176474,-5.530605834960937,-4.903325,9.962273107910155,116.54961832061069,24.213740458015266,1.381679389312977
1749734584.782757,2025-06-12 20:23:04.782,28.15352941176471,10.168174450683592,4.060566015625,7.709329345703124,118.18320610687023,-52.00763358778626,-7.3816793893129775
1749734584.7923675,2025-06-12 20:23:04.792,27.965294117647062,-4.3263223999023435,0.7661445312499999,3.9528269409179684,111.80916030534351,-10.50381679389313,-2.1068702290076335
1749734584.8019748,2025-06-12 20:23:04.801,28.059411764705885,3.689464758300781,-5.090072729492187,11.640608471679688,110.62595419847328,-44.83969465648855,-4.221374045801527
1749734584.8115833,2025-06-12 20:23:04.811,28.106470588235297,-6.291961962890625,2.7341782958984373,7.194575988769531,126.99236641221374,-3.8473282442748094,-0.8015267175572519
1749734584.8216727,2025-06-12 20:23:04.821,28.012352941176474,-5.875370874023437,6.789955908203124,3.9408559326171875,116.91603053435115,-4.099236641221374,-9.67175572519084
1749734584.8314617,2025-06-12 20:23:04.831,27.965294117647062,4.235342736816406,0.19153613281249998,8.832209924316405,106.76335877862596,30.65648854961832,-0.46564885496183206
1749734584.8412178,2025-06-12 20:23:04.841,28.012352941176474,3.337517114257812,-2.5665841796874997,16.148890197753904,121.20610687022901,37.045801526717554,3.519083969465649
1749734584.8508618,2025-06-12 20:23:04.850,28.059411764705885,5.367800122070312,-1.7453730102539062,11.015721838378905,120.95419847328245,-22.3206106870229,-5.801526717557252
1749734584.860477,2025-06-12 20:23:04.860,28.059411764705885,-1.8746598999023436,6.169857678222656,6.112396838378906,115.2442748091603,38.42748091603053,-1.5419847328244274
1749734584.8700728,2025-06-12 20:23:04.870,28.106470588235297,-0.44053310546874996,-1.9201497314453124,7.256825231933593,109.49618320610686,2.114503816793893,5.2748091603053435
1749734584.8799446,2025-06-12 20:23:04.879,27.965294117647062,0.9600748657226562,-4.3622354248046875,17.286135986328123,116.19847328244275,8.038167938931299,7.99236641221374
1749734584.8894925,2025-06-12 20:23:04.889,28.106470588235297,0.11731588134765625,-1.5586252807617187,11.681309899902343,118.58778625954199,14.007633587786259,-0.9083969465648855
1749734584.8991342,2025-06-12 20:23:04.899,28.059411764705885,2.0973206542968748,4.517858532714843,12.799402075195312,109.07633587786259,56.43511450381679,-7.015267175572519
1749734584.909051,2025-06-12 20:23:04.909,28.012352941176474,11.336544860839844,2.0829554443359375,10.690110412597656,109.95419847328245,-1.1068702290076335,1.7786259541984732
1749734584.9186954,2025-06-12 20:23:04.918,28.012352941176474,-5.738901379394531,-6.3709706176757805,6.983886242675781,119.55725190839695,-18.916030534351144,-0.7557251908396947
1749734584.9283245,2025-06-12 20:23:04.928,28.059411764705885,-2.1691467041015624,1.6472107421875,11.099518896484375,120.03053435114504,-22.770992366412212,-0.5801526717557252
1749734584.9394462,2025-06-12 20:23:04.939,28.106470588235297,-6.986280444335937,1.7860744384765623,0.47165772705078124,114.31297709923665,-24.519083969465647,-10.740458015267176
1749734584.9491873,2025-06-12 20:23:04.949,28.012352941176474,-1.4796166259765624,1.2785036865234374,6.026205578613281,115.19083969465649,21.19083969465649,-3.8244274809160306
1749734584.9588363,2025-06-12 20:23:04.958,28.15352941176471,1.3263877197265623,-3.7924154296875,9.476250170898437,126.86259541984732,-28.786259541984734,1.213740458015267
1749734584.9685128,2025-06-12 20:23:04.968,28.15352941176471,-1.3168109130859373,1.4221557861328125,7.876923461914062,126.6412213740458,2.5572519083969465,-6.259541984732825
1749734584.9783533,2025-06-12 20:23:04.978,28.059411764705885,-1.4867992309570313,3.67749375,4.034229797363281,105.6030534351145,0.5877862595419847,-5.145038167938932
1749734584.988034,2025-06-12 20:23:04.988,28.012352941176474,4.340687609863281,-0.9959878906249999,7.682993127441406,114.64885496183206,10.603053435114504,-0.4580152671755725
1749734584.9977388,2025-06-12 20:23:04.997,28.106470588235297,0.9744400756835937,-1.889025109863281,12.071564770507813,114.94656488549619,1.9541984732824427,-1.6946564885496183
1749734585.0073028,2025-06-12 20:23:05.007,28.106470588235297,3.268085266113281,-2.722207287597656,10.927136376953124,126.16793893129771,-0.6259541984732825,-1.450381679389313
1749734585.0169063,2025-06-12 20:23:05.016,28.059411764705885,-5.671863732910156,4.876988781738281,2.6240450195312497,112.02290076335878,-1.1145038167938932,-7.595419847328245
1749734585.026619,2025-06-12 20:23:05.026,28.106470588235297,1.8842367065429686,1.5155296508789062,3.737348791503906,113.41984732824427,-12.572519083969466,2.954198473282443
1749734585.0362272,2025-06-12 20:23:05.036,27.965294117647062,3.0885201416015624,-1.6472107421875,15.926229443359373,117.61068702290076,-58.76335877862596,-3.0763358778625953
1749734585.047079,2025-06-12 20:23:05.047,28.106470588235297,-9.150638745117186,5.025429284667968,0.028730419921875,125.03053435114504,-31.61832061068702,-7.740458015267175
1749734585.0571635,2025-06-12 20:23:05.057,28.012352941176474,0.19871873779296872,4.2137949218749995,8.391676818847655,117.70992366412214,30.69465648854962,-5.206106870229007
1749734585.0668616,2025-06-12 20:23:05.066,28.059411764705885,6.775590698242187,1.0462661254882812,10.43871923828125,106.99236641221374,11.679389312977099,1.3435114503816794
1749734585.0767496,2025-06-12 20:23:05.076,28.106470588235297,1.6160861206054686,-5.118803149414062,12.983755603027342,126.89312977099236,26.244274809160306,2.2290076335877864
1749734585.086399,2025-06-12 20:23:05.086,28.012352941176474,5.492298608398437,-2.461239306640625,11.439495532226562,115.59541984732824,-3.3435114503816794,-7.534351145038168
1749734585.096188,2025-06-12 20:23:05.096,28.059411764705885,2.6312276245117188,3.854664672851562,6.79953271484375,111.49618320610686,9.610687022900763,-2.1526717557251906
1749734585.1057384,2025-06-12 20:23:05.105,28.059411764705885,-3.0358477050781247,-2.0374656127929685,5.276820458984375,109.46564885496183,-26.221374045801525,1.5725190839694656
1749734585.1153593,2025-06-12 20:23:05.115,28.012352941176474,-3.816357446289062,-2.1906945190429687,12.112266198730469,119.77862595419847,15.0,2.3282442748091605
1749734585.125068,2025-06-12 20:23:05.125,28.012352941176474,5.623979699707031,0.15562310791015624,12.121843005371092,113.0381679389313,-7.229007633587786,-7.320610687022901
1749734585.1347222,2025-06-12 20:23:05.134,28.106470588235297,2.9664158569335934,2.1116858642578125,8.583212951660157,109.50381679389314,38.29770992366412,-7.33587786259542
1749734585.144401,2025-06-12 20:23:05.144,28.15352941176471,5.145139367675781,4.620809204101562,9.658209497070311,116.29007633587786,-22.671755725190838,1.8702290076335877
1749734585.1550589,2025-06-12 20:23:05.155,28.059411764705885,-1.3000515014648437,-2.1619640991210938,8.78432589111328,112.98473282442748,-33.282442748091604,-3.4885496183206106
1749734585.1650538,2025-06-12 20:23:05.165,28.059411764705885,-5.810727429199218,-2.27927998046875,8.796296899414061,127.67175572519083,18.099236641221374,-3.0381679389312977
1749734585.1746993,2025-06-12 20:23:05.174,28.106470588235297,5.293579870605469,2.281674182128906,4.7189714721679685,113.05343511450381,-18.33587786259542,-8.664122137404581
1749734585.1845593,2025-06-12 20:23:05.184,28.059411764705885,3.5194764404296874,5.504269616699219,5.829881042480468,114.3969465648855,-12.778625954198473,-6.748091603053435
1749734585.1942036,2025-06-12 20:23:05.194,28.059411764705885,-4.3263223999023435,-5.255272644042968,15.87116280517578,125.56488549618321,46.19083969465649,5.091603053435114
1749734585.2043445,2025-06-12 20:23:05.204,28.059411764705885,5.398924743652343,-2.454056701660156,10.091559997558592,116.58015267175573,8.511450381679388,3.7022900763358777
1749734585.2140424,2025-06-12 20:23:05.214,28.059411764705885,-0.7685387329101562,2.7653029174804686,2.741360900878906,112.30534351145039,-26.396946564885496,-4.809160305343512
1749734585.2236912,2025-06-12 20:23:05.223,28.059411764705885,-2.920926025390625,1.3479355346679687,6.133944653320312,106.74809160305344,-2.969465648854962,-4.870229007633588
1749734585.233339,2025-06-12 20:23:05.233,28.059411764705885,-0.55545478515625,-3.6152445068359373,11.923124267578125,111.6793893129771,0.13740458015267176,1.6946564885496183
1749734585.2429147,2025-06-12 20:23:05.242,28.106470588235297,3.782838623046875,-1.6903063720703124,12.435483422851561,129.70229007633588,1.8854961832061068,0.183206106870229
1749734585.2526715,2025-06-12 20:23:05.252,28.059411764705885,-4.99909306640625,3.6152445068359373,5.427655163574219,99.98473282442748,30.83969465648855,0.8320610687022901
1749734585.2624133,2025-06-12 20:23:05.262,28.20058823529412,0.34715924072265625,4.716577270507813,8.73344910583496,112.37404580152672,6.152671755725191,-14.297709923664122
1749734585.2734196,2025-06-12 20:23:05.273,28.106470588235297,2.8323405639648436,0.2705447875976562,9.191340173339842,129.6793893129771,-35.19083969465649,0.183206106870229
1749734585.2829976,2025-06-12 20:23:05.282,28.059411764705885,1.5346832641601562,-2.1619640991210938,8.386888415527343,106.5114503816794,23.702290076335878,-7.572519083969466
1749734585.2927988,2025-06-12 20:23:05.292,28.15352941176471,-4.046200805664062,-3.411737365722656,-4.498704919433593,107.27480916030534,-52.05343511450382,1.2213740458015268
1749734585.3024468,2025-06-12 20:23:05.302,28.15352941176471,-8.066065393066406,-0.09576806640624999,14.209586853027343,109.78625954198473,12.076335877862595,-8.83206106870229
1749734585.3120306,2025-06-12 20:23:05.312,28.012352941176474,4.247313745117188,1.2856862915039062,11.020510241699219,123.50381679389314,-11.633587786259541,5.404580152671755
1749734585.3216717,2025-06-12 20:23:05.321,28.059411764705885,2.940079638671875,0.7015010864257812,7.666233715820312,132.86259541984734,-19.480916030534353,5.038167938931298
1749734585.3312757,2025-06-12 20:23:05.331,28.012352941176474,-5.868188269042968,2.549824768066406,0.7254431030273437,102.91603053435115,-5.038167938931298,-0.7557251908396947
1749734585.3409173,2025-06-12 20:23:05.340,27.91823529411765,-6.58884296875,-1.8818425048828125,8.12113203125,103.87786259541984,-31.396946564885496,-4.206106870229007
1749734585.3505857,2025-06-12 20:23:05.350,28.059411764705885,-0.229843359375,-1.22583125,7.252036828613281,123.17557251908397,-56.19083969465649,1.5572519083969465
1749734585.3602834,2025-06-12 20:23:05.360,28.106470588235297,1.37906015625,-2.291250988769531,10.608707556152343,117.61068702290076,-20.27480916030534,2.3053435114503817
1749734585.3699095,2025-06-12 20:23:05.369,28.059411764705885,-5.092466931152344,3.327940307617187,5.810727429199218,108.06106870229007,4.396946564885496,-2.9160305343511452
1749734585.3803241,2025-06-12 20:23:05.380,28.059411764705885,-1.6998831787109374,1.1324573852539062,10.187328063964843,116.29007633587786,-16.267175572519083,-9.923664122137405
1749734585.3900461,2025-06-12 20:23:05.390,28.059411764705885,-1.5011644409179687,-2.6216508178710938,8.058882788085937,112.3206106870229,-22.244274809160306,-6.427480916030534
1749734585.4003432,2025-06-12 20:23:05.400,28.059411764705885,-3.2225954345703123,-1.4724340209960938,10.089165795898436,127.21374045801527,23.85496183206107,-2.786259541984733
1749734585.4102714,2025-06-12 20:23:05.410,28.15352941176471,4.855440966796874,7.187393383789062,3.2321722412109373,108.46564885496183,-23.641221374045802,-7.67175572519084
1749734585.4199142,2025-06-12 20:23:05.419,28.15352941176471,6.358999609374999,1.93451494140625,16.651672546386717,111.79389312977099,-23.47328244274809,-8.145038167938932
1749734585.4295826,2025-06-12 20:23:05.429,28.106470588235297,-1.0127473022460938,-4.486733911132812,10.474632263183594,128.32824427480915,6.7251908396946565,-0.183206106870229
1749734585.4393332,2025-06-12 20:23:05.439,27.965294117647062,2.4756045166015626,1.2832920898437499,6.624755993652343,117.74045801526718,18.236641221374047,-2.3206106870229006
1749734585.448973,2025-06-12 20:23:05.448,28.15352941176471,-2.1404162841796874,3.6846763549804686,4.695029455566406,107.2824427480916,-2.4580152671755724,-5.0458015267175576
1749734585.458614,2025-06-12 20:23:05.458,28.012352941176474,-0.612915625,-1.429338391113281,7.7979148071289055,106.37404580152672,-50.961832061068705,-3.4580152671755724
1749734585.4682493,2025-06-12 20:23:05.468,28.059411764705885,-4.070142822265625,-3.191470812988281,10.77630167236328,123.74045801526718,27.64885496183206,-1.4809160305343512
1749734585.477882,2025-06-12 20:23:05.477,28.106470588235297,2.710236279296875,4.979939453125,5.729324572753906,134.0229007633588,-6.2748091603053435,1.8244274809160306
1749734585.4884405,2025-06-12 20:23:05.488,28.106470588235297,-0.5578489868164063,0.055066638183593745,5.372588525390625,117.50381679389314,-2.4885496183206106,-5.099236641221374
1749734585.4982882,2025-06-12 20:23:05.498,28.059411764705885,-5.6383449096679685,0.10773907470703124,11.489773767089844,95.3587786259542,-9.48091603053435,-1.717557251908397
1749734585.5078785,2025-06-12 20:23:05.507,28.106470588235297,-2.001552587890625,-4.376600634765625,5.949591125488281,122.58778625954199,-48.717557251908396,2.5572519083969465
1749734585.5175226,2025-06-12 20:23:05.517,28.012352941176474,-7.151480358886718,-1.1923124267578125,0.9074024291992187,129.74809160305344,-23.251908396946565,-2.213740458015267
1749734585.527159,2025-06-12 20:23:05.527,28.15352941176471,-8.832209924316405,0.6607996582031249,3.1364041748046874,112.97709923664122,55.85496183206107,3.595419847328244
1749734585.5369534,2025-06-12 20:23:05.536,28.012352941176474,7.364564306640625,3.4524387939453125,15.547945581054687,108.3969465648855,-15.17557251908397,0.05343511450381679
1749734585.5466783,2025-06-12 20:23:05.546,28.012352941176474,-3.6942531616210936,1.7286135986328124,9.617508068847656,113.76335877862596,-7.893129770992366,0.6030534351145038
1749734585.5562751,2025-06-12 20:23:05.556,28.059411764705885,8.298302954101562,-0.8259995727539062,18.36831513671875,121.79389312977099,16.580152671755727,-3.3969465648854964
1749734585.565933,2025-06-12 20:23:05.565,28.106470588235297,1.6208745239257811,2.5737667846679684,7.419630944824219,102.2824427480916,-1.8854961832061068,-0.7251908396946565
1749734585.575587,2025-06-12 20:23:05.575,28.059411764705885,-2.8850130004882812,-1.9033903198242186,5.240907434082031,116.14503816793894,-24.435114503816795,-6.206106870229007
1749734585.585867,2025-06-12 20:23:05.585,28.106470588235297,-0.09816226806640624,-2.806004345703125,10.685322009277343,131.41221374045801,-10.572519083969466,-4.824427480916031
1749734585.5965478,2025-06-12 20:23:05.596,28.15352941176471,2.6767174560546874,0.5027823486328125,8.597578161621094,114.37404580152672,30.045801526717558,2.4732824427480917
1749734585.6063585,2025-06-12 20:23:05.606,28.012352941176474,3.2225954345703123,1.429338391113281,10.338162768554687,116.6412213740458,19.068702290076335,1.3435114503816794
1749734585.6159437,2025-06-12 20:23:05.615,28.15352941176471,-6.751648681640624,-0.6416460449218749,8.279149340820313,105.41984732824427,-30.625954198473284,-5.282442748091603
1749734585.625523,2025-06-12 20:23:05.625,28.012352941176474,-0.16519991455078123,-6.801926916503906,11.841721411132811,119.82442748091603,23.916030534351144,3.2290076335877864
1749734585.6351757,2025-06-12 20:23:05.635,28.106470588235297,7.721300354003906,1.1061211669921875,11.192892761230468,120.10687022900764,-17.519083969465647,-0.6717557251908397
1749734585.6448839,2025-06-12 20:23:05.644,28.106470588235297,-1.429338391113281,2.5737667846679684,2.2457611572265623,110.3206106870229,-14.969465648854962,-0.6564885496183206
1749734585.6545286,2025-06-12 20:23:05.654,28.059411764705885,-8.535328918457031,-6.5601125488281244,4.661510632324219,109.99236641221374,-19.50381679389313,1.4809160305343512
1749734585.6641653,2025-06-12 20:23:05.664,28.106470588235297,1.5298948608398437,-2.123656872558594,12.334926953124999,122.58015267175573,-42.19847328244275,0.816793893129771
1749734585.6737585,2025-06-12 20:23:05.673,28.012352941176474,-8.300697155761718,0.928950244140625,8.40125362548828,107.48091603053435,19.80916030534351,-2.931297709923664
1749734585.6833906,2025-06-12 20:23:05.683,28.106470588235297,3.2920272827148436,-1.0965443603515623,6.768408093261718,109.55725190839695,37.717557251908396,-1.8396946564885497
1749734585.6930277,2025-06-12 20:23:05.693,27.965294117647062,-0.4381389038085937,1.1731588134765625,2.896984008789062,119.23664122137404,-39.61068702290076,2.5572519083969465
1749734585.7036698,2025-06-12 20:23:05.703,28.106470588235297,-3.4811692138671875,-3.1364041748046874,3.143586779785156,111.22900763358778,-22.206106870229007,-13.541984732824428
1749734585.7139819,2025-06-12 20:23:05.713,28.059411764705885,4.127603662109375,-3.6463691284179687,11.693280908203125,129.55725190839695,43.19847328244275,-0.015267175572519083
1749734585.7238712,2025-06-12 20:23:05.723,28.106470588235297,5.983109948730468,4.168305090332031,5.518634826660156,115.09160305343511,-24.396946564885496,-2.854961832061069
1749734585.7334895,2025-06-12 20:23:05.733,28.012352941176474,-4.874594580078124,-2.3247698120117186,3.6152445068359373,110.80916030534351,-24.82442748091603,-1.0381679389312977
1749734585.743139,2025-06-12 20:23:05.743,28.15352941176471,-1.8219874633789062,-4.924872814941406,10.32379755859375,121.87022900763358,-19.38167938931298,-0.9389312977099237
1749734585.7527976,2025-06-12 20:23:05.752,28.106470588235297,-1.0510545288085937,0.13646949462890623,8.128314636230469,115.52671755725191,3.435114503816794,-1.5954198473282444
1749734585.7624447,2025-06-12 20:23:05.762,28.059411764705885,0.8451531860351562,2.8012159423828122,8.963891015625,117.44274809160305,26.717557251908396,-4.541984732824427
1749734585.7722192,2025-06-12 20:23:05.772,28.059411764705885,4.039018200683594,2.7461493041992187,10.256759912109374,106.08396946564885,-1.0381679389312977,-1.3358778625954197
1749734585.7818644,2025-06-12 20:23:05.781,28.106470588235297,2.6312276245117188,-4.826710546875,11.020510241699219,120.33587786259542,-18.946564885496183,-1.7557251908396947
1749734585.7915053,2025-06-12 20:23:05.791,28.059411764705885,-3.5146880371093747,2.1930887207031247,8.075642199707032,124.54961832061069,-12.877862595419847,-3.015267175572519
1749734585.801336,2025-06-12 20:23:05.801,28.106470588235297,-0.411802685546875,1.9512743530273435,3.114856359863281,116.17557251908397,25.96946564885496,-2.2595419847328246
1749734585.8121881,2025-06-12 20:23:05.812,28.15352941176471,0.9792284790039062,-2.3415292236328122,7.524975817871093,113.01526717557252,1.8931297709923665,0.4732824427480916
1749734585.822052,2025-06-12 20:23:05.822,27.965294117647062,-1.4796166259765624,-2.1308394775390624,14.121001391601562,120.57251908396947,-32.274809160305345,5.083969465648855
1749734585.8316958,2025-06-12 20:23:05.831,28.059411764705885,-0.9145850341796874,0.3016694091796875,6.904877587890625,120.80916030534351,-33.030534351145036,0.8625954198473282
1749734585.841687,2025-06-12 20:23:05.841,28.106470588235297,-5.961562133789062,2.5905261962890624,1.0486603271484374,113.4885496183206,-5.259541984732825,-7.236641221374046
1749734585.8513796,2025-06-12 20:23:05.851,28.106470588235297,0.3280056274414062,0.3854664672851562,12.684480395507812,110.23664122137404,34.51908396946565,0.5038167938931297
1749734585.8610377,2025-06-12 20:23:05.861,28.20058823529412,5.035006091308594,-2.925714428710937,8.59997236328125,116.69465648854961,-42.48091603053435,-3.5267175572519083
1749734585.870691,2025-06-12 20:23:05.870,28.106470588235297,-6.53138212890625,-2.8036101440429686,5.580884069824219,122.23664122137404,18.709923664122137,-0.3969465648854962
1749734585.8803425,2025-06-12 20:23:05.880,28.20058823529412,3.679887951660156,4.580107775878906,4.048595007324218,115.78625954198473,-11.076335877862595,-7.541984732824427
1749734585.889989,2025-06-12 20:23:05.889,28.15352941176471,0.14604630126953125,0.2561795776367187,7.206546997070312,112.63358778625954,9.076335877862595,-3.198473282442748
1749734585.899649,2025-06-12 20:23:05.899,28.20058823529412,2.999934680175781,-2.3151930053710936,11.252747802734374,113.6030534351145,-29.267175572519083,-0.366412213740458
1749734585.9093022,2025-06-12 20:23:05.909,28.106470588235297,-0.6344634399414062,-1.7549498168945312,12.303802331542968,123.0,-12.053435114503817,-4.9541984732824424
1749734585.919466,2025-06-12 20:23:05.919,28.059411764705885,5.664681127929687,7.951143713378905,1.0079588989257813,120.94656488549619,-42.99236641221374,-5.106870229007634
1749734585.9291482,2025-06-12 20:23:05.929,28.059411764705885,-4.7764323120117185,0.3758896606445312,2.89219560546875,115.04580152671755,51.900763358778626,-4.763358778625954
1749734585.9387991,2025-06-12 20:23:05.938,28.20058823529412,7.709329345703124,-1.4437036010742186,14.07790576171875,110.21374045801527,20.908396946564885,-2.6412213740458017
1749734585.9484668,2025-06-12 20:23:05.948,28.15352941176471,1.898601916503906,0.3806780639648437,7.68059892578125,120.87022900763358,-54.717557251908396,-0.816793893129771
1749734585.9581153,2025-06-12 20:23:05.958,28.106470588235297,-7.316680273437499,1.1611878051757811,5.374982727050781,123.57251908396947,48.64885496183206,7.595419847328245
1749734585.9677644,2025-06-12 20:23:05.967,28.106470588235297,0.028730419921875,1.120486376953125,7.091625317382812,102.16030534351145,16.374045801526716,-1.1297709923664123
1749734585.9774146,2025-06-12 20:23:05.977,28.059411764705885,-1.7405846069335937,-2.013523596191406,10.893617553710937,110.0,-0.6870229007633588,-8.038167938931299
1749734585.9870677,2025-06-12 20:23:05.987,28.20058823529412,8.619125976562499,1.1707646118164061,11.781866369628906,126.85496183206106,-30.053435114503817,-6.8396946564885495
1749734585.9967132,2025-06-12 20:23:05.996,28.106470588235297,0.3232172241210937,2.2098481323242187,6.629544396972656,118.96946564885496,22.259541984732824,3.3587786259541983
1749734586.006392,2025-06-12 20:23:06.006,28.15352941176471,-2.2577321655273437,1.9943699829101562,1.7597382202148437,107.23664122137404,-15.900763358778626,-1.5954198473282444
1749734586.0160563,2025-06-12 20:23:06.016,28.059411764705885,-4.319139794921875,-2.4899697265625,12.916717956542968,106.0381679389313,17.137404580152673,-7.427480916030534
1749734586.0257745,2025-06-12 20:23:06.025,28.059411764705885,4.158728283691406,-0.9121908325195311,14.724340209960937,121.6793893129771,8.961832061068701,-1.3893129770992367
1749734586.0364356,2025-06-12 20:23:06.036,28.059411764705885,1.2282254516601563,5.087678527832031,10.062829577636718,110.78625954198473,-0.45038167938931295,2.9923664122137406
1749734586.0461202,2025-06-12 20:23:06.046,28.106470588235297,-2.760514514160156,-1.9512743530273435,6.902483386230468,110.1145038167939,33.099236641221374,0.48091603053435117
1749734586.055787,2025-06-12 20:23:06.055,28.15352941176471,-3.327940307617187,-0.7805097412109374,10.350133776855468,112.34351145038168,-27.83969465648855,-2.33587786259542
1749734586.065433,2025-06-12 20:23:06.065,28.15352941176471,-0.15083470458984374,-2.1691467041015624,11.082759484863281,119.02290076335878,-24.862595419847327,-11.48091603053435
1749734586.0756714,2025-06-12 20:23:06.075,28.059411764705885,4.453215087890625,3.5889082885742187,9.562441430664062,123.74809160305344,20.96946564885496,6.9541984732824424
1749734586.085442,2025-06-12 20:23:06.085,28.15352941176471,-4.141968872070312,-0.4836287353515625,3.0980969482421874,106.31297709923665,-10.51908396946565,-5.122137404580153
1749734586.095171,2025-06-12 20:23:06.095,28.059411764705885,-0.6416460449218749,-0.9792284790039062,11.212046374511718,107.80916030534351,-16.34351145038168,-2.198473282442748
1749734586.1047437,2025-06-12 20:23:06.104,28.20058823529412,-0.9648632690429687,-0.3758896606445312,11.827356201171874,119.14503816793894,5.33587786259542,3.183206106870229
1749734586.1144044,2025-06-12 20:23:06.114,28.106470588235297,6.6510922119140625,0.13168109130859373,13.512874169921874,117.5114503816794,22.14503816793893,0.5419847328244275
1749734586.1239476,2025-06-12 20:23:06.123,28.059411764705885,-3.689464758300781,1.216254443359375,0.26815058593749996,109.00763358778626,4.442748091603053,2.381679389312977
1749734586.1336977,2025-06-12 20:23:06.133,28.106470588235297,-5.97592734375,-3.392583752441406,4.096479040527344,114.31297709923665,-4.129770992366412,-2.267175572519084
1749734586.1432579,2025-06-12 20:23:06.143,28.15352941176471,6.924031201171875,0.4477157104492187,13.606248034667967,128.04580152671755,4.290076335877862,-1.7938931297709924
1749734586.154219,2025-06-12 20:23:06.154,28.20058823529412,-2.370259643554687,-1.0342951171875,10.563217724609375,109.3587786259542,-20.587786259541986,0.40458015267175573
1749734586.1638627,2025-06-12 20:23:06.163,28.15352941176471,-0.016759411621093748,-0.076614453125,7.635109094238281,117.53435114503817,60.93893129770992,0.2366412213740458
1749734586.173569,2025-06-12 20:23:06.173,28.059411764705885,4.905719201660156,0.6392518432617187,11.975796704101562,113.78625954198473,-17.236641221374047,-1.5725190839694656
1749734586.1839397,2025-06-12 20:23:06.183,28.106470588235297,0.4213794921875,-0.0430956298828125,9.550470422363281,108.6793893129771,-4.129770992366412,-10.83969465648855
1749734586.193881,2025-06-12 20:23:06.193,28.15352941176471,-0.39743747558593745,-2.85388837890625,12.725181823730468,133.84732824427482,35.80916030534351,-2.4198473282442747
1749734586.2035444,2025-06-12 20:23:06.203,28.20058823529412,1.7573440185546874,4.2521021484374995,8.319850769042969,117.41984732824427,16.38167938931298,1.5038167938931297
1749734586.2131815,2025-06-12 20:23:06.213,28.106470588235297,2.786850732421875,1.0678139404296874,8.300697155761718,108.54198473282443,-22.206106870229007,1.4122137404580153
1749734586.2228339,2025-06-12 20:23:06.222,28.059411764705885,-4.429273071289062,-7.060500695800781,10.153809240722655,111.49618320610686,-40.06106870229008,-3.2290076335877864
1749734586.2325041,2025-06-12 20:23:06.232,28.012352941176474,-3.172317199707031,-1.9512743530273435,5.252878442382812,118.72519083969466,5.908396946564886,-5.809160305343512
1749734586.242145,2025-06-12 20:23:06.242,28.15352941176471,-2.731784094238281,4.395754248046875,7.161057165527343,120.3206106870229,24.091603053435115,14.854961832061068
1749734586.2521813,2025-06-12 20:23:06.252,28.15352941176471,2.2840683837890623,-0.41419688720703124,6.890512377929687,108.06870229007633,-16.641221374045802,-2.572519083969466
1749734586.2633796,2025-06-12 20:23:06.263,28.15352941176471,-4.556165759277343,-3.7134067749023436,8.528146313476562,123.2442748091603,-23.587786259541986,0.8015267175572519
1749734586.2731254,2025-06-12 20:23:06.273,28.059411764705885,2.6431986328124997,-1.120486376953125,9.9981861328125,117.70229007633588,9.526717557251908,-4.083969465648855
1749734586.2828047,2025-06-12 20:23:06.282,28.106470588235297,-0.229843359375,2.626439221191406,3.4548329956054684,115.26717557251908,-11.885496183206106,-0.1984732824427481
1749734586.2924368,2025-06-12 20:23:06.292,28.20058823529412,-1.7477672119140624,-1.3766659545898436,6.8402341430664055,113.92366412213741,-5.748091603053435,-2.732824427480916
1749734586.3020687,2025-06-12 20:23:06.302,28.20058823529412,-0.8044517578125,-1.2521674682617188,11.633425866699218,119.0,9.183206106870228,2.595419847328244
1749734586.3117032,2025-06-12 20:23:06.311,28.15352941176471,1.1947066284179686,-0.70868369140625,9.890447058105469,122.01526717557252,1.900763358778626,-0.732824427480916
1749734586.3213363,2025-06-12 20:23:06.321,28.059411764705885,-2.8419173706054686,6.179434484863281,0.5865794067382812,111.43511450381679,-15.931297709923664,-5.183206106870229
1749734586.3309772,2025-06-12 20:23:06.330,28.15352941176471,0.18914193115234373,-0.4477157104492187,9.519345800781249,107.52671755725191,3.1908396946564888,-1.9083969465648856
1749734586.3406117,2025-06-12 20:23:06.340,28.15352941176471,1.2785036865234374,-3.825934252929687,10.896011755371093,113.7175572519084,20.954198473282442,-3.7938931297709924
1749734586.3507586,2025-06-12 20:23:06.350,28.106470588235297,3.086125939941406,-2.47081611328125,14.884751721191405,121.43511450381679,-2.572519083969466,-3.030534351145038
1749734586.360515,2025-06-12 20:23:06.360,28.20058823529412,-2.6862942626953124,4.905719201660156,1.7788918334960937,113.35114503816794,-16.977099236641223,-7.015267175572519
1749734586.3713083,2025-06-12 20:23:06.371,28.059411764705885,-3.4165257690429685,-1.005564697265625,4.163516687011718,118.5114503816794,-36.80152671755725,-0.2595419847328244
1749734586.382176,2025-06-12 20:23:06.382,28.106470588235297,-8.307879760742187,-5.6766521362304685,11.046846459960937,116.30534351145039,-11.893129770992367,-5.137404580152672
1749734586.3919156,2025-06-12 20:23:06.391,27.541764705882354,4.965574243164062,-0.08140285644531249,8.44674345703125,122.72519083969466,2.099236641221374,-0.21374045801526717
1749734586.401576,2025-06-12 20:23:06.401,28.953529411764706,-2.0925322509765625,3.69664736328125,7.532158422851562,110.0,-10.16030534351145,-2.5419847328244276
1749734586.4117384,2025-06-12 20:23:06.411,28.106470588235297,-1.8195932617187498,-0.8283937744140625,8.269572534179687,111.0,0.6717557251908397,-3.236641221374046
1749734586.4212782,2025-06-12 20:23:06.421,28.15352941176471,-3.1483751831054687,-5.008669873046875,12.440271826171875,121.34351145038168,12.679389312977099,2.198473282442748
1749734586.4308372,2025-06-12 20:23:06.430,28.20058823529412,7.232883215332031,1.2952630981445312,10.235212097167969,113.65648854961832,-9.053435114503817,-2.1374045801526718
1749734586.4404845,2025-06-12 20:23:06.440,28.15352941176471,-0.7900865478515624,2.896984008789062,5.363011718749999,112.40458015267176,14.366412213740459,-1.4351145038167938
1749734586.450339,2025-06-12 20:23:06.450,28.20058823529412,-0.8212111694335937,-3.9647979492187497,5.4515971801757805,113.78625954198473,-16.793893129770993,-5.687022900763359
1749734586.4600272,2025-06-12 20:23:06.460,28.106470588235297,-1.9488801513671874,0.8810662109374999,8.310273962402343,122.74809160305344,7.5038167938931295,-6.32824427480916
1749734586.4696417,2025-06-12 20:23:06.469,28.15352941176471,-4.714183068847656,-4.76924970703125,12.160150231933594,121.59541984732824,0.9312977099236641,-3.66412213740458
1749734586.480315,2025-06-12 20:23:06.480,28.20058823529412,-0.23223756103515625,2.090138049316406,7.208941198730468,118.93129770992367,53.099236641221374,2.946564885496183
1749734586.4900076,2025-06-12 20:23:06.490,28.106470588235297,3.3877953491210935,-2.01112939453125,6.045359191894531,117.48091603053435,-19.580152671755727,1.816793893129771
1749734586.4996479,2025-06-12 20:23:06.499,28.106470588235297,-5.2433016357421875,1.8124106567382812,1.484405029296875,107.72519083969466,-50.412213740458014,-9.67175572519084
1749734586.5092845,2025-06-12 20:23:06.509,28.059411764705885,-1.4221557861328125,-0.5482721801757812,10.761936462402343,124.19083969465649,18.770992366412212,0.3435114503816794
1749734586.5189168,2025-06-12 20:23:06.518,28.15352941176471,0.5913678100585937,-0.689530078125,9.332598071289063,128.31297709923663,51.25190839694657,7.114503816793893
1749734586.5285544,2025-06-12 20:23:06.528,28.15352941176471,-0.26815058593749996,2.032677209472656,3.8570588745117185,101.34351145038168,8.404580152671755,-1.9236641221374047
1749734586.5382624,2025-06-12 20:23:06.538,28.20058823529412,1.1947066284179686,0.20829554443359374,16.558298681640625,103.3206106870229,-31.900763358778626,-1.2671755725190839
1749734586.5480678,2025-06-12 20:23:06.548,27.494705882352942,-1.7980454467773437,-2.588131994628906,7.931990100097655,127.19083969465649,-45.01526717557252,3.5801526717557253
1749734586.5579178,2025-06-12 20:23:06.557,28.20058823529412,-0.7996633544921875,3.3399113159179685,7.3478048950195305,121.70992366412214,6.32824427480916,-1.9389312977099236
1749734586.5675752,2025-06-12 20:23:06.567,28.20058823529412,-5.432443566894531,2.703053674316406,6.040570788574218,97.70992366412214,10.65648854961832,-1.2442748091603053
1749734586.57717,2025-06-12 20:23:06.577,28.15352941176471,0.34237083740234375,-5.655104321289063,9.689334118652344,109.4885496183206,-11.610687022900763,-0.366412213740458
1749734586.5885406,2025-06-12 20:23:06.588,28.059411764705885,1.1923124267578125,-1.0414777221679687,11.726799731445311,117.58778625954199,-12.82442748091603,-4.687022900763359
1749734586.5983758,2025-06-12 20:23:06.598,28.15352941176471,2.6910826660156246,2.365471240234375,4.556165759277343,120.3206106870229,5.015267175572519,3.5343511450381677
1749734586.6081069,2025-06-12 20:23:06.608,28.106470588235297,-8.643067993164061,-0.4381389038085937,1.2904746948242187,114.72519083969466,22.519083969465647,0.5572519083969466
1749734586.6178932,2025-06-12 20:23:06.617,28.859411764705882,4.058171813964844,-2.6001030029296874,16.299724902343748,108.81679389312977,-6.015267175572519,-9.854961832061068
1749734586.6275396,2025-06-12 20:23:06.627,28.20058823529412,6.1650692749023435,3.4739866088867184,13.551181396484374,129.0381679389313,-62.717557251908396,4.099236641221374
1749734586.637178,2025-06-12 20:23:06.637,28.106470588235297,-10.582371337890624,2.6623522460937497,6.89530078125,111.61068702290076,31.14503816793893,-3.49618320610687
1749734586.647098,2025-06-12 20:23:06.647,28.15352941176471,6.79953271484375,2.0733786376953125,8.322244970703125,100.85496183206106,16.450381679389313,1.8091603053435115
1749734586.6566982,2025-06-12 20:23:06.656,28.20058823529412,-0.1867477294921875,-5.4899044067382805,8.55448253173828,121.09923664122137,-43.89312977099237,1.0381679389312977
1749734586.6663415,2025-06-12 20:23:06.666,28.15352941176471,-6.658274816894531,-0.4429273071289062,2.0063409912109376,120.49618320610686,-1.4122137404580153,-7.625954198473282
1749734586.6759784,2025-06-12 20:23:06.675,28.15352941176471,4.965574243164062,6.078878015136718,8.068459594726562,121.06106870229007,30.03053435114504,2.9389312977099236
1749734586.6856134,2025-06-12 20:23:06.685,28.15352941176471,-0.737414111328125,1.3934253662109375,-0.5123591552734374,114.21374045801527,12.931297709923664,1.1450381679389312
1749734586.6951475,2025-06-12 20:23:06.695,28.906470588235294,-1.4891934326171874,-7.917624890136718,15.389928271484374,123.90076335877863,-49.45038167938932,-6.847328244274809
1749734586.706041,2025-06-12 20:23:06.706,28.953529411764706,-3.201047619628906,-4.5322237426757805,8.21690009765625,125.87786259541984,31.16793893129771,-2.931297709923664
1749734586.7158985,2025-06-12 20:23:06.715,28.106470588235297,-0.8164227661132812,3.459621398925781,1.0390835205078124,113.6030534351145,-29.580152671755727,-8.977099236641221
1749734586.7254896,2025-06-12 20:23:06.725,28.15352941176471,5.2816088623046875,-0.17238251953125,9.639055883789062,102.09160305343511,14.038167938931299,-0.8931297709923665
1749734586.7354753,2025-06-12 20:23:06.735,28.106470588235297,0.35194764404296874,-3.967192150878906,10.522516296386717,122.12213740458016,-44.87022900763359,8.381679389312977
1749734586.7451477,2025-06-12 20:23:06.745,28.106470588235297,0.5386953735351562,-0.20829554443359374,6.967126831054687,125.45038167938931,13.17557251908397,-3.8091603053435112
1749734586.7547867,2025-06-12 20:23:06.754,27.494705882352942,0.430956298828125,2.310404602050781,1.6927005737304686,105.22137404580153,-14.564885496183207,-4.465648854961832
1749734586.7648325,2025-06-12 20:23:06.764,28.20058823529412,4.541800549316406,1.4700398193359374,7.498639599609374,127.62595419847328,2.9923664122137406,-8.67175572519084
1749734586.774489,2025-06-12 20:23:06.774,28.106470588235297,1.8650830932617186,-8.221688500976562,18.171990600585936,128.21374045801528,15.351145038167939,1.2366412213740459
1749734586.7840571,2025-06-12 20:23:06.784,28.106470588235297,-8.142679846191406,0.9576806640625,-4.608838195800781,124.97709923664122,-38.038167938931295,-9.587786259541986
1749734586.7936656,2025-06-12 20:23:06.793,28.15352941176471,-3.2824504760742186,3.9504327392578125,5.623979699707031,120.21374045801527,38.06106870229008,-10.961832061068701
1749734586.8033106,2025-06-12 20:23:06.803,28.20058823529412,7.529764221191406,-1.8411410766601561,13.661314672851562,114.1145038167939,24.9618320610687,-0.19083969465648856
1749734586.8140934,2025-06-12 20:23:06.814,27.494705882352942,2.906560815429687,-1.0821791503906248,10.529698901367187,127.25954198473282,-17.221374045801525,3.0763358778625953
1749734586.8241553,2025-06-12 20:23:06.824,28.106470588235297,0.26815058593749996,-0.9050082275390624,12.72997022705078,120.42748091603053,10.977099236641221,-4.3816793893129775
1749734586.833694,2025-06-12 20:23:06.833,28.15352941176471,4.218583325195312,4.333505004882812,8.406042028808594,106.41221374045801,15.938931297709924,-3.3282442748091605
1749734586.843345,2025-06-12 20:23:06.843,28.106470588235297,-1.5011644409179687,-2.7820623291015623,7.558494641113281,116.6412213740458,-31.549618320610687,-4.267175572519084
1749734586.8530667,2025-06-12 20:23:06.853,28.059411764705885,-4.017470385742187,-2.770091320800781,10.637437976074217,124.49618320610686,17.519083969465647,-1.6793893129770991
1749734586.862621,2025-06-12 20:23:06.862,28.15352941176471,3.9887399658203124,0.5817910034179687,11.987767712402343,115.81679389312977,10.122137404580153,-3.4122137404580153
1749734586.8722572,2025-06-12 20:23:06.872,28.20058823529412,0.10773907470703124,3.7708676147460936,7.019799267578125,114.74809160305344,-0.5419847328244275,-1.4274809160305344
1749734586.8819034,2025-06-12 20:23:06.881,28.20058823529412,0.09576806640624999,-1.8100164550781248,7.264007836914062,112.03053435114504,-20.129770992366414,-5.137404580152672
1749734586.8915415,2025-06-12 20:23:06.891,28.106470588235297,-3.009511486816406,-1.608903515625,13.295001818847656,114.1526717557252,13.259541984732824,0.5267175572519084
1749734586.901177,2025-06-12 20:23:06.901,28.106470588235297,5.197811804199218,-2.061407629394531,12.799402075195312,118.31297709923665,-2.7709923664122136,-2.8702290076335877
1749734586.9108114,2025-06-12 20:23:06.910,28.106470588235297,-3.0933085449218747,6.418854650878906,0.6464344482421874,115.25954198473282,-22.106870229007633,-14.419847328244275
1749734586.9215016,2025-06-12 20:23:06.921,28.106470588235297,1.6112977172851561,-5.444414575195312,4.371812231445312,118.63358778625954,-21.427480916030536,-6.351145038167939
1749734586.9311163,2025-06-12 20:23:06.931,28.15352941176471,9.325415466308593,3.545812658691406,8.513781103515624,129.67175572519085,-29.603053435114504,-1.7328244274809161
1749734586.9409873,2025-06-12 20:23:06.940,28.106470588235297,-1.7788918334960937,2.1068974609374997,7.101202124023437,94.10687022900764,-10.061068702290076,-5.770992366412214
1749734586.9506145,2025-06-12 20:23:06.950,28.15352941176471,-1.2018892333984375,-0.15322890625,4.678270043945313,110.61832061068702,7.893129770992366,1.0610687022900764
1749734586.9602623,2025-06-12 20:23:06.960,28.15352941176471,-2.319981408691406,-0.34237083740234375,3.418919970703125,112.8854961832061,-45.412213740458014,-6.8396946564885495
1749734586.969898,2025-06-12 20:23:06.969,28.906470588235294,-3.9264907226562498,-3.1938650146484373,7.8338278320312495,116.29007633587786,31.16793893129771,1.5114503816793894
1749734586.9795628,2025-06-12 20:23:06.979,27.494705882352942,2.81558115234375,-2.5761609863281247,11.324573852539062,127.2824427480916,-3.2061068702290076,-2.0839694656488548
1749734586.9891367,2025-06-12 20:23:06.989,28.953529411764706,-1.8124106567382812,5.5258174316406246,4.2137949218749995,109.54198473282443,25.580152671755727,2.1526717557251906
1749734586.9987776,2025-06-12 20:23:06.998,28.15352941176471,5.755660791015624,1.1420341918945311,8.82981572265625,116.06870229007633,11.564885496183207,0.9770992366412213
1749734587.0084069,2025-06-12 20:23:07.008,28.906470588235294,-0.82360537109375,-3.890577697753906,17.949329846191404,116.12977099236642,17.31297709923664,-1.6412213740458015
1749734587.0180416,2025-06-12 20:23:07.018,27.494705882352942,7.42441934814453,2.5857377929687497,12.648567370605468,122.73282442748092,-2.2061068702290076,-12.450381679389313
1749734587.027673,2025-06-12 20:23:07.027,28.906470588235294,-1.2737152832031249,6.1267620483398435,7.304709265136719,107.34351145038168,-6.740458015267175,-4.694656488549619
1749734587.0381422,2025-06-12 20:23:07.038,28.953529411764706,-0.09576806640624999,0.0383072265625,8.576030346679687,112.74809160305344,3.633587786259542,1.8015267175572518
1749734587.047855,2025-06-12 20:23:07.047,28.106470588235297,-1.3311761230468748,-4.149151477050781,10.692504614257812,116.49618320610686,28.946564885496183,0.2824427480916031
1749734587.0574942,2025-06-12 20:23:07.057,28.859411764705882,4.797980126953124,-1.848323681640625,13.290213415527344,122.20610687022901,-8.740458015267176,-3.1603053435114505
1749734587.067171,2025-06-12 20:23:07.067,28.15352941176471,-4.297591979980469,5.899312890625,4.527435339355469,112.58015267175573,28.244274809160306,-4.656488549618321
1749734587.0768044,2025-06-12 20:23:07.076,28.953529411764706,1.6543933471679686,-1.687912170410156,7.558494641113281,112.21374045801527,2.3893129770992365,3.2442748091603053
1749734587.086448,2025-06-12 20:23:07.086,28.15352941176471,1.0079588989257813,-4.876988781738281,14.990096594238281,121.6793893129771,-4.534351145038168,2.9389312977099236
1749734587.096093,2025-06-12 20:23:07.096,28.15352941176471,4.44363828125,0.3399766357421875,10.512939489746094,120.07633587786259,16.366412213740457,-4.809160305343512
1749734587.1057265,2025-06-12 20:23:07.105,28.24764705882353,2.0925322509765625,2.090138049316406,8.705317236328124,111.72519083969466,43.94656488549618,-4.0458015267175576
1749734587.1153648,2025-06-12 20:23:07.115,27.494705882352942,5.6215854980468745,2.6599580444335937,10.019733947753906,109.64885496183206,6.068702290076335,-3.9083969465648853
1749734587.124996,2025-06-12 20:23:07.124,28.15352941176471,-5.559336254882812,-4.759672900390624,8.963891015625,117.22900763358778,4.488549618320611,-4.793893129770993
1749734587.1346335,2025-06-12 20:23:07.134,28.15352941176471,7.7763669921875,-0.19153613281249998,13.857639208984374,121.52671755725191,32.51145038167939,-0.4580152671755725
1749734587.1451356,2025-06-12 20:23:07.145,28.15352941176471,4.067748620605468,3.6463691284179687,4.9416322265625,104.07633587786259,-7.511450381679389,-1.1984732824427482
1749734587.1554685,2025-06-12 20:23:07.155,28.106470588235297,-2.147598889160156,-3.6679169433593746,5.829881042480468,115.31297709923665,-36.11450381679389,-1.7099236641221374
1749734587.165762,2025-06-12 20:23:07.165,28.15352941176471,-9.797073193359374,-6.471527087402343,11.099518896484375,118.96946564885496,4.206106870229007,1.8931297709923665
1749734587.1759903,2025-06-12 20:23:07.175,28.15352941176471,5.305550878906249,3.842693664550781,11.317391247558593,115.7557251908397,-6.557251908396947,-4.33587786259542
1749734587.1856825,2025-06-12 20:23:07.185,28.15352941176471,-2.0254946044921875,2.50912333984375,7.68059892578125,117.16793893129771,25.49618320610687,3.7251908396946565
1749734587.1953542,2025-06-12 20:23:07.195,28.20058823529412,3.423708374023437,-0.39743747558593745,6.995857250976562,117.1145038167939,-17.82442748091603,-3.0916030534351147
1749734587.2050755,2025-06-12 20:23:07.205,28.20058823529412,-5.853823059082031,-0.6009446166992187,7.333439685058593,116.57251908396947,-8.465648854961833,-1.4427480916030535
1749734587.214718,2025-06-12 20:23:07.214,28.15352941176471,2.195482922363281,-2.8036101440429686,9.234435803222656,120.77862595419847,-6.32824427480916,-7.595419847328245
1749734587.224352,2025-06-12 20:23:07.224,27.494705882352942,0.4644751220703125,8.262389929199218,2.6623522460937497,117.50381679389314,-17.732824427480917,-7.099236641221374
1749734587.233987,2025-06-12 20:23:07.233,27.494705882352942,-2.559401574707031,-2.712630480957031,8.755595471191405,120.17557251908397,30.793893129770993,-5.7251908396946565
1749734587.2436202,2025-06-12 20:23:07.243,27.494705882352942,5.209782812499999,-1.2018892333984375,13.01727442626953,108.9618320610687,-9.83206106870229,-2.9236641221374047
1749734587.2531688,2025-06-12 20:23:07.253,28.20058823529412,-0.47644613037109373,-2.023100402832031,10.764330664062498,118.32824427480917,-8.351145038167939,-10.374045801526718
1749734587.264824,2025-06-12 20:23:07.264,28.20058823529412,0.6751648681640625,1.180341418457031,8.607154968261717,119.93893129770993,30.267175572519083,-6.99236641221374
1749734587.2744524,2025-06-12 20:23:07.274,28.106470588235297,0.55545478515625,0.6153098266601562,7.7596075805664055,110.70229007633588,14.297709923664122,-0.6564885496183206
1749734587.2840428,2025-06-12 20:23:07.284,28.15352941176471,2.04943662109375,-1.3958195678710936,9.694122521972655,112.23664122137404,0.5038167938931297,-6.122137404580153
1749734587.2936704,2025-06-12 20:23:07.293,28.20058823529412,1.8722656982421875,0.21308394775390624,12.102689392089843,125.3587786259542,-0.6717557251908397,-2.0229007633587788
1749734587.3032918,2025-06-12 20:23:07.303,28.20058823529412,-1.3215993164062498,3.0980969482421874,7.484274389648437,118.58015267175573,42.14503816793893,-4.427480916030534
1749734587.312919,2025-06-12 20:23:07.312,27.494705882352942,4.630386010742187,1.158793603515625,6.950367419433594,109.77862595419847,-8.366412213740459,-1.4580152671755726
1749734587.322539,2025-06-12 20:23:07.322,28.15352941176471,4.005499377441406,-0.5458779785156249,14.288595507812499,106.06870229007633,-23.64885496183206,-14.793893129770993
1749734587.3321586,2025-06-12 20:23:07.332,28.24764705882353,5.963956335449218,0.70868369140625,13.80257257080078,132.98473282442748,-21.938931297709924,-0.648854961832061
1749734587.3417673,2025-06-12 20:23:07.341,28.20058823529412,-3.526659045410156,1.7573440185546874,4.8314989501953125,119.90076335877863,19.48854961832061,2.7786259541984735
1749734587.3513834,2025-06-12 20:23:07.351,28.20058823529412,-3.1028853515624997,2.422932080078125,0.5770026000976562,102.1526717557252,-5.290076335877862,0.9083969465648855
1749734587.3609922,2025-06-12 20:23:07.360,28.15352941176471,-0.6967126831054687,-2.422932080078125,12.562376110839843,106.12213740458016,-3.3282442748091605,-9.0
1749734587.3706014,2025-06-12 20:23:07.370,28.15352941176471,3.81156904296875,0.277727392578125,14.733917016601561,127.37404580152672,33.93893129770992,0.6030534351145038
1749734587.38021,2025-06-12 20:23:07.380,28.906470588235294,0.258573779296875,1.8148048583984373,8.40843623046875,120.47328244274809,0.4580152671755725,11.404580152671755
1749734587.3898182,2025-06-12 20:23:07.389,28.20058823529412,-1.7477672119140624,0.3950432739257812,4.082113830566406,111.70229007633588,-19.96946564885496,-5.511450381679389
1749734587.3994224,2025-06-12 20:23:07.399,28.15352941176471,-6.332663391113281,-4.055777612304687,13.594277026367187,111.08396946564885,27.595419847328245,-9.229007633587786
1749734587.4090297,2025-06-12 20:23:07.409,27.494705882352942,6.351817004394531,0.8475473876953125,15.91665263671875,135.67175572519085,5.488549618320611,-4.534351145038168
1749734587.418637,2025-06-12 20:23:07.418,28.15352941176471,3.67749375,1.5849614990234373,12.19366905517578,121.41221374045801,6.709923664122138,-0.916030534351145
1749734587.4282446,2025-06-12 20:23:07.428,28.20058823529412,-9.904812268066406,0.8930372192382812,2.3391350219726563,98.91603053435115,25.65648854961832,2.564885496183206
1749734587.4378512,2025-06-12 20:23:07.437,27.494705882352942,0.6177040283203125,2.4109610717773435,11.918335864257811,109.80916030534351,-12.076335877862595,-2.8244274809160306
1749734587.4474587,2025-06-12 20:23:07.447,28.906470588235294,-0.18435352783203124,-1.8291700683593748,8.549694128417968,115.72519083969466,-19.6793893129771,-0.3969465648854962
1749734587.4570725,2025-06-12 20:23:07.457,28.24764705882353,-0.8978256225585937,2.9927520751953125,10.493785876464843,133.10687022900763,15.908396946564885,-1.5801526717557253
1749734587.466683,2025-06-12 20:23:07.466,28.24764705882353,2.901772412109375,3.766079211425781,4.2688615600585935,103.3587786259542,-25.80916030534351,-10.312977099236642
1749734587.476334,2025-06-12 20:23:07.476,28.953529411764706,-1.5035586425781249,-2.3319524169921872,12.459425439453124,114.90076335877863,-9.877862595419847,-7.099236641221374
1749734587.4859774,2025-06-12 20:23:07.485,28.15352941176471,-1.22583125,-1.5753846923828123,12.160150231933594,120.38167938931298,16.47328244274809,0.9465648854961832
1749734587.4956124,2025-06-12 20:23:07.495,28.15352941176471,4.474762902832031,-1.898601916503906,4.3454760131835934,122.7557251908397,-32.48091603053435,5.068702290076335
1749734587.505246,2025-06-12 20:23:07.505,27.494705882352942,-9.6917283203125,1.1755530151367186,2.971204260253906,111.79389312977099,17.35114503816794,-2.4122137404580153
1749734587.5149064,2025-06-12 20:23:07.514,28.341764705882355,1.5801730957031248,0.7685387329101562,11.611878051757811,107.09160305343511,-1.9923664122137406,-1.1603053435114503
1749734587.5245218,2025-06-12 20:23:07.524,28.15352941176471,3.545812658691406,-3.1579519897460937,8.678981018066406,124.17557251908397,-48.954198473282446,-0.8320610687022901
1749734587.5360293,2025-06-12 20:23:07.536,28.20058823529412,-3.4955344238281247,0.9576806640625,6.3709706176757805,112.08396946564885,-13.961832061068701,2.0381679389312977
1749734587.5462441,2025-06-12 20:23:07.546,27.494705882352942,0.8571241943359375,0.49320554199218747,3.1842882080078123,111.93129770992367,-10.618320610687023,-0.2748091603053435
1749734587.5558944,2025-06-12 20:23:07.555,28.106470588235297,-6.8976949829101555,-1.9943699829101562,5.449202978515625,112.97709923664122,2.1297709923664123,-12.648854961832061
1749734587.5655458,2025-06-12 20:23:07.565,28.953529411764706,5.849034655761718,0.8116343627929687,13.01727442626953,130.65648854961833,25.30534351145038,-4.8320610687022905
1749734587.5751157,2025-06-12 20:23:07.575,28.15352941176471,-0.13168109130859373,1.218648645019531,8.535328918457031,124.08396946564885,1.2900763358778626,2.114503816793893
1749734587.5847576,2025-06-12 20:23:07.584,28.953529411764706,-2.3223756103515623,1.6256629272460936,2.463633508300781,107.62595419847328,14.007633587786259,-2.351145038167939
1749734587.5943959,2025-06-12 20:23:07.594,28.15352941176471,2.042254016113281,2.1619640991210938,12.69884560546875,109.58015267175573,-13.679389312977099,-1.5648854961832062
1749734587.6040332,2025-06-12 20:23:07.604,28.15352941176471,-2.231395947265625,-7.371746911621093,13.91749425048828,112.09923664122137,16.9618320610687,-0.16030534351145037
1749734587.6136646,2025-06-12 20:23:07.613,28.294705882352943,5.53539423828125,0.42377369384765623,11.906364855957031,123.78625954198473,-6.236641221374046,-2.984732824427481
1749734587.623303,2025-06-12 20:23:07.623,28.20058823529412,-2.068590234375,3.921702319335937,2.8514941772460936,108.19083969465649,-22.00763358778626,-7.732824427480916
1749734587.6329339,2025-06-12 20:23:07.632,28.24764705882353,-1.2665326782226562,0.3136404174804687,8.832209924316405,109.86259541984732,-16.69465648854962,-3.3740458015267176
1749734587.643734,2025-06-12 20:23:07.643,28.953529411764706,-2.8131869506835936,-2.712630480957031,9.392453112792968,127.10687022900764,8.580152671755725,-3.8931297709923665
1749734587.6536233,2025-06-12 20:23:07.653,28.81235294117647,2.291250988769531,-1.158793603515625,4.144363073730468,126.93129770992367,-3.564885496183206,0.9847328244274809
1749734587.6633928,2025-06-12 20:23:07.663,28.20058823529412,-4.465186096191406,2.6001030029296874,2.9089550170898435,105.33587786259542,2.595419847328244,-5.587786259541985
1749734587.6730278,2025-06-12 20:23:07.673,28.20058823529412,1.4604630126953124,-0.9888052856445312,10.817003100585938,100.4885496183206,-17.374045801526716,-6.412213740458015
1749734587.6826582,2025-06-12 20:23:07.682,27.494705882352942,5.219359619140625,-1.1252747802734375,12.696451403808593,130.25954198473283,1.2213740458015268,-0.2366412213740458
1749734587.6929677,2025-06-12 20:23:07.692,28.953529411764706,-1.6472107421875,2.6695348510742187,8.37012900390625,119.32824427480917,11.229007633587786,1.3282442748091603
1749734587.7025707,2025-06-12 20:23:07.702,28.24764705882353,2.8012159423828122,0.08858546142578125,4.778826513671874,106.66412213740458,19.603053435114504,1.534351145038168
1749734587.7122197,2025-06-12 20:23:07.712,28.20058823529412,-2.3343466186523436,-3.0813375366210938,8.719682446289061,111.74809160305344,0.8854961832061069,2.4580152671755724
1749734587.7218604,2025-06-12 20:23:07.721,28.294705882352943,-3.744531396484375,-4.3454760131835934,11.597512841796874,130.6412213740458,-12.473282442748092,-9.206106870229007
1749734587.7314947,2025-06-12 20:23:07.731,28.20058823529412,1.4341267944335936,-0.6368576416015624,11.79862578125,115.0,52.68702290076336,-1.16793893129771
1749734587.7411263,2025-06-12 20:23:07.741,28.20058823529412,1.6472107421875,-0.7206546997070312,6.505045910644531,114.65648854961832,-12.969465648854962,1.3129770992366412
1749734587.7507877,2025-06-12 20:23:07.750,28.059411764705885,-1.1420341918945311,4.261678955078125,7.196970190429687,99.95419847328245,-29.03053435114504,-0.6106870229007634
1749734587.761894,2025-06-12 20:23:07.761,28.859411764705882,-1.0438719238281249,-8.470685473632813,11.243170996093749,115.38167938931298,-12.0,4.450381679389313
1749734587.771813,2025-06-12 20:23:07.771,28.20058823529412,-6.327874987792969,0.5291185668945312,5.645527514648437,119.48091603053435,-36.6793893129771,-4.641221374045801
1749734587.781602,2025-06-12 20:23:07.781,27.494705882352942,-6.358999609374999,4.680664245605469,5.578489868164062,108.21374045801527,55.770992366412216,-2.053435114503817
1749734587.7911482,2025-06-12 20:23:07.791,28.20058823529412,2.96881005859375,0.5913678100585937,17.91341682128906,107.85496183206106,-14.625954198473282,-3.969465648854962
1749734587.8009093,2025-06-12 20:23:07.800,28.15352941176471,3.7325603881835936,-1.0702081420898437,9.064447485351561,126.92366412213741,-14.702290076335878,2.6030534351145036
1749734587.8105626,2025-06-12 20:23:07.810,28.24764705882353,-0.1149216796875,5.204994409179688,6.5577183471679685,119.83969465648855,-13.763358778625955,-1.6030534351145038
1749734587.8201997,2025-06-12 20:23:07.820,28.294705882352943,-4.7117888671875,0.7110778930664062,2.243366955566406,102.70229007633588,13.648854961832061,0.22137404580152673
1749734587.8298347,2025-06-12 20:23:07.829,28.106470588235297,-2.5761609863281247,-10.079588989257813,19.565415966796873,106.31297709923665,6.984732824427481,-0.04580152671755725
1749734587.8394437,2025-06-12 20:23:07.839,28.953529411764706,5.324704492187499,-2.73896669921875,10.977414611816405,117.30534351145039,-15.541984732824428,13.65648854961832
1749734587.849132,2025-06-12 20:23:07.849,28.20058823529412,-7.249642626953125,8.212111694335936,1.3215993164062498,120.57251908396947,-64.22900763358778,0.1450381679389313
1749734587.8586211,2025-06-12 20:23:07.858,27.494705882352942,-5.042188696289062,3.7804444213867185,8.422801440429687,107.89312977099236,55.099236641221374,-0.07633587786259542
1749734587.8694875,2025-06-12 20:23:07.869,28.15352941176471,-5.628768103027343,-2.5953145996093747,9.76116016845703,100.25190839694656,-13.992366412213741,-2.16793893129771
1749734587.8796053,2025-06-12 20:23:07.879,28.15352941176471,2.2170307373046874,-3.009511486816406,10.64222637939453,126.87786259541984,15.801526717557252,1.1603053435114503
1749734587.889193,2025-06-12 20:23:07.889,28.906470588235294,-0.9648632690429687,6.167463476562499,3.392583752441406,125.57251908396947,27.786259541984734,-1.1145038167938932
1749734587.8987942,2025-06-12 20:23:07.898,28.106470588235297,4.185064501953125,3.5793314819335937,4.759672900390624,108.89312977099236,-4.244274809160306,-3.8473282442748094
1749734587.908415,2025-06-12 20:23:07.908,27.494705882352942,3.5889082885742187,0.5243301635742187,11.9135474609375,108.29007633587786,-24.091603053435115,-5.732824427480916
1749734587.9180617,2025-06-12 20:23:07.918,27.541764705882354,-1.1061211669921875,-1.8076222534179687,7.589619262695312,123.66412213740458,8.213740458015268,-0.2900763358778626
1749734587.9277055,2025-06-12 20:23:07.927,28.15352941176471,-4.900930798339844,3.785232824707031,6.1818286865234375,117.54961832061069,-14.19083969465649,3.2519083969465647
1749734587.9374642,2025-06-12 20:23:07.937,28.20058823529412,-2.01112939453125,1.3048399047851562,4.340687609863281,105.07633587786259,34.19083969465649,1.6717557251908397
1749734587.9472764,2025-06-12 20:23:07.947,28.15352941176471,-4.611232397460937,-5.030217687988281,12.981361401367186,116.29770992366412,-26.282442748091604,2.946564885496183
1749734587.9569237,2025-06-12 20:23:07.956,28.906470588235294,-3.421314172363281,-0.833182177734375,8.748412866210938,123.8473282442748,-1.6488549618320612,-5.0534351145038165
1749734587.9665716,2025-06-12 20:23:07.966,28.953529411764706,5.303156677246093,1.9943699829101562,4.4005426513671875,116.21374045801527,-5.595419847328245,-5.587786259541985
1749734587.9761958,2025-06-12 20:23:07.976,28.953529411764706,-6.438008264160156,0.7158662963867187,4.000710974121094,109.45038167938931,-9.83969465648855,-5.625954198473282
1749734587.9873846,2025-06-12 20:23:07.987,27.494705882352942,0.55545478515625,-3.124433166503906,8.420407238769531,107.1526717557252,-2.687022900763359,-3.2900763358778624
1749734587.9970617,2025-06-12 20:23:07.997,28.20058823529412,-1.0438719238281249,-2.1164742675781247,13.87918702392578,126.70229007633588,22.61832061068702,-0.06870229007633588
1749734588.006707,2025-06-12 20:23:08.006,27.494705882352942,3.0071172851562498,4.637568615722656,4.905719201660156,127.93129770992367,14.98473282442748,6.213740458015267
1749734588.0163605,2025-06-12 20:23:08.016,28.15352941176471,-5.365405920410156,-1.7357962036132812,1.9297265380859374,106.43511450381679,-13.435114503816793,-3.3053435114503817
1749734588.0259295,2025-06-12 20:23:08.025,27.541764705882354,-1.6807295654296874,-2.2098481323242187,14.956577770996093,107.19083969465649,-26.229007633587788,-9.511450381679388
1749734588.0360773,2025-06-12 20:23:08.036,27.494705882352942,2.9448680419921875,-0.33039982910156246,16.61815372314453,119.2824427480916,19.64885496183206,-7.648854961832061
1749734588.0457351,2025-06-12 20:23:08.045,27.541764705882354,0.6153098266601562,0.02633621826171875,3.423708374023437,125.37404580152672,-7.122137404580153,-2.6946564885496183
1749734588.055333,2025-06-12 20:23:08.055,28.20058823529412,6.028599780273437,7.886500268554687,7.544129431152343,126.67175572519083,10.412213740458014,-12.900763358778626
1749734588.0649893,2025-06-12 20:23:08.064,28.059411764705885,-3.1364041748046874,-3.347093920898437,7.302315063476562,91.45038167938931,-63.48091603053435,-4.175572519083969
1749734588.0746284,2025-06-12 20:23:08.074,28.24764705882353,-5.7843912109375,-1.1061211669921875,4.9416322265625,132.66412213740458,-44.64885496183206,2.427480916030534
1749734588.084261,2025-06-12 20:23:08.084,27.541764705882354,-5.267243652343749,3.622427111816406,8.760383874511719,113.87786259541984,16.732824427480917,-0.183206106870229
1749734588.09492,2025-06-12 20:23:08.094,27.588823529411766,-9.655815295410155,4.431667272949219,-0.5363011718749999,102.01526717557252,-4.816793893129771,0.7709923664122137
1749734588.1048958,2025-06-12 20:23:08.104,28.953529411764706,-5.2624552490234375,-6.133944653320312,15.995661291503906,123.1145038167939,29.748091603053435,0.16030534351145037
1749734588.1144958,2025-06-12 20:23:08.114,28.953529411764706,8.52335791015625,1.2234370483398436,12.241553088378906,124.82442748091603,1.0458015267175573,-3.2595419847328246
1749734588.1241293,2025-06-12 20:23:08.124,28.906470588235294,-2.1164742675781247,6.342240197753906,5.374982727050781,116.70229007633588,9.358778625954198,1.2366412213740459
1749734588.1337488,2025-06-12 20:23:08.133,28.953529411764706,1.714248388671875,-0.63206923828125,3.9647979492187497,101.3206106870229,-13.587786259541986,-3.0229007633587788
1749734588.143544,2025-06-12 20:23:08.143,28.953529411764706,-3.4069489624023435,-6.1818286865234375,14.233528869628906,121.53435114503817,16.748091603053435,0.16030534351145037
1749734588.1531081,2025-06-12 20:23:08.153,27.494705882352942,7.982268334960937,2.9664158569335934,12.361263171386717,121.89312977099236,-10.770992366412214,-3.969465648854962
1749734588.1627567,2025-06-12 20:23:08.162,28.15352941176471,-2.8371289672851563,3.758896606445312,9.37808790283203,113.56488549618321,56.06106870229008,3.427480916030534
1749734588.1723137,2025-06-12 20:23:08.172,28.953529411764706,5.396530541992187,0.4381389038085937,1.5658078857421873,110.54961832061069,-39.656488549618324,-0.9312977099236641
1749734588.1819174,2025-06-12 20:23:08.181,27.494705882352942,-9.102754711914063,-5.135562561035156,7.445967163085937,107.93893129770993,-26.9618320610687,-5.8320610687022905
1749734588.1915617,2025-06-12 20:23:08.191,27.494705882352942,-1.1707646118164061,-0.3591302490234375,10.39322940673828,124.92366412213741,-13.755725190839694,-7.00763358778626
1749734588.2020934,2025-06-12 20:23:08.202,28.341764705882355,1.5418658691406248,5.154716174316406,7.694964135742187,112.67175572519083,42.7557251908397,-1.1603053435114503
1749734588.212072,2025-06-12 20:23:08.212,28.15352941176471,3.8379052612304685,2.8107927490234372,6.950367419433594,114.34351145038168,8.106870229007633,-3.114503816793893
1749734588.2216508,2025-06-12 20:23:08.221,27.494705882352942,-1.6639701538085936,-2.346317626953125,9.533711010742186,107.58015267175573,-10.091603053435115,-15.48091603053435
1749734588.2312984,2025-06-12 20:23:08.231,28.953529411764706,3.9336733276367184,0.09337386474609374,11.17852755126953,124.54198473282443,18.908396946564885,-5.213740458015267
1749734588.2410886,2025-06-12 20:23:08.241,27.494705882352942,-0.7900865478515624,0.36631285400390623,6.639121203613281,116.45038167938931,48.06870229007634,0.9007633587786259
1749734588.2507281,2025-06-12 20:23:08.250,28.15352941176471,3.5506010620117183,1.7836802368164062,3.5027170288085934,107.96946564885496,-26.061068702290076,3.8931297709923665
1749734588.2602754,2025-06-12 20:23:08.260,28.953529411764706,-4.290409374999999,-2.5450363647460934,11.089942089843749,110.98473282442748,-0.2595419847328244,-2.4198473282442747
1749734588.269904,2025-06-12 20:23:08.269,28.15352941176471,-0.016759411621093748,-3.5194764404296874,12.938265771484375,123.2824427480916,1.0763358778625953,0.1984732824427481
1749734588.2799084,2025-06-12 20:23:08.279,27.494705882352942,-0.13168109130859373,3.69664736328125,6.330269189453125,118.89312977099236,-15.51908396946565,1.5572519083969465
1749734588.2895517,2025-06-12 20:23:08.289,27.494705882352942,-8.71489404296875,1.5011644409179687,1.1420341918945311,110.09923664122137,10.022900763358779,-2.6946564885496183
1749734588.2992523,2025-06-12 20:23:08.299,28.15352941176471,3.3542765258789062,0.12449848632812499,11.010933435058593,110.14503816793894,-11.206106870229007,-0.9236641221374046
1749734588.3097723,2025-06-12 20:23:08.309,27.494705882352942,3.77326181640625,-1.915361328125,10.905588562011719,127.38931297709924,6.106870229007634,2.931297709923664
1749734588.319805,2025-06-12 20:23:08.319,27.494705882352942,-2.0877438476562498,0.9888052856445312,4.912901806640625,123.04580152671755,7.938931297709924,-1.2442748091603053
1749734588.3293543,2025-06-12 20:23:08.329,28.953529411764706,-3.9815573608398434,2.0973206542968748,2.250549560546875,105.25954198473282,35.74045801526717,3.068702290076336
1749734588.3389177,2025-06-12 20:23:08.338,28.24764705882353,2.8275521606445313,-0.9026140258789062,18.440141186523437,123.93893129770993,10.687022900763358,3.030534351145038
1749734588.3485484,2025-06-12 20:23:08.348,27.494705882352942,-2.906560815429687,-4.874594580078124,13.096283081054686,114.0381679389313,25.290076335877863,7.068702290076335
1749734588.3582182,2025-06-12 20:23:08.358,28.15352941176471,3.0980969482421874,-1.7884686401367187,6.124367846679687,111.98473282442748,-27.099236641221374,0.4580152671755725
1749734588.3678372,2025-06-12 20:23:08.367,27.494705882352942,-10.635043774414061,3.8379052612304685,1.6136919189453125,115.93893129770993,12.083969465648854,-0.2824427480916031
1749734588.3774798,2025-06-12 20:23:08.377,28.24764705882353,1.4891934326171874,-4.903325,7.750030773925781,104.41221374045801,-3.2748091603053435,-10.86259541984733
1749734588.3872771,2025-06-12 20:23:08.387,28.953529411764706,5.717353564453124,2.39420166015625,11.973402502441406,130.44274809160305,-40.06106870229008,2.122137404580153
1749734588.3969197,2025-06-12 20:23:08.396,28.20058823529412,-4.352658618164062,0.4477157104492187,6.234501123046875,115.54961832061069,6.625954198473282,-4.488549618320611
1749734588.4065545,2025-06-12 20:23:08.406,28.15352941176471,0.33518823242187495,5.930437512207031,5.7843912109375,108.14503816793894,17.3206106870229,-1.748091603053435
1749734588.4160895,2025-06-12 20:23:08.416,28.15352941176471,1.2282254516601563,0.2442085693359375,15.030798022460937,108.0,-32.717557251908396,-3.4198473282442747
1749734588.426931,2025-06-12 20:23:08.426,28.20058823529412,-1.2473790649414063,1.005564697265625,12.50012686767578,120.79389312977099,30.389312977099237,-3.099236641221374
1749734588.4365642,2025-06-12 20:23:08.436,28.20058823529412,3.289633081054687,2.6982652709960937,8.657433203124999,120.65648854961832,21.35114503816794,5.068702290076335
1749734588.4462035,2025-06-12 20:23:08.446,28.906470588235294,-7.165845568847656,-0.44053310546874996,1.6903063720703124,104.45801526717557,1.900763358778626,-0.9389312977099237
1749734588.4558506,2025-06-12 20:23:08.455,28.859411764705882,-0.8882488159179687,-7.108384729003906,17.899051611328122,107.51908396946565,-27.610687022900763,-3.267175572519084
1749734588.465491,2025-06-12 20:23:08.465,28.953529411764706,-1.6831237670898436,-3.3207577026367185,5.465962390136719,117.35114503816794,-30.641221374045802,0.4122137404580153
1749734588.475024,2025-06-12 20:23:08.475,28.20058823529412,-0.7158662963867187,3.632003918457031,9.610325463867188,112.99236641221374,11.221374045801527,1.7938931297709924
1749734588.4851956,2025-06-12 20:23:08.485,28.20058823529412,-3.2537200561523436,4.127603662109375,1.216254443359375,110.08396946564885,15.16793893129771,-1.8854961832061068
1749734588.4954448,2025-06-12 20:23:08.495,28.859411764705882,-1.8842367065429686,-3.842693664550781,15.998055493164062,113.30534351145039,-15.954198473282442,-3.0229007633587788
1749734588.5051405,2025-06-12 20:23:08.505,28.20058823529412,0.97683427734375,-0.8571241943359375,13.242329382324218,129.42748091603053,16.755725190839694,3.7709923664122136
1749734588.5148044,2025-06-12 20:23:08.514,28.953529411764706,-0.488417138671875,7.429207751464843,7.105990527343749,112.9618320610687,29.129770992366414,-0.9618320610687023
1749734588.5243523,2025-06-12 20:23:08.524,28.24764705882353,-0.239420166015625,2.559401574707031,2.6479870361328124,105.43511450381679,0.7709923664122137,-0.0916030534351145
1749734588.5355291,2025-06-12 20:23:08.535,28.953529411764706,2.971204260253906,-6.452373474121093,13.165714929199218,122.61068702290076,49.091603053435115,0.183206106870229
1749734588.5463393,2025-06-12 20:23:08.546,28.24764705882353,6.9719152343749995,-1.0869675537109373,11.767501159667969,118.0381679389313,13.84732824427481,-4.412213740458015
1749734588.5561905,2025-06-12 20:23:08.556,28.24764705882353,0.3327940307617187,2.6815058593749996,2.4947581298828125,108.57251908396947,-31.908396946564885,-2.3587786259541983
1749734588.5657468,2025-06-12 20:23:08.565,28.15352941176471,-2.212242333984375,-0.28730419921875,5.76523759765625,122.89312977099236,17.671755725190838,10.564885496183207
1749734588.5754752,2025-06-12 20:23:08.575,28.294705882352943,-6.1650692749023435,-12.026074938964843,11.575965026855467,108.25954198473282,-43.038167938931295,-1.549618320610687
1749734588.5853755,2025-06-12 20:23:08.585,27.541764705882354,-1.7262193969726563,5.516240625,11.173739147949219,114.65648854961832,15.114503816793894,-9.877862595419847
1749734588.594962,2025-06-12 20:23:08.594,28.20058823529412,7.242460021972656,-3.3351229125976563,12.437877624511717,106.50381679389314,72.9618320610687,3.3740458015267176
1749734588.6046023,2025-06-12 20:23:08.604,27.494705882352942,6.026205578613281,0.15083470458984374,3.4931402221679684,117.9618320610687,-66.96946564885496,-0.4732824427480916
1749734588.6142485,2025-06-12 20:23:08.614,27.494705882352942,-8.978256225585938,0.07422025146484375,3.5673604736328124,108.82442748091603,-25.30534351145038,-6.748091603053435
1749734588.6240044,2025-06-12 20:23:08.624,27.494705882352942,0.9504980590820312,-1.3575123413085937,11.85608662109375,126.01526717557252,-20.69465648854962,2.732824427480916
1749734588.63371,2025-06-12 20:23:08.633,28.24764705882353,-1.429338391113281,0.7685387329101562,7.278373046874999,113.77862595419847,41.70992366412214,7.030534351145038
1749734588.6432848,2025-06-12 20:23:08.643,28.294705882352943,-5.322310290527343,-3.6631285400390623,10.24000050048828,108.40458015267176,4.038167938931298,-3.9923664122137406
1749734588.6546922,2025-06-12 20:23:08.654,28.953529411764706,7.465120776367187,-6.114791040039062,13.76426534423828,118.19847328244275,-24.221374045801525,-5.786259541984733
1749734588.6642692,2025-06-12 20:23:08.664,28.906470588235294,-10.20169327392578,2.7581203125,8.355763793945313,127.30534351145039,-25.595419847328245,-7.862595419847328
1749734588.6740263,2025-06-12 20:23:08.674,28.20058823529412,6.926425402832031,2.868253588867187,11.815385192871092,112.66412213740458,69.29007633587786,-0.6870229007633588
1749734588.6836383,2025-06-12 20:23:08.683,28.953529411764706,6.256048937988281,1.6927005737304686,5.240907434082031,103.66412213740458,-38.908396946564885,-0.37404580152671757
1749734588.6932912,2025-06-12 20:23:08.693,28.15352941176471,-5.45877978515625,-4.948814831542968,10.71884083251953,120.2442748091603,-2.2900763358778624,-7.442748091603053
1749734588.7029278,2025-06-12 20:23:08.702,27.494705882352942,-1.39821376953125,-1.3072341064453123,9.22485899658203,117.55725190839695,-18.748091603053435,-6.893129770992366
1749734588.712545,2025-06-12 20:23:08.712,27.494705882352942,0.10773907470703124,6.883329772949218,5.317521887207031,131.29770992366412,23.17557251908397,0.5190839694656488
1749734588.7221875,2025-06-12 20:23:08.722,28.24764705882353,-2.9831752685546875,0.45010991210937495,5.298368273925781,102.94656488549619,21.80916030534351,-5.847328244274809
1749734588.7317271,2025-06-12 20:23:08.731,28.294705882352943,1.9967641845703124,0.3591302490234375,13.113042492675781,112.37404580152672,-19.603053435114504,0.1297709923664122
1749734588.7413707,2025-06-12 20:23:08.741,28.24764705882353,-1.3766659545898436,-2.4899697265625,11.781866369628906,118.7557251908397,11.114503816793894,-1.2900763358778626
1749734588.7509427,2025-06-12 20:23:08.750,28.15352941176471,9.042899670410156,-0.5339069702148437,12.061987963867187,114.8854961832061,32.20610687022901,-6.114503816793893
1749734588.7619882,2025-06-12 20:23:08.761,27.494705882352942,9.421183532714844,2.8993782104492185,6.471527087402343,115.49618320610686,3.3435114503816794,-1.8931297709923665
1749734588.7719285,2025-06-12 20:23:08.771,27.541764705882354,-4.144363073730468,-2.6312276245117188,5.485116003417969,104.91603053435115,-20.916030534351144,-12.320610687022901
1749734588.7815754,2025-06-12 20:23:08.781,28.20058823529412,2.971204260253906,1.20667763671875,7.8362220336914055,130.65648854961833,-26.290076335877863,-1.7099236641221374
1749734588.791117,2025-06-12 20:23:08.791,28.953529411764706,-5.070919116210937,0.16519991455078123,6.816292126464844,113.93893129770993,6.435114503816794,3.1297709923664123
1749734588.8008385,2025-06-12 20:23:08.800,28.24764705882353,2.233790148925781,0.4908113403320312,10.24718310546875,102.7175572519084,6.366412213740458,5.458015267175573
1749734588.8104773,2025-06-12 20:23:08.810,28.24764705882353,-6.452373474121093,-2.0638018310546875,6.928819604492187,106.93129770992367,-57.717557251908396,7.786259541984733
1749734588.8201098,2025-06-12 20:23:08.820,28.24764705882353,-7.994239343261718,-1.4724340209960938,11.259930407714844,130.74809160305344,42.93129770992366,4.511450381679389
1749734588.8296797,2025-06-12 20:23:08.829,28.906470588235294,6.873752966308594,1.9536685546875,12.20085166015625,116.87022900763358,19.580152671755727,-2.4122137404580153
1749734588.8393102,2025-06-12 20:23:08.839,28.24764705882353,-2.085349645996094,2.3918074584960936,7.240065820312499,107.93129770992367,27.65648854961832,-1.3435114503816794
1749734588.8489482,2025-06-12 20:23:08.848,28.24764705882353,1.407790576171875,-1.0965443603515623,7.64229169921875,116.58015267175573,-2.068702290076336,-6.030534351145038
1749734588.8585832,2025-06-12 20:23:08.858,28.24764705882353,0.8020575561523438,0.9864110839843749,8.815450512695312,123.32824427480917,-25.27480916030534,-1.5038167938931297
1749734588.8691878,2025-06-12 20:23:08.869,28.953529411764706,-3.0334535034179684,2.4109610717773435,4.283226770019531,122.69465648854961,-8.007633587786259,-0.9694656488549618
1749734588.8793566,2025-06-12 20:23:08.879,28.24764705882353,-3.6296097167968746,-2.6144682128906247,2.3822306518554686,107.63358778625954,40.32824427480916,-5.465648854961832
1749734588.888977,2025-06-12 20:23:08.888,28.15352941176471,3.7038299682617186,-2.6982652709960937,9.217676391601563,121.70992366412214,12.86259541984733,1.9618320610687023
1749734588.8986168,2025-06-12 20:23:08.898,28.24764705882353,1.946485949707031,0.4213794921875,7.369352709960937,113.77099236641222,-41.038167938931295,0.6030534351145038
1749734588.9082527,2025-06-12 20:23:08.908,27.494705882352942,-3.632003918457031,-0.1388636962890625,11.109095703125,116.70992366412214,-0.7251908396946565,2.213740458015267
1749734588.9178824,2025-06-12 20:23:08.917,27.494705882352942,3.459621398925781,1.1731588134765625,8.688557824707031,121.48091603053435,32.33587786259542,0.48091603053435117
1749734588.9275215,2025-06-12 20:23:08.927,27.588823529411766,3.2321722412109373,2.7461493041992187,8.968679418945312,111.09160305343511,2.4122137404580153,-0.9389312977099237
1749734588.9373758,2025-06-12 20:23:08.937,27.494705882352942,-1.0749965454101562,-0.18435352783203124,7.773972790527344,107.41221374045801,-19.862595419847327,-5.404580152671755
1749734588.9470217,2025-06-12 20:23:08.947,28.388823529411766,-3.6343981201171873,-3.0238766967773434,12.382810986328124,115.87022900763358,-22.519083969465647,-0.7251908396946565
1749734588.956626,2025-06-12 20:23:08.956,28.294705882352943,2.829946362304687,2.233790148925781,9.124302526855468,127.48091603053435,69.09160305343511,-3.572519083969466
