timestamp_unix,timestamp_readable,temp_c,accel_x,accel_y,accel_z,gyro_x,gyro_y,gyro_z,mag_x,mag_y,mag_z,heading
1749734888.199392,2025-06-12 20:28:08.199,31.73471710546021,-17.113753466796872,-2.001552587890625,-4.970362646484375,15.351145038167939,-28.755725190839694,-12.435114503816793,6.5689453124999995,52.3623046875,-63.0064453125,
1749734888.213706,2025-06-12 20:28:08.213,31.782639949681013,-5.154716174316406,-8.264784130859374,12.761094848632812,18.14503816793893,-37.6412213740458,-24.18320610687023,8.699414062499999,52.3623046875,-64.0365234375,
1749734888.2269163,2025-06-12 20:28:08.226,31.159642974810556,16.49126103515625,-3.8690298828125,11.5304751953125,16.557251908396946,-11.908396946564885,-8.595419847328245,7.1015625,51.826171875,-63.178124999999994,
1749734888.2393885,2025-06-12 20:28:08.239,31.782639949681013,-2.9281086303710935,-1.0366893188476562,2.7940333374023436,-3.1755725190839694,-12.030534351145038,8.603053435114504,6.5689453124999995,54.8642578125,-62.6630859375,
1749734888.2516747,2025-06-12 20:28:08.251,31.782639949681013,12.143390820312499,-2.6958710693359373,3.385401147460937,5.885496183206107,-4.137404580152672,-10.557251908396946,,,,81.86791617123161
1749734888.2640653,2025-06-12 20:28:08.264,31.926408482343426,-2.5378537597656248,3.459621398925781,19.61270144958496,24.46564885496183,106.22137404580153,15.022900763358779,7.1015625,53.255859375,-64.894921875,
1749734888.2764595,2025-06-12 20:28:08.276,32.21394554766825,-10.12507882080078,9.564835632324218,3.5410242553710933,-3.480916030534351,-7.145038167938932,8.49618320610687,6.9240234375,51.6474609375,-63.3498046875,
1749734888.2887805,2025-06-12 20:28:08.288,32.40563692455147,0.5291185668945312,-0.82360537109375,3.679887951660156,-19.47328244274809,-101.90076335877863,-2.045801526717557,6.9240234375,52.3623046875,-64.0365234375,82.84949715408581
1749734888.3043792,2025-06-12 20:28:08.304,31.590948572797796,-1.1037269653320312,-1.4006079711914061,11.18511160583496,29.82442748091603,-57.16030534351145,2.549618320610687,7.4566406249999995,52.541015625,-64.894921875,
1749734888.3166556,2025-06-12 20:28:08.316,31.782639949681013,0.8810662109374999,2.231395947265625,7.187393383789062,-12.183206106870228,37.11450381679389,8.213740458015268,5.326171875,54.685546875,-62.834765624999996,
1749734888.3289652,2025-06-12 20:28:08.328,31.73471710546021,-19.6133,0.4213794921875,8.499415893554687,17.549618320610687,102.6412213740458,-10.969465648854962,6.9240234375,52.7197265625,-64.3798828125,79.84985166065103
1749734888.3446734,2025-06-12 20:28:08.344,32.30979123610986,8.671798413085938,0.0047884033203125,19.61270144958496,19.938931297709924,19.16030534351145,9.80916030534351,6.5689453124999995,52.7197265625,-64.0365234375,
1749734888.3571055,2025-06-12 20:28:08.357,31.782639949681013,-12.361263171386717,4.553771557617187,7.082048510742187,8.603053435114504,29.00763358778626,12.641221374045802,6.9240234375,54.1494140625,-62.6630859375,
1749734888.369395,2025-06-12 20:28:08.369,32.357714080330666,6.902483386230468,1.0917559570312498,13.998897106933592,-0.8702290076335878,-40.343511450381676,-7.114503816793893,7.279101562499999,53.0771484375,-65.7533203125,
1749734888.3815763,2025-06-12 20:28:08.381,31.73471710546021,1.2138602416992186,0.09816226806640624,14.314931726074217,25.015267175572518,50.786259541984734,9.541984732824428,6.746484375,50.75390625,-64.5515625,
1749734888.395238,2025-06-12 20:28:08.395,32.357714080330666,-3.0119056884765625,3.208230224609375,12.140996618652343,7.061068702290076,2.618320610687023,-11.366412213740459,7.9892578125,50.5751953125,-63.3498046875,
1749734888.4076045,2025-06-12 20:28:08.407,32.40563692455147,-14.39633458251953,-8.396465222167969,-3.6008792968749996,13.664122137404581,48.50381679389313,-9.534351145038167,8.166796875,53.61328125,-64.208203125,
1749734888.420154,2025-06-12 20:28:08.420,31.543025728576993,1.9728221679687499,-8.63827958984375,8.14028564453125,32.37404580152672,-128.4351145038168,-6.8320610687022905,7.4566406249999995,52.8984375,-63.521484375,
1749734888.4330814,2025-06-12 20:28:08.433,31.01587444214814,7.338228088378906,3.67749375,3.756502404785156,8.0,43.045801526717554,-6.9541984732824424,5.6812499999999995,54.328125,-63.86484375,
1749734888.446732,2025-06-12 20:28:08.446,32.30979123610986,-5.628768103027343,-1.1659762084960936,9.009380847167968,-21.480916030534353,12.267175572519085,13.236641221374045,6.9240234375,53.4345703125,-61.976367187499996,
1749734888.464303,2025-06-12 20:28:08.464,31.20756581903136,10.670956799316405,-1.7310078002929687,12.78743106689453,31.740458015267176,29.625954198473284,14.893129770992367,7.9892578125,52.0048828125,-63.3498046875,
1749734888.4789026,2025-06-12 20:28:08.478,31.782639949681013,-1.6519991455078125,5.078101721191406,6.150704064941406,9.633587786259541,-9.458015267175572,1.5572519083969465,7.9892578125,51.6474609375,-64.3798828125,
1749734888.4933374,2025-06-12 20:28:08.493,31.782639949681013,2.829946362304687,-8.09479581298828,19.546262353515623,8.679389312977099,-37.7557251908397,-5.129770992366412,7.81171875,53.255859375,-64.208203125,
1749734888.5079174,2025-06-12 20:28:08.507,31.01587444214814,-3.9887399658203124,-5.485116003417969,9.581595043945311,3.9389312977099236,61.25954198473283,-24.435114503816795,8.521875,52.541015625,-63.521484375,
1749734888.522307,2025-06-12 20:28:08.522,31.543025728576993,1.9033903198242186,-7.790732202148437,12.543222497558594,-18.129770992366414,-53.74045801526717,11.198473282442748,7.1015625,52.541015625,-64.5515625,
1749734888.5371609,2025-06-12 20:28:08.537,31.063797286368946,-11.02529864501953,-5.442020373535156,15.480907934570311,22.885496183206108,-19.18320610687023,1.8625954198473282,7.6341796875,52.0048828125,-63.693164062499996,82.53228832816883
1749734888.5563307,2025-06-12 20:28:08.556,31.782639949681013,-1.8195932617187498,5.80354482421875,4.687846850585937,2.8931297709923665,30.068702290076335,1.8091603053435115,6.9240234375,53.4345703125,-63.3498046875,82.25033732889588
1749734888.5763054,2025-06-12 20:28:08.576,32.21394554766825,5.142745166015625,-5.145139367675781,19.61270144958496,25.33587786259542,-8.183206106870228,0.015267175572519083,6.39140625,52.18359375,-63.86484375,
1749734888.590806,2025-06-12 20:28:08.590,31.782639949681013,-1.2665326782226562,5.659892724609374,6.519411120605469,-9.206106870229007,-16.229007633587788,2.816793893129771,7.1015625,51.826171875,-63.521484375,
1749734888.6052787,2025-06-12 20:28:08.605,31.063797286368946,8.530540515136718,-0.2346317626953125,6.68461103515625,-10.687022900763358,-22.671755725190838,-4.770992366412214,6.2138671875,53.4345703125,-62.319726562499994,
1749734888.6197,2025-06-12 20:28:08.619,31.83056279390182,-14.135366601562499,-2.346317626953125,1.0678139404296874,13.67175572519084,-47.083969465648856,-7.221374045801527,6.39140625,53.255859375,-64.894921875,
1749734888.6340961,2025-06-12 20:28:08.634,30.96795159792734,-0.4525041137695312,11.724405529785155,10.259154113769531,-6.854961832061068,-3.763358778625954,10.404580152671755,9.23203125,52.8984375,-64.208203125,
1749734888.6486828,2025-06-12 20:28:08.648,30.96795159792734,-8.164227661132813,4.266467358398438,3.287238879394531,-0.46564885496183206,-6.679389312977099,-9.038167938931299,6.39140625,52.18359375,-63.178124999999994,
1749734888.6630244,2025-06-12 20:28:08.663,32.40563692455147,4.697423657226563,0.5865794067382812,18.54009910583496,19.984732824427482,50.152671755725194,13.229007633587786,7.279101562499999,54.1494140625,-63.693164062499996,
1749734888.6773834,2025-06-12 20:28:08.677,31.73471710546021,1.5251064575195312,8.24802471923828,1.8219874633789062,7.183206106870229,-64.25954198473282,-15.114503816793894,5.6812499999999995,54.328125,-64.894921875,
1749734888.6932533,2025-06-12 20:28:08.693,31.782639949681013,3.794809631347656,-9.291896643066405,4.474762902832031,6.969465648854962,-120.22900763358778,-7.99236641221374,7.4566406249999995,51.46875,-63.178124999999994,
1749734888.7078636,2025-06-12 20:28:08.707,31.782639949681013,-5.628768103027343,3.19865341796875,14.427459204101561,-1.5572519083969465,92.74045801526718,-8.404580152671755,6.39140625,51.46875,-62.148046875,
1749734888.722263,2025-06-12 20:28:08.722,31.782639949681013,13.40034669189453,3.294421484375,7.5465236328125,-3.450381679389313,-54.06106870229008,-8.358778625954198,6.39140625,51.46875,-63.521484375,
1749734888.7367105,2025-06-12 20:28:08.736,32.30979123610986,-10.309432348632813,-9.469067565917967,12.310984936523436,13.67175572519084,-67.41984732824427,-3.1908396946564888,6.746484375,51.46875,-62.148046875,
1749734888.7510378,2025-06-12 20:28:08.751,31.782639949681013,-7.589619262695312,7.826645227050781,2.9975404785156248,-15.213740458015268,-20.297709923664122,11.320610687022901,5.6812499999999995,52.541015625,-62.148046875,
1749734888.7653236,2025-06-12 20:28:08.765,30.96795159792734,7.153874560546875,2.6719290527343746,16.78574783935547,-8.34351145038168,19.16030534351145,-12.396946564885496,7.4566406249999995,50.396484375,-63.86484375,
1749734888.7796323,2025-06-12 20:28:08.779,31.590948572797796,3.5236662933349607,-3.414131567382812,3.284844677734375,17.671755725190838,-90.52671755725191,7.732824427480916,7.81171875,51.46875,-65.58164062499999,
1749734888.793882,2025-06-12 20:28:08.793,31.73471710546021,3.871424084472656,3.4955344238281247,-2.5139117431640625,8.213740458015268,-28.419847328244273,-11.122137404580153,7.6341796875,53.0771484375,-65.0666015625,
1749734888.810307,2025-06-12 20:28:08.810,32.30979123610986,-8.951920007324219,-2.935291235351562,3.9432501342773434,21.30534351145038,11.458015267175572,-16.48854961832061,6.39140625,53.255859375,-64.208203125,
1749734888.8249514,2025-06-12 20:28:08.824,32.30979123610986,19.61270144958496,-0.51714755859375,3.919308117675781,17.137404580152673,-17.229007633587788,-3.015267175572519,6.746484375,53.255859375,-64.208203125,
1749734888.8393264,2025-06-12 20:28:08.839,31.782639949681013,-3.385401147460937,5.111620544433594,8.875305554199219,18.244274809160306,30.12213740458015,-5.809160305343512,6.5689453124999995,54.8642578125,-62.319726562499994,
1749734888.853599,2025-06-12 20:28:08.853,31.01587444214814,-0.24660277099609373,-2.858676782226562,11.221623181152344,-8.709923664122137,14.045801526717558,-9.251908396946565,5.6812499999999995,51.46875,-63.178124999999994,
1749734888.8681655,2025-06-12 20:28:08.868,31.974331326564233,0.9265560424804687,-2.1595698974609374,10.259154113769531,7.3816793893129775,14.083969465648854,-3.366412213740458,7.279101562499999,54.8642578125,-63.0064453125,
1749734888.8824134,2025-06-12 20:28:08.882,31.974331326564233,-3.6343981201171873,-0.20350714111328125,13.218387365722656,-7.099236641221374,-45.412213740458014,8.511450381679388,8.166796875,52.18359375,-64.208203125,
1749734888.8967574,2025-06-12 20:28:08.896,32.357714080330666,-3.2345664428710936,6.847416748046874,6.313509777832031,9.114503816793894,-74.6412213740458,-12.17557251908397,5.8587890625,52.0048828125,-63.693164062499996,
1749734888.9121416,2025-06-12 20:28:08.912,31.782639949681013,-9.639055883789062,1.1037269653320312,8.17141026611328,-2.900763358778626,-28.641221374045802,9.893129770992367,6.39140625,53.61328125,-62.834765624999996,
1749734888.9267905,2025-06-12 20:28:08.926,31.782639949681013,-8.827421520996094,0.7158662963867187,16.788142041015625,1.366412213740458,43.52671755725191,-5.67175572519084,6.9240234375,51.6474609375,-64.3798828125,
1749734888.9411,2025-06-12 20:28:08.941,31.83056279390182,11.611878051757811,1.0319009155273438,14.949395166015623,13.694656488549619,27.984732824427482,1.0229007633587786,7.279101562499999,53.4345703125,-63.3498046875,
1749734888.955344,2025-06-12 20:28:08.955,31.6388714170186,-8.379705810546875,3.4644098022460934,2.3918074584960936,-9.053435114503817,-62.20610687022901,2.2213740458015265,7.4566406249999995,54.328125,-63.521484375,
1749734888.9697356,2025-06-12 20:28:08.969,32.40563692455147,-12.744335437011719,-2.04943662109375,19.61270144958496,15.213740458015268,7.99236641221374,0.11450381679389313,8.3443359375,53.0771484375,-63.693164062499996,83.9108069994254
1749734888.987853,2025-06-12 20:28:08.987,32.21394554766825,2.138022082519531,8.84178673095703,12.777854260253905,-1.3129770992366412,81.08396946564885,16.15267175572519,6.2138671875,53.4345703125,-61.6330078125,
1749734889.0018718,2025-06-12 20:28:09.001,31.6388714170186,-6.782773303222656,1.1037269653320312,3.5889082885742187,-6.786259541984733,16.259541984732824,5.6183206106870225,7.1015625,52.18359375,-62.834765624999996,
1749734889.0161502,2025-06-12 20:28:09.016,31.83056279390182,-3.2920272827148436,2.3822306518554686,18.957288745117186,22.916030534351144,32.70229007633588,7.106870229007634,7.81171875,52.18359375,-64.5515625,
1749734889.03204,2025-06-12 20:28:09.032,32.21394554766825,-2.683900061035156,2.729389892578125,6.8593877563476555,0.5648854961832062,-12.65648854961832,3.816793893129771,5.326171875,52.18359375,-62.834765624999996,
1749734889.0464785,2025-06-12 20:28:09.046,32.40563692455147,-18.44971799316406,-5.149927770996094,11.67652149658203,13.17557251908397,60.69465648854962,-4.374045801526718,8.166796875,52.18359375,-63.86484375,
1749734889.0609982,2025-06-12 20:28:09.060,30.96795159792734,8.128314636230469,3.028665100097656,14.106636181640624,9.84732824427481,43.534351145038165,-6.358778625954199,8.3443359375,53.0771484375,-64.72324218749999,
1749734889.0753841,2025-06-12 20:28:09.075,32.40563692455147,-14.092270971679687,-2.906560815429687,1.158793603515625,8.587786259541986,6.870229007633588,-15.595419847328245,7.4566406249999995,51.826171875,-64.208203125,
1749734889.0896857,2025-06-12 20:28:09.089,31.39925719591458,12.447454431152343,-0.22266075439453123,19.364303027343748,30.38167938931298,-14.50381679389313,13.396946564885496,9.0544921875,53.0771484375,-63.0064453125,82.02952403244272
1749734889.108218,2025-06-12 20:28:09.108,31.543025728576993,1.4413093994140624,8.279149340820313,9.943119494628906,0.33587786259541985,42.88549618320611,2.7404580152671754,7.81171875,52.541015625,-63.86484375,
1749734889.122532,2025-06-12 20:28:09.122,31.782639949681013,6.4667386840820305,-2.887407202148437,19.61270144958496,-5.351145038167939,-27.938931297709924,-5.9541984732824424,6.5689453124999995,54.5068359375,-64.0365234375,
1749734889.1378975,2025-06-12 20:28:09.137,31.73471710546021,11.3772462890625,3.88818349609375,6.1459156616210935,18.984732824427482,19.96946564885496,-20.03053435114504,7.1015625,54.685546875,-62.834765624999996,
1749734889.1524858,2025-06-12 20:28:09.152,31.782639949681013,10.958260998535156,-0.47165772705078124,8.128314636230469,2.8091603053435112,74.81679389312977,-5.557251908396947,8.166796875,53.255859375,-63.521484375,
1749734889.166665,2025-06-12 20:28:09.166,31.01587444214814,-6.026205578613281,-5.61200869140625,16.546327673339842,19.358778625954198,0.5267175572519084,-3.83206106870229,6.9240234375,51.2900390625,-63.3498046875,
1749734889.181187,2025-06-12 20:28:09.181,31.782639949681013,-5.195417602539062,-0.0526724365234375,0.33039982910156246,10.381679389312977,-23.14503816793893,-3.33587786259542,7.6341796875,53.0771484375,-62.319726562499994,
1749734889.1955771,2025-06-12 20:28:09.195,30.96795159792734,-11.67652149658203,1.7549498168945312,-1.1324573852539062,-4.6183206106870225,-48.80152671755725,-4.236641221374046,6.39140625,52.541015625,-64.208203125,
1749734889.2098267,2025-06-12 20:28:09.209,32.40563692455147,-8.652644799804687,0.01915361328125,17.386692456054686,44.67175572519084,67.45801526717557,0.15267175572519084,5.8587890625,50.9326171875,-63.693164062499996,
1749734889.2244039,2025-06-12 20:28:09.224,31.73471710546021,12.847286108398437,1.7884686401367187,12.706028210449219,-0.015267175572519083,-10.488549618320612,10.687022900763358,6.39140625,54.685546875,-63.178124999999994,
1749734889.2387824,2025-06-12 20:28:09.238,31.590948572797796,-10.220846887207031,-2.5546131713867184,10.572794531249999,2.900763358778626,-50.29007633587786,-14.16030534351145,7.4566406249999995,52.18359375,-64.894921875,
1749734889.254268,2025-06-12 20:28:09.254,31.73471710546021,4.649539624023437,-2.020706201171875,11.937489477539062,21.0,23.931297709923665,2.564885496183206,7.1015625,53.255859375,-63.178124999999994,
1749734889.2688696,2025-06-12 20:28:09.268,31.73471710546021,-7.838616235351562,-2.8706477905273435,0.4955997436523437,-0.8854961832061069,-60.83206106870229,3.4732824427480917,7.6341796875,52.3623046875,-63.3498046875,
1749734889.283259,2025-06-12 20:28:09.283,31.590948572797796,-16.282965490722656,-4.158728283691406,12.057199560546874,8.618320610687023,-57.541984732824424,-3.2442748091603053,7.1015625,52.541015625,-64.208203125,
1749734889.2975996,2025-06-12 20:28:09.297,31.73471710546021,10.409988818359375,0.086191259765625,6.0525417968749995,23.267175572519083,3.4122137404580153,-9.938931297709924,7.81171875,52.541015625,-64.208203125,
1749734889.311923,2025-06-12 20:28:09.311,32.40563692455147,-17.216704138183594,0.5219359619140624,3.806780639648437,-3.1068702290076335,6.32824427480916,-9.206106870229007,7.9892578125,52.3623046875,-64.3798828125,
1749734889.326218,2025-06-12 20:28:09.326,31.447180040135382,8.322244970703125,-1.5562310791015623,19.61270144958496,13.229007633587786,42.87022900763359,5.511450381679389,7.9892578125,51.6474609375,-63.693164062499996,
1749734889.3407419,2025-06-12 20:28:09.340,32.40563692455147,0.6248866333007812,6.902483386230468,4.939238024902344,0.25190839694656486,-75.98473282442748,8.320610687022901,6.2138671875,53.7919921875,-63.3498046875,82.08198436943056
1749734889.3600004,2025-06-12 20:28:09.360,32.40563692455147,-5.178658190917968,-1.2306196533203124,15.923835241699217,0.5648854961832062,-35.229007633587784,2.4656488549618323,7.6341796875,52.3623046875,-65.0666015625,
1749734889.374489,2025-06-12 20:28:09.374,31.01587444214814,-3.4524387939453125,-2.403778466796875,5.295974072265625,16.328244274809162,48.70229007633588,-3.7786259541984735,6.9240234375,52.0048828125,-64.72324218749999,
1749734889.3890252,2025-06-12 20:28:09.389,31.974331326564233,1.886630908203125,-2.1164742675781247,10.110713610839843,-8.755725190839694,-3.8396946564885495,-3.5114503816793894,7.9892578125,53.4345703125,-63.693164062499996,
1749734889.4033484,2025-06-12 20:28:09.403,32.40563692455147,-8.17141026611328,0.86191259765625,16.87433330078125,12.83206106870229,17.34351145038168,0.8625954198473282,7.81171875,52.541015625,-63.521484375,
1749734889.4176564,2025-06-12 20:28:09.417,31.782639949681013,11.44667813720703,1.37906015625,12.9095353515625,9.396946564885496,-11.511450381679388,-1.9083969465648856,8.166796875,53.255859375,-63.86484375,
1749734889.4319105,2025-06-12 20:28:09.431,31.447180040135382,-11.834538806152343,-0.7924807495117187,0.5363011718749999,-5.229007633587786,-21.15267175572519,-3.969465648854962,8.166796875,51.826171875,-63.521484375,
1749734889.446086,2025-06-12 20:28:09.446,32.21394554766825,-9.296685046386719,4.446032482910156,16.764200024414063,19.50381679389313,44.0,1.7328244274809161,7.1015625,50.75390625,-64.894921875,
1749734889.4603755,2025-06-12 20:28:09.460,32.40563692455147,2.31758720703125,3.1771056030273437,5.870582470703124,-0.9923664122137404,-77.06870229007633,0.37404580152671757,7.4566406249999995,54.685546875,-63.521484375,83.23232494288851
1749734889.4799793,2025-06-12 20:28:09.479,31.73471710546021,-11.566388220214844,-9.011775048828124,19.61270144958496,13.923664122137405,68.21374045801527,-0.2824427480916031,7.279101562499999,50.5751953125,-64.72324218749999,
1749734889.4944255,2025-06-12 20:28:09.494,31.782639949681013,0.08858546142578125,1.3814543579101561,3.5338416503906247,5.320610687022901,-47.68702290076336,-17.3206106870229,6.2138671875,52.0048828125,-63.693164062499996,
1749734889.5088115,2025-06-12 20:28:09.508,31.73471710546021,4.127603662109375,-2.7078420776367187,8.312668164062499,0.183206106870229,62.717557251908396,-8.290076335877863,7.1015625,53.970703125,-64.5515625,
1749734889.5229864,2025-06-12 20:28:09.522,31.590948572797796,8.154650854492187,-6.169857678222656,10.896011755371093,38.282442748091604,4.770992366412214,-13.122137404580153,7.279101562499999,52.3623046875,-64.0365234375,
1749734889.537181,2025-06-12 20:28:09.537,31.590948572797796,2.1835119140624997,10.874463940429687,8.671798413085938,-4.297709923664122,35.19083969465649,4.847328244274809,6.5689453124999995,53.0771484375,-64.0365234375,
1749734889.5515847,2025-06-12 20:28:09.551,31.543025728576993,-8.303091357421874,-3.2058360229492187,12.567164514160156,-4.480916030534351,-90.16793893129771,1.1068702290076335,7.81171875,52.18359375,-64.5515625,
1749734889.5657732,2025-06-12 20:28:09.565,31.782639949681013,-8.372523205566406,-2.0350714111328125,14.911087939453123,9.954198473282442,130.4351145038168,13.923664122137405,6.39140625,52.18359375,-64.5515625,
1749734889.5801406,2025-06-12 20:28:09.580,32.357714080330666,-1.4125789794921875,2.901772412109375,4.582501977539062,5.473282442748092,-4.450381679389313,2.33587786259542,7.4566406249999995,53.970703125,-63.521484375,
1749734889.5956476,2025-06-12 20:28:09.595,32.40563692455147,5.427655163574219,0.5027823486328125,19.61270144958496,34.02290076335878,85.3969465648855,2.0839694656488548,7.4566406249999995,52.18359375,-65.58164062499999,
1749734889.6101058,2025-06-12 20:28:09.610,32.16602270344745,-2.4971523315429685,4.6998178588867185,0.28969840087890625,7.748091603053435,-33.32824427480916,-0.21374045801526717,7.9892578125,52.0048828125,-64.0365234375,
1749734889.6243923,2025-06-12 20:28:09.624,31.73471710546021,-10.230423693847655,1.24498486328125,6.947973217773437,3.6106870229007635,0.9236641221374046,-4.229007633587786,8.166796875,51.826171875,-62.49140625,
1749734889.6389942,2025-06-12 20:28:09.638,32.21394554766825,5.082890124511718,-5.849034655761718,14.659696765136719,20.748091603053435,16.17557251908397,-4.977099236641221,7.1015625,52.541015625,-63.178124999999994,
1749734889.6536572,2025-06-12 20:28:09.653,31.782639949681013,1.9536685546875,7.055712292480468,8.197746484375,-0.5190839694656488,2.2213740458015265,-3.2748091603053435,7.9892578125,52.7197265625,-64.3798828125,
1749734889.6681986,2025-06-12 20:28:09.668,31.73471710546021,10.024522351074218,2.1619640991210938,19.61270144958496,-0.6412213740458015,30.83969465648855,-12.534351145038167,6.746484375,51.826171875,-64.208203125,
1749734889.6824615,2025-06-12 20:28:09.682,30.96795159792734,13.524845178222655,-1.3479355346679687,11.456254943847656,1.0763358778625953,-72.26717557251908,-7.198473282442748,6.39140625,52.18359375,-63.178124999999994,
1749734889.6976206,2025-06-12 20:28:09.697,31.159642974810556,-14.410699792480468,0.30885201416015623,-7.697358337402343,-5.427480916030534,-70.13740458015268,-4.1603053435114505,7.9892578125,51.2900390625,-64.72324218749999,
1749734889.7119546,2025-06-12 20:28:09.711,31.782639949681013,-5.719747766113281,-2.7748797241210936,15.559916589355467,23.259541984732824,65.83206106870229,-0.16030534351145037,6.9240234375,52.0048828125,-65.0666015625,
1749734889.7261474,2025-06-12 20:28:09.726,31.447180040135382,-11.274295617675781,3.8379052612304685,5.386953735351562,10.427480916030534,4.183206106870229,-7.015267175572519,6.39140625,52.541015625,-62.49140625,
1749734889.7404296,2025-06-12 20:28:09.740,31.01587444214814,-13.922282653808592,3.81156904296875,2.231395947265625,9.068702290076336,13.13740458015267,-8.854961832061068,8.3443359375,53.0771484375,-65.7533203125,
1749734889.7546694,2025-06-12 20:28:09.754,30.96795159792734,0.277727392578125,-9.457096557617186,13.33031629333496,15.34351145038168,-106.31297709923665,8.16030534351145,7.9892578125,52.0048828125,-63.693164062499996,
1749734889.7690036,2025-06-12 20:28:09.769,31.782639949681013,-19.6133,4.675875842285156,-6.782773303222656,24.412213740458014,-31.48854961832061,7.358778625954199,7.9892578125,52.7197265625,-63.693164062499996,
1749734889.7833483,2025-06-12 20:28:09.783,32.357714080330666,10.036493359375,2.1883003173828124,15.768212133789062,-6.580152671755725,17.022900763358777,1.6030534351145038,5.8587890625,53.4345703125,-64.72324218749999,
1749734889.7977195,2025-06-12 20:28:09.797,31.73471710546021,-0.9265560424804687,-1.7094599853515624,10.960655200195312,19.610687022900763,23.66412213740458,-4.0,7.81171875,52.8984375,-61.461328124999994,
1749734889.8130064,2025-06-12 20:28:09.813,31.6388714170186,-4.651933825683593,5.856217260742187,4.637568615722656,-1.7557251908396947,2.969465648854962,1.7251908396946565,7.9892578125,53.7919921875,-64.0365234375,82.41613955812689
1749734889.8313892,2025-06-12 20:28:09.831,31.73471710546021,-8.40125362548828,-4.369418029785156,19.54865655517578,29.366412213740457,74.37404580152672,3.8931297709923665,8.166796875,50.396484375,-64.208203125,
1749734889.8457353,2025-06-12 20:28:09.845,31.782639949681013,2.952050646972656,4.11802685546875,6.902483386230468,-5.175572519083969,-26.396946564885496,1.5801526717557253,5.8587890625,53.0771484375,-63.693164062499996,
1749734889.8601503,2025-06-12 20:28:09.860,31.543025728576993,-13.029245434570312,0.9313444458007812,1.2641384765625,3.7404580152671754,-69.67175572519083,-5.076335877862595,6.9240234375,52.7197265625,-63.3498046875,
1749734889.8744097,2025-06-12 20:28:09.874,31.590948572797796,-5.0014872680664055,-4.295197778320312,17.774553125,11.061068702290076,-47.56488549618321,8.183206106870228,6.746484375,51.46875,-64.5515625,
1749734889.8886032,2025-06-12 20:28:09.888,31.83056279390182,4.398148449707031,6.5768719604492185,16.826449267578123,11.595419847328245,112.70229007633588,-6.511450381679389,6.5689453124999995,53.7919921875,-63.3498046875,
1749734889.903096,2025-06-12 20:28:09.903,31.73471710546021,8.59278975830078,-0.2059013427734375,7.517793212890624,3.8931297709923665,18.748091603053435,-9.908396946564885,6.2138671875,53.4345703125,-64.72324218749999,82.14955972942806
1749734889.9223192,2025-06-12 20:28:09.922,30.96795159792734,8.281543542480469,-4.802768530273437,-3.1268273681640624,32.221374045801525,-22.061068702290076,-14.251908396946565,7.6341796875,54.5068359375,-63.3498046875,
1749734889.9370046,2025-06-12 20:28:09.937,31.590948572797796,-5.97592734375,1.139639990234375,7.594407666015624,-9.717557251908397,28.69465648854962,-1.0076335877862594,7.4566406249999995,51.826171875,-64.5515625,
1749734889.9513135,2025-06-12 20:28:09.951,31.73471710546021,1.4317325927734375,-3.864241479492187,19.61270144958496,5.366412213740458,-28.610687022900763,7.6183206106870225,6.2138671875,52.7197265625,-63.693164062499996,
1749734889.965625,2025-06-12 20:28:09.965,32.30979123610986,1.4437036010742186,6.756437084960937,0.6607996582031249,10.213740458015268,-67.40458015267176,-10.007633587786259,9.0544921875,52.3623046875,-65.0666015625,
1749734889.9798925,2025-06-12 20:28:09.979,31.6388714170186,6.581660363769531,0.6177040283203125,13.883975427246092,8.885496183206106,108.03053435114504,-16.404580152671755,7.81171875,51.826171875,-64.5515625,
1749734889.9940925,2025-06-12 20:28:09.994,32.16602270344745,-19.610905798339843,-7.46272657470703,14.844050292968749,10.679389312977099,-17.3206106870229,4.526717557251908,4.7935546874999995,52.0048828125,-63.3498046875,
1749734890.0085163,2025-06-12 20:28:10.008,32.30979123610986,-10.065223779296874,8.219294299316406,3.69664736328125,-31.519083969465647,-50.93893129770992,11.381679389312977,6.2138671875,53.0771484375,-63.3498046875,
1749734890.022706,2025-06-12 20:28:10.022,32.21394554766825,-16.891092712402344,-8.200140686035155,6.766013891601562,3.213740458015267,-64.97709923664122,-2.2290076335877864,6.9240234375,53.4345703125,-64.3798828125,
1749734890.0378585,2025-06-12 20:28:10.037,31.01587444214814,0.1388636962890625,4.374206433105469,10.620678564453124,14.061068702290076,7.7251908396946565,6.687022900763359,7.81171875,52.18359375,-63.178124999999994,
1749734890.052173,2025-06-12 20:28:10.052,31.73471710546021,-0.7110778930664062,2.7054478759765623,2.91134921875,-1.7404580152671756,10.282442748091603,-5.1679389312977095,7.81171875,53.970703125,-64.208203125,
1749734890.0666661,2025-06-12 20:28:10.066,31.73471710546021,7.575254052734374,-2.8562825805664063,18.423381774902342,15.786259541984732,-68.16030534351145,2.404580152671756,6.746484375,50.75390625,-63.521484375,
1749734890.0813236,2025-06-12 20:28:10.081,31.73471710546021,-7.213729602050781,6.900089184570312,13.283030810546874,-20.17557251908397,138.4885496183206,1.6870229007633588,6.5689453124999995,54.5068359375,-63.0064453125,
1749734890.095672,2025-06-12 20:28:10.095,31.6388714170186,19.09615244140625,-3.9791631591796874,16.85458113708496,-30.374045801526716,10.106870229007633,6.969465648854962,6.036328125,52.541015625,-63.86484375,
1749734890.1099987,2025-06-12 20:28:10.109,31.73471710546021,-6.155492468261718,3.6559459350585937,0.10773907470703124,12.083969465648854,-93.3969465648855,-9.977099236641221,7.1015625,52.541015625,-63.86484375,
1749734890.1244586,2025-06-12 20:28:10.124,30.96795159792734,0.9169792358398436,3.835511059570312,11.927912670898436,-5.877862595419847,-6.847328244274809,5.984732824427481,6.746484375,54.328125,-63.86484375,83.36690873796792
1749734890.143532,2025-06-12 20:28:10.143,31.782639949681013,-3.1866824096679687,-2.3678654418945313,19.500772521972657,15.290076335877863,-60.282442748091604,12.740458015267176,7.81171875,52.18359375,-64.5515625,
1749734890.1578753,2025-06-12 20:28:10.157,31.6388714170186,-0.08379705810546874,-5.7125651611328125,8.607154968261717,-4.6183206106870225,72.83969465648855,7.648854961832061,7.4566406249999995,51.46875,-63.178124999999994,
1749734890.1721013,2025-06-12 20:28:10.172,31.73471710546021,-12.638990563964843,-4.742913488769531,1.8914193115234375,9.748091603053435,35.458015267175576,-10.740458015267176,7.1015625,53.255859375,-62.49140625,
1749734890.1862853,2025-06-12 20:28:10.186,32.30979123610986,6.047753393554687,-4.912901806640625,15.01583426208496,19.358778625954198,49.56488549618321,4.33587786259542,6.746484375,52.18359375,-65.23828125,
1749734890.2008061,2025-06-12 20:28:10.200,32.30979123610986,-1.3551181396484375,3.447650390625,2.9735984619140625,0.6717557251908397,-86.2442748091603,1.4198473282442747,6.5689453124999995,54.8642578125,-63.3498046875,
1749734890.2141888,2025-06-12 20:28:10.214,31.782639949681013,-5.667075329589843,1.5705962890624998,5.6311623046875,7.786259541984733,8.32824427480916,-2.480916030534351,6.2138671875,51.2900390625,-64.72324218749999,
1749734890.22739,2025-06-12 20:28:10.227,31.83056279390182,0.6009446166992187,-8.049305981445311,19.577386975097657,27.068702290076335,46.847328244274806,3.66412213740458,7.6341796875,52.3623046875,-62.6630859375,
1749734890.2404313,2025-06-12 20:28:10.240,31.782639949681013,5.963956335449218,-4.65432802734375,10.098742602539062,-5.572519083969466,-65.02290076335878,22.908396946564885,6.5689453124999995,53.0771484375,-64.0365234375,
1749734890.2535067,2025-06-12 20:28:10.253,32.21394554766825,-17.60217060546875,0.16998831787109375,5.949591125488281,-0.22900763358778625,-8.122137404580153,-9.19083969465649,5.326171875,53.970703125,-64.208203125,
1749734890.267791,2025-06-12 20:28:10.267,31.6388714170186,16.670826159667968,-0.6392518432617187,13.79000301208496,17.068702290076335,-100.46564885496183,10.450381679389313,6.5689453124999995,51.2900390625,-65.0666015625,
1749734890.2812448,2025-06-12 20:28:10.281,31.926408482343426,-12.643778967285156,3.5601778686523438,9.3086560546875,9.045801526717558,47.786259541984734,5.5038167938931295,7.81171875,53.61328125,-64.208203125,
1749734890.2942693,2025-06-12 20:28:10.294,31.782639949681013,-14.180856433105468,-0.5961562133789062,-2.492363928222656,1.6106870229007633,42.97709923664122,-6.404580152671755,5.8587890625,54.1494140625,-64.0365234375,
1749734890.307137,2025-06-12 20:28:10.307,31.782639949681013,2.636016027832031,-1.9105729248046874,17.00781004333496,26.763358778625953,-80.72519083969466,13.50381679389313,8.166796875,50.75390625,-64.208203125,
1749734890.32037,2025-06-12 20:28:10.320,31.782639949681013,4.414907861328125,2.674323254394531,7.752424975585937,28.938931297709924,52.25190839694657,11.114503816793894,8.166796875,52.18359375,-62.834765624999996,
1749734890.3331418,2025-06-12 20:28:10.333,31.782639949681013,0.3064578125,2.6384102294921874,5.267243652343749,-5.809160305343512,23.404580152671755,0.366412213740458,7.1015625,52.8984375,-65.58164062499999,
1749734890.3458972,2025-06-12 20:28:10.345,31.063797286368946,-1.9871873779296874,-4.453215087890625,15.770606335449218,8.938931297709924,-66.1526717557252,7.183206106870229,7.6341796875,51.2900390625,-65.0666015625,
1749734890.3587854,2025-06-12 20:28:10.358,30.96795159792734,8.93755479736328,0.9337386474609375,13.283030810546874,3.732824427480916,66.47328244274809,-2.5419847328244276,7.6341796875,52.7197265625,-63.3498046875,
1749734890.3729784,2025-06-12 20:28:10.372,30.96795159792734,1.6735469604492186,-6.8785413696289055,1.7501614135742187,1.3511450381679388,-12.34351145038168,-6.267175572519084,6.5689453124999995,54.1494140625,-64.3798828125,
1749734890.3862023,2025-06-12 20:28:10.386,31.782639949681013,14.595053320312498,-7.829039428710937,19.61270144958496,22.282442748091604,-24.923664122137403,19.03053435114504,5.6812499999999995,51.46875,-62.834765624999996,
1749734890.3992417,2025-06-12 20:28:10.399,31.83056279390182,-1.158793603515625,12.69166300048828,12.713210815429687,5.236641221374046,85.21374045801527,3.618320610687023,6.39140625,53.61328125,-62.834765624999996,
1749734890.412096,2025-06-12 20:28:10.412,30.96795159792734,-7.860164050292968,1.0893617553710937,2.808398547363281,-9.0,-53.51908396946565,-11.717557251908397,7.279101562499999,51.2900390625,-65.0666015625,
1749734890.425011,2025-06-12 20:28:10.425,32.40563692455147,8.765172277832031,-2.109291662597656,18.693328012084958,7.748091603053435,-69.40458015267176,10.664122137404581,6.2138671875,53.0771484375,-63.693164062499996,
1749734890.4379034,2025-06-12 20:28:10.437,32.30979123610986,2.1260510742187497,4.027047192382812,5.6383449096679685,9.732824427480915,8.51908396946565,5.0534351145038165,7.6341796875,53.0771484375,-64.0365234375,
1749734890.4506497,2025-06-12 20:28:10.450,32.40563692455147,-4.120421057128906,2.7437551025390623,4.73094248046875,0.6106870229007634,34.61068702290076,-11.045801526717558,7.279101562499999,53.0771484375,-65.4099609375,
1749734890.4642684,2025-06-12 20:28:10.464,31.73471710546021,-5.073313317871094,0.24181436767578124,15.844826586914062,18.221374045801525,-30.740458015267176,5.458015267175573,5.6812499999999995,53.61328125,-63.521484375,84.28878271866971
1749734890.4847093,2025-06-12 20:28:10.484,31.782639949681013,-1.1947066284179686,-1.656787548828125,5.801150622558594,-6.465648854961832,26.3206106870229,-3.717557251908397,9.23203125,52.541015625,-63.86484375,
1749734890.4988623,2025-06-12 20:28:10.498,31.590948572797796,8.386888415527343,8.678981018066406,19.61270144958496,5.732824427480916,-35.54961832061068,5.679389312977099,6.746484375,52.8984375,-63.178124999999994,
1749734890.5126739,2025-06-12 20:28:10.512,32.357714080330666,-15.061922644042967,8.815450512695312,6.720524060058593,8.67175572519084,-12.664122137404581,-2.1068702290076335,6.2138671875,51.6474609375,-65.0666015625,
1749734890.5263956,2025-06-12 20:28:10.526,31.926408482343426,-0.1005564697265625,-2.3630770385742186,9.612719665527344,-11.564885496183207,35.2442748091603,3.030534351145038,7.1015625,52.541015625,-64.5515625,
1749734890.539438,2025-06-12 20:28:10.539,31.447180040135382,-14.197615844726561,-3.1004911499023438,19.574992773437497,23.099236641221374,-32.44274809160305,22.65648854961832,8.3443359375,51.2900390625,-63.693164062499996,
1749734890.552715,2025-06-12 20:28:10.552,31.73471710546021,4.367023828124999,11.781866369628906,9.267954626464844,-8.977099236641221,91.14503816793894,0.7633587786259542,6.39140625,53.61328125,-62.834765624999996,
1749734890.5656414,2025-06-12 20:28:10.565,30.96795159792734,-11.93270107421875,0.7852981445312499,0.679953271484375,1.9083969465648856,-52.954198473282446,-12.80916030534351,7.1015625,51.46875,-62.834765624999996,
1749734890.579317,2025-06-12 20:28:10.579,31.83056279390182,10.967837805175781,-2.4109610717773435,19.61270144958496,29.045801526717558,-3.6564885496183206,8.0,6.746484375,51.46875,-62.834765624999996,
1749734890.5948682,2025-06-12 20:28:10.594,31.926408482343426,-8.67658681640625,4.486733911132812,5.197811804199218,7.732824427480916,52.282442748091604,-4.442748091603053,7.279101562499999,53.0771484375,-64.0365234375,
1749734890.6088781,2025-06-12 20:28:10.608,32.40563692455147,6.030993981933594,-6.461950280761719,16.551116076660154,-8.572519083969466,-48.42748091603053,-6.656488549618321,7.6341796875,52.3623046875,-63.693164062499996,
1749734890.6224716,2025-06-12 20:28:10.622,30.96795159792734,9.634267480468749,1.2018892333984375,9.765948571777344,27.198473282442748,-54.85496183206107,-18.564885496183205,6.39140625,51.46875,-61.461328124999994,
1749734890.6364305,2025-06-12 20:28:10.636,31.6388714170186,-3.5027170288085934,0.21308394775390624,4.910507604980468,13.099236641221374,1.9083969465648856,-9.65648854961832,8.521875,53.255859375,-64.208203125,
1749734890.650033,2025-06-12 20:28:10.650,31.83056279390182,-5.856217260742187,-5.250484240722656,12.112266198730469,4.137404580152672,-29.137404580152673,-9.32824427480916,6.9240234375,51.6474609375,-64.72324218749999,
1749734890.6636224,2025-06-12 20:28:10.663,31.974331326564233,-9.188945971679686,-1.1851298217773436,8.12113203125,9.17557251908397,-52.64885496183206,4.877862595419847,5.5037109375,52.3623046875,-64.72324218749999,
1749734890.6777232,2025-06-12 20:28:10.677,31.974331326564233,-5.099649536132812,6.100425830078125,7.510610607910156,6.068702290076335,48.87022900763359,0.061068702290076333,6.5689453124999995,52.3623046875,-65.0666015625,81.06557407401232
1749734890.69428,2025-06-12 20:28:10.694,31.73471710546021,-13.872004418945311,-2.3343466186523436,18.933346728515623,27.17557251908397,72.14503816793894,-0.8244274809160306,6.746484375,52.8984375,-64.5515625,
1749734890.7085607,2025-06-12 20:28:10.708,31.782639949681013,14.30056651611328,3.737348791503906,7.544129431152343,6.702290076335878,-53.900763358778626,4.770992366412214,6.036328125,50.75390625,-64.5515625,
1749734890.7221096,2025-06-12 20:28:10.722,31.01587444214814,0.32082302246093747,0.8834604125976562,2.8730419921875,-4.1603053435114505,18.47328244274809,-8.412213740458014,6.746484375,52.8984375,-65.58164062499999,
1749734890.735129,2025-06-12 20:28:10.735,31.6388714170186,0.23223756103515625,-2.4061726684570313,17.85835018310547,14.610687022900763,-34.908396946564885,2.687022900763359,6.2138671875,52.0048828125,-64.72324218749999,
1749734890.7480638,2025-06-12 20:28:10.748,31.782639949681013,6.291961962890625,0.09337386474609374,1.7477672119140624,10.679389312977099,-55.83206106870229,-4.068702290076335,7.4566406249999995,52.541015625,-65.23828125,
1749734890.7609155,2025-06-12 20:28:10.760,31.01587444214814,-5.145139367675781,-3.5577836669921874,0.14125789794921875,10.633587786259541,-41.83206106870229,-7.885496183206107,7.4566406249999995,52.18359375,-64.208203125,
1749734890.7744327,2025-06-12 20:28:10.774,32.30979123610986,0.30406361083984373,-8.073247998046874,18.478448413085935,27.106870229007633,-24.282442748091604,-2.618320610687023,7.1015625,51.826171875,-63.521484375,
1749734890.788552,2025-06-12 20:28:10.788,31.6388714170186,-19.500772521972657,4.709394665527343,2.6144682128906247,2.687022900763359,10.748091603053435,0.5190839694656488,6.5689453124999995,52.3623046875,-63.0064453125,
1749734890.8022962,2025-06-12 20:28:10.802,31.063797286368946,19.61270144958496,2.7533319091796873,19.61270144958496,-11.946564885496183,-8.854961832061068,-1.465648854961832,7.81171875,51.826171875,-65.23828125,
1749734890.8170938,2025-06-12 20:28:10.817,32.357714080330666,5.834669445800781,2.2457611572265623,12.217611071777343,20.412213740458014,19.27480916030534,0.26717557251908397,6.9240234375,52.7197265625,-64.72324218749999,
1749734890.8310585,2025-06-12 20:28:10.831,32.21394554766825,-6.777984899902344,6.890512377929687,5.092466931152344,4.9465648854961835,13.80916030534351,4.923664122137405,6.5689453124999995,52.0048828125,-63.0064453125,
1749734890.844995,2025-06-12 20:28:10.844,32.30979123610986,15.595829614257811,1.0941501586914062,12.334926953124999,1.0305343511450382,19.442748091603054,-10.977099236641221,6.2138671875,52.3623046875,-65.0666015625,
1749734890.8585987,2025-06-12 20:28:10.858,32.357714080330666,-11.549628808593749,6.6510922119140625,9.955090502929687,26.48854961832061,-37.82442748091603,-2.786259541984733,7.6341796875,51.6474609375,-62.6630859375,
1749734890.872223,2025-06-12 20:28:10.872,30.96795159792734,-4.6064439941406246,3.0071172851562498,3.6080619018554687,7.687022900763359,-18.00763358778626,-3.954198473282443,7.4566406249999995,54.685546875,-64.208203125,
1749734890.8863392,2025-06-12 20:28:10.886,31.447180040135382,-3.651157531738281,-3.3710359375,12.102689392089843,6.091603053435114,-25.061068702290076,-1.7099236641221374,7.4566406249999995,51.111328125,-64.894921875,
1749734890.9001954,2025-06-12 20:28:10.900,31.73471710546021,5.051765502929687,3.5003228271484375,12.9095353515625,11.15267175572519,23.564885496183205,2.6412213740458017,7.9892578125,51.6474609375,-63.693164062499996,
1749734890.9137602,2025-06-12 20:28:10.913,31.782639949681013,-7.000645654296875,3.0454245117187497,-3.294421484375,2.519083969465649,-39.89312977099237,0.16793893129770993,7.279101562499999,52.7197265625,-64.0365234375,
1749734890.927335,2025-06-12 20:28:10.927,32.21394554766825,-19.6133,-12.794613671875,2.379836450195312,22.671755725190838,25.366412213740457,15.770992366412214,7.6341796875,53.4345703125,-64.72324218749999,
1749734890.9426808,2025-06-12 20:28:10.942,30.96795159792734,2.6910826660156246,2.6096798095703124,11.597512841796874,12.770992366412214,39.847328244274806,-7.633587786259542,,,,82.56761857929162
1749734890.955916,2025-06-12 20:28:10.955,31.6388714170186,-15.84003818359375,3.201047619628906,-0.9959878906249999,-19.709923664122137,13.335877862595419,-10.061068702290076,6.9240234375,52.3623046875,-64.72324218749999,
1749734890.969339,2025-06-12 20:28:10.969,31.73471710546021,0.47644613037109373,-10.043675964355469,19.61270144958496,-13.32824427480916,-107.61068702290076,17.885496183206108,8.166796875,53.255859375,-65.23828125,
1749734890.9829733,2025-06-12 20:28:10.982,31.73471710546021,-7.268796240234375,7.592013464355468,0.7829039428710937,-3.7557251908396947,-28.267175572519083,-11.702290076335878,7.4566406249999995,53.970703125,-62.834765624999996,
1749734890.996736,2025-06-12 20:28:10.996,32.40563692455147,10.998962426757812,1.6448165405273436,17.271770776367187,-13.557251908396946,27.48854961832061,-9.17557251908397,8.876953125,53.970703125,-64.894921875,
1749734891.0102174,2025-06-12 20:28:11.010,31.01587444214814,-18.344373120117186,-3.421314172363281,2.770091320800781,31.18320610687023,-44.38931297709924,0.40458015267175573,7.6341796875,53.0771484375,-62.6630859375,
1749734891.0238762,2025-06-12 20:28:11.023,31.73471710546021,12.689268798828124,13.306972827148437,4.8889597900390624,9.86259541984733,67.6793893129771,-1.916030534351145,6.746484375,53.255859375,-63.521484375,
1749734891.0373063,2025-06-12 20:28:11.037,31.063797286368946,-3.766079211425781,-5.896918688964844,14.451401220703124,14.374045801526718,-88.2442748091603,-7.33587786259542,8.3443359375,53.7919921875,-65.4099609375,
1749734891.0517635,2025-06-12 20:28:11.051,31.6388714170186,3.9695863525390624,-1.2569558715820313,10.110713610839843,8.801526717557252,94.35114503816794,9.251908396946565,7.279101562499999,52.7197265625,-63.0064453125,
1749734891.065047,2025-06-12 20:28:11.065,31.782639949681013,-2.3439234252929686,1.6160861206054686,7.577648254394531,-16.69465648854962,-76.51908396946565,8.786259541984732,7.1015625,53.970703125,-63.521484375,
1749734891.0782306,2025-06-12 20:28:11.078,31.73471710546021,-0.031124621582031248,-9.890447058105469,19.61270144958496,-2.1068702290076335,-21.442748091603054,20.50381679389313,6.5689453124999995,52.7197265625,-63.0064453125,
1749734891.091104,2025-06-12 20:28:11.091,31.782639949681013,-0.5123591552734374,5.078101721191406,4.6064439941406246,22.061068702290076,-0.6946564885496184,11.114503816793894,6.9240234375,50.2177734375,-64.3798828125,
1749734891.1040444,2025-06-12 20:28:11.104,31.01587444214814,-14.008473913574218,2.8012159423828122,2.454056701660156,-16.30534351145038,-104.94656488549619,0.7022900763358778,7.6341796875,52.3623046875,-64.72324218749999,
1749734891.1168635,2025-06-12 20:28:11.116,31.926408482343426,-2.2553379638671873,-4.378994836425781,15.859191796874999,2.969465648854962,47.33587786259542,-12.427480916030534,6.39140625,51.826171875,-65.925,
1749734891.1295958,2025-06-12 20:28:11.129,31.20756581903136,-14.449007019042968,-1.0342951171875,11.197681164550781,26.35114503816794,53.51908396946565,17.480916030534353,6.746484375,52.8984375,-63.86484375,
1749734891.1423895,2025-06-12 20:28:11.142,31.063797286368946,6.210559106445312,2.1906945190429687,9.540893615722656,-15.091603053435115,-59.35114503816794,8.236641221374045,5.5037109375,52.7197265625,-63.3498046875,
1749734891.1564791,2025-06-12 20:28:11.156,31.73471710546021,-10.04846436767578,-5.372588525390625,8.908824377441405,17.206106870229007,-11.83969465648855,-1.183206106870229,6.036328125,52.541015625,-63.178124999999994,
1749734891.169685,2025-06-12 20:28:11.169,31.73471710546021,3.1292215698242187,-5.341463903808593,8.643067993164061,31.984732824427482,52.908396946564885,-2.0839694656488548,6.9240234375,50.9326171875,-62.6630859375,
1749734891.1825361,2025-06-12 20:28:11.182,31.063797286368946,-3.5386300537109374,11.180921752929686,-5.530605834960937,0.33587786259541985,-95.97709923664122,2.404580152671756,7.6341796875,54.1494140625,-63.3498046875,
1749734891.195619,2025-06-12 20:28:11.195,32.40563692455147,-0.3064578125,1.1563994018554686,15.380351464843748,-4.9541984732824424,-22.396946564885496,-17.0,6.746484375,51.46875,-64.208203125,
1749734891.208566,2025-06-12 20:28:11.208,31.782639949681013,-2.7198130859375,-0.00718260498046875,7.3932947265625,21.15267175572519,2.099236641221374,4.206106870229007,7.279101562499999,52.7197265625,-64.3798828125,
1749734891.2217116,2025-06-12 20:28:11.221,30.96795159792734,0.51714755859375,4.762067102050781,2.123656872558594,1.3435114503816794,13.0,0.25190839694656486,5.6812499999999995,52.541015625,-63.178124999999994,
1749734891.2353792,2025-06-12 20:28:11.235,31.063797286368946,2.7940333374023436,-3.9528269409179684,19.512743530273436,11.51908396946565,43.6793893129771,-7.366412213740458,8.3443359375,52.3623046875,-64.0365234375,
1749734891.2489696,2025-06-12 20:28:11.248,31.01587444214814,13.273454003906249,-8.877699755859375,9.074024291992187,11.106870229007633,-36.29007633587786,-13.358778625954198,7.1015625,52.8984375,-62.49140625,
1749734891.2621253,2025-06-12 20:28:11.262,32.357714080330666,-12.258312499999999,2.300827795410156,2.1691467041015624,11.458015267175572,26.763358778625953,-12.213740458015268,6.036328125,54.328125,-63.178124999999994,
1749734891.276262,2025-06-12 20:28:11.276,31.590948572797796,0.5243301635742187,-10.881646545410156,8.073247998046874,2.4198473282442747,-87.14503816793894,-14.335877862595419,6.5689453124999995,52.0048828125,-66.0966796875,
1749734891.2895093,2025-06-12 20:28:11.289,31.73471710546021,-2.932897033691406,3.1124621582031247,10.156203442382813,21.793893129770993,9.305343511450381,-7.564885496183206,7.1015625,53.61328125,-62.49140625,
1749734891.3024514,2025-06-12 20:28:11.302,31.83056279390182,-5.1331683593749995,1.8650830932617186,0.033518823242187495,-11.259541984732824,-52.38167938931298,0.19083969465648856,5.5037109375,52.3623046875,-63.693164062499996,
1749734891.315257,2025-06-12 20:28:11.315,31.01587444214814,5.166687182617188,-3.0358477050781247,19.584569580078124,19.641221374045802,24.267175572519083,-1.297709923664122,7.279101562499999,50.5751953125,-64.0365234375,
1749734891.3280385,2025-06-12 20:28:11.328,31.73471710546021,-4.067748620605468,-2.3774422485351563,6.969521032714844,12.870229007633588,60.38931297709924,6.259541984732825,7.6341796875,52.0048828125,-63.0064453125,
1749734891.3407662,2025-06-12 20:28:11.340,31.782639949681013,1.4173673828125,0.7757213378906249,3.5865140869140624,2.267175572519084,-34.045801526717554,8.34351145038168,6.39140625,52.8984375,-64.5515625,82.35381521688778
1749734891.3571749,2025-06-12 20:28:11.357,31.543025728576993,4.127603662109375,1.6519991455078125,19.61270144958496,3.053435114503817,-4.152671755725191,9.076335877862595,6.39140625,52.541015625,-64.894921875,
1749734891.3699722,2025-06-12 20:28:11.369,32.357714080330666,0.36631285400390623,11.853692419433592,0.33039982910156246,18.35114503816794,-46.37404580152672,-10.17557251908397,8.876953125,52.8984375,-63.521484375,
1749734891.3846357,2025-06-12 20:28:11.384,31.974331326564233,-3.5003228271484375,0.5123591552734374,7.52737001953125,-0.5954198473282443,58.916030534351144,-10.106870229007633,7.81171875,52.18359375,-63.86484375,
1749734891.398085,2025-06-12 20:28:11.398,31.6388714170186,-1.2689268798828124,-0.8643067993164062,19.61270144958496,21.412213740458014,2.282442748091603,-3.877862595419847,8.521875,52.541015625,-64.5515625,
1749734891.410992,2025-06-12 20:28:11.410,31.590948572797796,8.111555224609374,10.510545288085936,12.339715356445312,-6.4961832061068705,46.69465648854962,-3.5419847328244276,7.279101562499999,54.1494140625,-63.0064453125,
1749734891.4237258,2025-06-12 20:28:11.423,31.926408482343426,4.2688615600585935,-4.80755693359375,12.550405102539061,-9.801526717557252,-98.57251908396947,7.015267175572519,6.9240234375,52.7197265625,-64.3798828125,
1749734891.4364657,2025-06-12 20:28:11.436,31.926408482343426,-1.7357962036132812,-5.058948107910156,19.61270144958496,29.641221374045802,64.80916030534351,-3.6030534351145036,7.6341796875,51.6474609375,-63.693164062499996,
1749734891.4491894,2025-06-12 20:28:11.449,32.40563692455147,-14.118607189941406,8.25520732421875,3.6463691284179687,-7.0,44.51145038167939,-5.419847328244275,8.3443359375,53.7919921875,-64.0365234375,
1749734891.4619315,2025-06-12 20:28:11.461,31.73471710546021,-7.168239770507812,-0.1867477294921875,4.237736938476562,11.320610687022901,-2.3969465648854964,-9.0,6.2138671875,52.7197265625,-65.0666015625,
1749734891.4746296,2025-06-12 20:28:11.474,31.73471710546021,5.4707507934570305,-2.2768857788085937,19.594146386718748,28.80916030534351,-29.65648854961832,7.6183206106870225,,,,
1749734891.4838998,2025-06-12 20:28:11.483,31.73471710546021,-7.742848168945312,1.1731588134765625,0.13407529296874998,12.916030534351146,13.17557251908397,-1.366412213740458,7.81171875,52.18359375,-63.86484375,
1749734891.4981833,2025-06-12 20:28:11.498,32.40563692455147,-10.280701928710936,6.402095239257812,8.508992700195313,-10.641221374045802,60.79389312977099,-13.786259541984732,6.39140625,52.18359375,-64.5515625,
1749734891.5110307,2025-06-12 20:28:11.511,31.20756581903136,-15.966930871582031,-2.8323405639648436,9.191340173339842,6.412213740458015,-32.70229007633588,8.290076335877863,6.9240234375,54.5068359375,-63.0064453125,
1749734891.5238175,2025-06-12 20:28:11.523,32.40563692455147,8.224082702636718,3.318363500976562,7.3094976684570305,3.1297709923664123,25.671755725190838,-0.9389312977099237,7.279101562499999,52.3623046875,-63.3498046875,
1749734891.5365682,2025-06-12 20:28:11.536,31.6388714170186,-6.325480786132812,4.570530969238281,7.077260107421875,11.13740458015267,36.69465648854962,-10.274809160305344,8.3443359375,52.3623046875,-63.693164062499996,
1749734891.549457,2025-06-12 20:28:11.549,31.6388714170186,-9.009380847167968,-0.3184288208007812,8.305485559082031,26.81679389312977,-95.20610687022901,-0.5648854961832062,7.81171875,52.18359375,-65.23828125,
1749734891.5622134,2025-06-12 20:28:11.562,31.73471710546021,19.61270144958496,1.24498486328125,7.3932947265625,19.519083969465647,-48.6793893129771,-3.0076335877862594,6.746484375,53.255859375,-63.521484375,
1749734891.5753908,2025-06-12 20:28:11.575,32.357714080330666,-1.6160861206054686,0.6967126831054687,7.343016491699219,4.778625954198473,66.87786259541984,-5.419847328244275,,,,81.48622307223124
1749734891.5885751,2025-06-12 20:28:11.588,31.73471710546021,8.741230261230468,1.8363526733398436,16.067487341308592,13.557251908396946,-77.9618320610687,4.916030534351145,7.6341796875,51.2900390625,-64.0365234375,
1749734891.6025634,2025-06-12 20:28:11.602,31.73471710546021,-0.7158662963867187,9.79946739501953,16.82884346923828,-6.129770992366412,50.3206106870229,-6.5038167938931295,5.5037109375,53.4345703125,-63.693164062499996,
1749734891.6157372,2025-06-12 20:28:11.615,31.6388714170186,-5.3390697021484375,-1.1707646118164061,-2.722207287597656,0.0916030534351145,-39.54961832061068,-11.938931297709924,,,,83.11068380472213
1749734891.6285515,2025-06-12 20:28:11.628,32.357714080330666,-2.3032219970703123,-2.7246014892578123,17.774553125,22.30534351145038,-53.58015267175573,1.1984732824427482,6.9240234375,52.0048828125,-63.693164062499996,
1749734891.6413822,2025-06-12 20:28:11.641,30.96795159792734,5.137956762695312,3.3638533325195312,-2.770091320800781,13.603053435114504,-18.801526717557252,-4.862595419847328,7.279101562499999,52.7197265625,-64.0365234375,
1749734891.6541095,2025-06-12 20:28:11.654,31.01587444214814,-11.3389390625,1.9847931762695312,5.643133312988281,12.320610687022901,71.34351145038168,-17.38167938931298,6.2138671875,54.5068359375,-63.693164062499996,
1749734891.666929,2025-06-12 20:28:11.666,32.40563692455147,-16.443377001953124,-7.491456994628906,5.161898779296875,24.46564885496183,-50.900763358778626,3.8473282442748094,7.4566406249999995,51.46875,-64.5515625,
1749734891.6801317,2025-06-12 20:28:11.680,31.543025728576993,-5.255272644042968,1.0079588989257813,10.211270080566406,16.435114503816795,67.95419847328245,4.221374045801527,5.5037109375,53.4345703125,-63.693164062499996,
1749734891.6930826,2025-06-12 20:28:11.693,31.73471710546021,-13.606248034667967,1.6448165405273436,-3.1962592163085937,3.053435114503817,-36.00763358778626,-0.2595419847328244,8.699414062499999,53.4345703125,-64.72324218749999,
1749734891.7059119,2025-06-12 20:28:11.705,32.30979123610986,-13.589488623046874,0.8571241943359375,17.33402001953125,43.44274809160305,69.68702290076335,-12.244274809160306,8.166796875,52.18359375,-63.521484375,
1749734891.7199407,2025-06-12 20:28:11.719,31.73471710546021,19.182343701171874,3.1794998046874996,6.169857678222656,5.709923664122138,-58.717557251908396,-4.755725190839694,9.4095703125,53.0771484375,-64.72324218749999,
1749734891.7330391,2025-06-12 20:28:11.733,31.782639949681013,1.0678139404296874,2.3918074584960936,6.320692382812499,-7.442748091603053,32.396946564885496,-1.7328244274809161,9.23203125,53.255859375,-65.925,
1749734891.7458453,2025-06-12 20:28:11.745,31.782639949681013,-7.264007836914062,-6.478709692382812,16.59900010986328,14.297709923664122,5.396946564885496,4.473282442748092,,,,
1749734891.7551095,2025-06-12 20:28:11.755,32.40563692455147,4.836287353515624,-1.6208745239257811,4.608838195800781,27.328244274809162,-28.610687022900763,-1.1450381679389312,7.9892578125,51.2900390625,-63.3498046875,
1749734891.7686086,2025-06-12 20:28:11.768,31.782639949681013,-2.6695348510742187,4.13718046875,9.133879333496093,-14.030534351145038,37.06106870229008,-1.0076335877862594,6.39140625,53.970703125,-64.894921875,
1749734891.78169,2025-06-12 20:28:11.781,31.01587444214814,-9.368511096191405,-6.361393811035156,10.235212097167969,14.595419847328245,-68.09160305343511,4.229007633587786,7.81171875,50.75390625,-64.208203125,
1749734891.7947223,2025-06-12 20:28:11.794,31.83056279390182,10.752359655761719,2.3822306518554686,13.034033837890624,18.709923664122137,32.29770992366412,4.320610687022901,6.39140625,52.541015625,-63.86484375,
1749734891.8079495,2025-06-12 20:28:11.807,31.73471710546021,-4.764461303710937,5.877765075683594,5.461173986816406,-10.48091603053435,18.450381679389313,0.732824427480916,7.1015625,54.685546875,-65.23828125,
1749734891.8208354,2025-06-12 20:28:11.820,31.063797286368946,-10.366893188476562,-0.028730419921875,19.61270144958496,21.137404580152673,-88.38931297709924,31.33587786259542,7.6341796875,51.6474609375,-64.0365234375,
1749734891.8353512,2025-06-12 20:28:11.835,31.01587444214814,13.479355346679686,9.576806640625,4.714183068847656,-0.2595419847328244,-43.02290076335878,0.6183206106870229,8.521875,52.8984375,-64.5515625,
1749734891.8483233,2025-06-12 20:28:11.848,32.30979123610986,-19.54147395019531,4.745307690429687,-2.521094348144531,5.755725190839694,-27.541984732824428,-2.732824427480916,7.9892578125,53.0771484375,-64.0365234375,
1749734891.8611622,2025-06-12 20:28:11.861,31.974331326564233,0.4429273071289062,-6.045359191894531,11.441889733886718,17.66412213740458,-87.40458015267176,-12.389312977099237,7.4566406249999995,53.970703125,-64.208203125,
1749734891.8739228,2025-06-12 20:28:11.873,31.782639949681013,2.308010400390625,9.471461767578125,-3.1196447631835937,25.236641221374047,-38.88549618320611,-23.419847328244273,7.81171875,51.826171875,-63.86484375,
1749734891.8867912,2025-06-12 20:28:11.886,31.543025728576993,-16.13931339111328,-11.104307299804686,1.7022773803710936,-0.20610687022900764,38.732824427480914,-9.854961832061068,,,,82.61678316264847
1749734891.899884,2025-06-12 20:28:11.899,31.782639949681013,3.555389465332031,-3.1364041748046874,5.528211633300781,13.526717557251908,-14.358778625954198,-4.0458015267175576,8.521875,52.8984375,-64.894921875,
1749734891.9133341,2025-06-12 20:28:11.913,31.926408482343426,-6.2584431396484375,5.837063647460937,8.750807067871094,-18.47328244274809,-78.3969465648855,13.557251908396946,6.2138671875,53.7919921875,-62.6630859375,
1749734891.9268253,2025-06-12 20:28:11.926,31.01587444214814,-1.139639990234375,3.835511059570312,8.226476904296874,0.25190839694656486,17.14503816793893,-10.740458015267176,8.166796875,52.541015625,-63.86484375,
1749734891.9415948,2025-06-12 20:28:11.941,31.782639949681013,7.5537062377929685,-0.4213794921875,15.31570802001953,12.748091603053435,-80.07633587786259,8.396946564885496,6.9240234375,52.3623046875,-65.4099609375,
1749734891.9554265,2025-06-12 20:28:11.955,32.21394554766825,-4.857835168457031,11.712434521484374,9.222464794921875,-13.625954198473282,-27.595419847328245,9.16030534351145,6.746484375,52.18359375,-62.834765624999996,
1749734891.9688823,2025-06-12 20:28:11.968,32.40563692455147,-4.438849877929687,-0.6081272216796875,7.819462622070312,1.7709923664122138,-18.419847328244273,-10.16030534351145,7.279101562499999,52.3623046875,-64.72324218749999,
1749734891.9822664,2025-06-12 20:28:11.982,31.83056279390182,-0.3687070556640625,-3.679887951660156,12.667720983886719,8.16030534351145,-8.564885496183207,1.4809160305343512,7.1015625,53.255859375,-62.49140625,
1749734891.9956133,2025-06-12 20:28:11.995,32.357714080330666,-6.028599780273437,3.9264907226562498,5.329492895507812,8.938931297709924,50.3587786259542,-3.2595419847328246,7.6341796875,53.0771484375,-64.0365234375,
1749734892.0087283,2025-06-12 20:28:12.008,31.83056279390182,-12.983755603027342,0.040701428222656245,5.465962390136719,1.1068702290076335,4.3816793893129775,-0.3969465648854962,6.5689453124999995,53.7919921875,-64.3798828125,
1749734892.021615,2025-06-12 20:28:12.021,32.40563692455147,11.803414184570311,1.5777788940429687,19.61270144958496,18.603053435114504,-49.412213740458014,6.0458015267175576,6.746484375,51.826171875,-63.86484375,
1749734892.0343766,2025-06-12 20:28:12.034,31.01587444214814,-12.892775939941405,8.640673791503906,8.640673791503906,10.0,78.30534351145039,3.50381679389313,7.6341796875,52.3623046875,-62.319726562499994,
1749734892.0473611,2025-06-12 20:28:12.047,31.063797286368946,17.255011364746093,0.3854664672851562,10.218452685546874,-2.4580152671755724,28.81679389312977,-5.916030534351145,6.5689453124999995,52.7197265625,-63.3498046875,
1749734892.0618439,2025-06-12 20:28:12.061,31.782639949681013,-6.545747338867187,2.2074539306640624,18.576610681152342,18.0381679389313,45.25954198473283,4.183206106870229,6.746484375,51.111328125,-64.208203125,
1749734892.0746624,2025-06-12 20:28:12.074,31.543025728576993,-7.3669585083007805,0.3112462158203125,6.007051965332031,4.8320610687022905,-38.900763358778626,-1.6793893129770991,6.9240234375,52.3623046875,-64.72324218749999,
1749734892.0876071,2025-06-12 20:28:12.087,31.20756581903136,-0.9241618408203125,-1.0797849487304687,1.675941162109375,3.480916030534351,17.236641221374047,-0.5725190839694656,6.746484375,52.18359375,-62.834765624999996,
1749734892.1010044,2025-06-12 20:28:12.101,31.73471710546021,-13.632584252929687,2.068590234375,18.861520678710935,29.572519083969464,56.05343511450382,11.312977099236642,6.5689453124999995,53.7919921875,-63.693164062499996,
1749734892.114537,2025-06-12 20:28:12.114,31.01587444214814,11.276689819335937,11.039663854980468,9.715670336914062,-1.3740458015267176,-111.7557251908397,10.541984732824428,6.9240234375,53.0771484375,-64.0365234375,
1749734892.128088,2025-06-12 20:28:12.128,31.83056279390182,-6.792350109863281,-0.8786720092773437,14.506467858886717,-1.6717557251908397,19.366412213740457,-3.7557251908396947,6.5689453124999995,52.3623046875,-63.693164062499996,
1749734892.1414807,2025-06-12 20:28:12.141,31.782639949681013,-1.8555062866210936,0.3806780639648437,4.563348364257812,32.534351145038165,-44.35114503816794,6.755725190839694,7.279101562499999,52.0048828125,-64.0365234375,
1749734892.1543553,2025-06-12 20:28:12.154,31.01587444214814,-6.593631372070312,3.6583401367187496,3.4715924072265625,10.229007633587786,12.282442748091603,1.1603053435114503,6.39140625,52.541015625,-62.148046875,
1749734892.1683679,2025-06-12 20:28:12.168,30.96795159792734,-5.667075329589843,-8.353369592285155,13.862427612304687,-2.7251908396946565,37.76335877862596,1.0916030534351144,8.166796875,51.111328125,-64.894921875,
1749734892.181724,2025-06-12 20:28:12.181,30.96795159792734,18.162413793945312,-3.191470812988281,1.70467158203125,30.87786259541985,-64.6793893129771,-3.213740458015267,6.746484375,52.541015625,-63.178124999999994,
1749734892.1947033,2025-06-12 20:28:12.194,31.782639949681013,-13.352462658691405,1.599326708984375,1.879448303222656,-1.4885496183206106,23.900763358778626,4.824427480916031,6.5689453124999995,52.0048828125,-64.0365234375,
1749734892.2079198,2025-06-12 20:28:12.207,31.159642974810556,-12.370839978027343,-14.446612817382812,9.253589416503905,7.267175572519084,-48.778625954198475,2.2061068702290076,6.2138671875,52.3623046875,-61.976367187499996,
1749734892.2215202,2025-06-12 20:28:12.221,31.01587444214814,13.204022155761718,-3.4955344238281247,11.49216796875,18.099236641221374,53.47328244274809,2.7557251908396947,6.746484375,53.255859375,-63.178124999999994,
1749734892.235006,2025-06-12 20:28:12.235,32.40563692455147,-8.166621862792969,3.229778039550781,6.481103894042969,-4.129770992366412,-14.122137404580153,0.1450381679389313,6.746484375,53.255859375,-63.178124999999994,
1749734892.2484128,2025-06-12 20:28:12.248,31.83056279390182,1.5897499023437498,-5.674257934570313,19.61270144958496,23.213740458015266,-29.229007633587788,-11.038167938931299,6.39140625,52.541015625,-62.49140625,
1749734892.262085,2025-06-12 20:28:12.262,31.6388714170186,-6.382941625976562,1.714248388671875,6.347028601074219,22.282442748091604,56.54961832061068,-12.038167938931299,6.5689453124999995,53.0771484375,-64.3798828125,
1749734892.2764468,2025-06-12 20:28:12.276,32.40563692455147,-10.50815108642578,0.9576806640625,8.075642199707032,7.343511450381679,54.786259541984734,-6.923664122137405,6.5689453124999995,53.0771484375,-63.3498046875,
1749734892.2909424,2025-06-12 20:28:12.290,32.40563692455147,-3.8762124877929685,-1.714248388671875,15.045163232421874,22.984732824427482,6.625954198473282,2.7022900763358777,7.6341796875,51.6474609375,-63.693164062499996,
1749734892.3047152,2025-06-12 20:28:12.304,32.357714080330666,-0.7661445312499999,5.710170959472656,12.404358801269531,-5.366412213740458,29.572519083969464,0.6870229007633588,6.39140625,53.61328125,-64.5515625,
1749734892.318189,2025-06-12 20:28:12.318,31.974331326564233,-1.656787548828125,-1.9800047729492187,6.643909606933593,1.0076335877862594,8.67175572519084,-13.351145038167939,,,,82.8974783712534
1749734892.3317194,2025-06-12 20:28:12.331,31.063797286368946,2.7437551025390623,-1.2832920898437499,18.72026278076172,7.4961832061068705,-58.6793893129771,7.595419847328245,7.81171875,51.826171875,-63.86484375,
1749734892.345539,2025-06-12 20:28:12.345,31.73471710546021,3.845087866210937,7.058106494140625,15.121777685546874,-8.083969465648854,52.79389312977099,-2.2061068702290076,6.9240234375,53.7919921875,-61.6330078125,
1749734892.3588488,2025-06-12 20:28:12.358,31.73471710546021,-9.701305126953125,2.7964275390625,12.564770312499999,-20.267175572519083,-64.53435114503817,3.480916030534351,7.4566406249999995,53.255859375,-63.521484375,
1749734892.3723557,2025-06-12 20:28:12.372,31.83056279390182,14.872780712890624,-2.81558115234375,19.488801513671874,18.68702290076336,-8.19083969465649,-1.5954198473282444,7.1015625,52.18359375,-63.178124999999994,
1749734892.3870614,2025-06-12 20:28:12.387,31.926408482343426,-3.239354846191406,1.5059528442382812,3.5984850952148437,-2.9389312977099236,-0.8320610687022901,2.8473282442748094,6.39140625,52.541015625,-63.521484375,
1749734892.4016716,2025-06-12 20:28:12.401,31.6388714170186,0.6847416748046875,0.3854664672851562,4.024652990722656,10.022900763358779,38.221374045801525,-8.419847328244275,6.5689453124999995,53.4345703125,-64.3798828125,
1749734892.414731,2025-06-12 20:28:12.414,32.30979123610986,-0.3184288208007812,1.6232687255859375,14.750676428222656,32.93893129770992,18.114503816793892,-2.7709923664122136,7.1015625,50.75390625,-63.86484375,
1749734892.4275765,2025-06-12 20:28:12.427,32.357714080330666,8.12113203125,7.788338000488281,17.226280944824218,13.648854961832061,-56.44274809160305,13.396946564885496,6.39140625,53.970703125,-64.208203125,
1749734892.4404035,2025-06-12 20:28:12.440,30.96795159792734,-6.380547424316406,4.374206433105469,6.236895324707031,6.702290076335878,98.89312977099236,-1.2442748091603053,5.6812499999999995,53.61328125,-63.86484375,
1749734892.4531093,2025-06-12 20:28:12.453,31.01587444214814,2.6216508178710938,-1.5011644409179687,16.19677423095703,24.793893129770993,-69.54198473282443,-3.7557251908396947,7.6341796875,51.2900390625,-64.3798828125,
1749734892.4658983,2025-06-12 20:28:12.465,32.26186839188906,8.604760766601562,9.603142858886718,5.571307263183593,-14.610687022900763,-21.435114503816795,-1.2442748091603053,6.036328125,54.685546875,-63.178124999999994,82.35381521688778
1749734892.4824398,2025-06-12 20:28:12.482,32.40563692455147,4.620809204101562,-2.0302830078125,18.907010510253905,0.20610687022900764,-8.13740458015267,-6.236641221374046,7.279101562499999,52.3623046875,-64.0365234375,
1749734892.4954667,2025-06-12 20:28:12.495,31.782639949681013,-11.7603185546875,2.7461493041992187,8.389282617187499,28.251908396946565,2.2595419847328246,-6.7251908396946565,6.9240234375,52.0048828125,-63.0064453125,
1749734892.5097845,2025-06-12 20:28:12.509,31.73471710546021,-3.7014357666015623,1.4628572143554686,4.402936853027343,19.458015267175572,41.23664122137404,2.7938931297709924,6.39140625,53.255859375,-63.521484375,
1749734892.5230212,2025-06-12 20:28:12.523,31.01587444214814,-10.493785876464843,-6.363788012695312,11.511321582031249,-14.49618320610687,-92.2824427480916,14.396946564885496,7.1015625,52.541015625,-63.86484375,
1749734892.5361216,2025-06-12 20:28:12.536,31.01587444214814,5.3007624755859375,-0.46208092041015625,5.738901379394531,25.984732824427482,25.625954198473284,5.740458015267175,6.9240234375,53.0771484375,-63.0064453125,
1749734892.5496411,2025-06-12 20:28:12.549,31.73471710546021,-7.682993127441406,4.515464331054687,0.22505495605468748,4.358778625954199,0.5343511450381679,-5.297709923664122,6.9240234375,53.0771484375,-63.693164062499996,
1749734892.5630012,2025-06-12 20:28:12.563,32.357714080330666,-17.67160245361328,-14.906299536132812,11.611878051757811,-2.053435114503817,-79.87022900763358,8.450381679389313,6.036328125,53.61328125,-65.23828125,
1749734892.5760908,2025-06-12 20:28:12.576,31.782639949681013,10.436325036621094,-1.4796166259765624,7.589619262695312,0.6030534351145038,60.43511450381679,-0.7786259541984732,6.746484375,53.61328125,-63.86484375,84.19642450415189
1749734892.5925317,2025-06-12 20:28:12.592,31.063797286368946,11.343727465820312,-0.5698199951171875,15.212757348632811,-7.145038167938932,18.908396946564885,-0.32061068702290074,7.6341796875,53.0771484375,-65.4099609375,
1749734892.6056013,2025-06-12 20:28:12.605,31.01587444214814,-9.835380419921874,1.35990654296875,11.935095275878906,4.221374045801527,-27.61832061068702,15.267175572519085,6.39140625,50.75390625,-64.5515625,
1749734892.6196818,2025-06-12 20:28:12.619,31.73471710546021,-9.909600671386718,6.356605407714843,10.137049829101562,3.1755725190839694,44.152671755725194,-4.290076335877862,,,,80.78715617693602
1749734892.6328776,2025-06-12 20:28:12.632,31.01587444214814,-5.9783215454101555,-0.967257470703125,0.20350714111328125,1.0763358778625953,-23.625954198473284,5.358778625954199,4.616015625,52.8984375,-62.49140625,
1749734892.6456397,2025-06-12 20:28:12.645,30.96795159792734,2.741360900878906,-4.783614916992187,19.45947254333496,29.9618320610687,-65.50381679389314,14.17557251908397,6.2138671875,52.3623046875,-62.6630859375,
1749734892.6586146,2025-06-12 20:28:12.658,31.83056279390182,1.0917559570312498,5.102043737792968,10.374075793457031,-5.809160305343512,69.53435114503817,-2.3969465648854964,4.97109375,53.255859375,-63.178124999999994,
1749734892.6715612,2025-06-12 20:28:12.671,31.063797286368946,-6.694187841796874,3.0071172851562498,-1.2880804931640624,-2.4122137404580153,-29.763358778625953,-8.290076335877863,5.8587890625,51.2900390625,-64.3798828125,
1749734892.684368,2025-06-12 20:28:12.684,31.01587444214814,-0.8690952026367187,0.0430956298828125,16.376339355468748,11.641221374045802,-11.564885496183207,4.740458015267175,7.4566406249999995,52.541015625,-64.5515625,
1749734892.6976295,2025-06-12 20:28:12.697,31.73471710546021,0.8762778076171874,5.57370146484375,5.817910034179687,0.3511450381679389,-24.068702290076335,-5.450381679389313,6.5689453124999995,52.7197265625,-64.72324218749999,
1749734892.711268,2025-06-12 20:28:12.711,31.159642974810556,-7.8721350585937495,-9.452308154296874,4.7884033203125,2.7251908396946565,-10.236641221374045,-2.595419847328244,6.9240234375,51.2900390625,-63.3498046875,
1749734892.7254355,2025-06-12 20:28:12.725,32.21394554766825,-0.5386953735351562,-5.849034655761718,18.83279025878906,15.870229007633588,15.244274809160306,0.366412213740458,7.1015625,51.826171875,-63.86484375,81.92250393439205
1749734892.743311,2025-06-12 20:28:12.743,32.357714080330666,-11.228805786132812,-0.4333505004882812,-1.0366893188476562,0.24427480916030533,19.72519083969466,7.221374045801527,8.521875,52.8984375,-63.178124999999994,
1749734892.7561817,2025-06-12 20:28:12.756,32.357714080330666,-6.574477758789062,-9.457096557617186,15.686809277343748,10.099236641221374,-56.14503816793893,4.801526717557252,9.0544921875,52.3623046875,-63.693164062499996,
1749734892.769064,2025-06-12 20:28:12.769,31.6388714170186,-7.805097412109374,-1.3263877197265623,15.251064575195311,15.358778625954198,90.72519083969466,22.099236641221374,6.9240234375,50.5751953125,-63.3498046875,
1749734892.7819273,2025-06-12 20:28:12.781,31.01587444214814,-15.962142468261717,1.3479355346679687,-2.221819140625,-0.6106870229007634,60.099236641221374,2.1297709923664123,8.3443359375,52.7197265625,-65.4099609375,
1749734892.79471,2025-06-12 20:28:12.794,31.926408482343426,11.262324609375,-1.7190367919921874,19.61270144958496,-7.549618320610687,-111.43511450381679,-7.076335877862595,7.81171875,53.970703125,-64.894921875,
1749734892.8079472,2025-06-12 20:28:12.807,32.40563692455147,9.026140258789061,-3.2920272827148436,16.730681201171873,10.511450381679388,16.46564885496183,-12.091603053435115,6.9240234375,51.2900390625,-62.319726562499994,
1749734892.8215008,2025-06-12 20:28:12.821,31.782639949681013,-4.8650177734375,5.181052392578125,5.6766521362304685,12.969465648854962,-5.641221374045801,-11.992366412213741,7.279101562499999,53.0771484375,-64.0365234375,
1749734892.8344276,2025-06-12 20:28:12.834,31.01587444214814,-3.526659045410156,-7.0078282592773435,12.255918298339843,-2.2213740458015265,-32.01526717557252,5.679389312977099,7.81171875,53.255859375,-63.521484375,
1749734892.8484044,2025-06-12 20:28:12.848,31.83056279390182,-16.864756494140625,-1.6543933471679686,3.7134067749023436,12.442748091603054,-32.17557251908397,-1.8244274809160306,6.9240234375,52.7197265625,-63.693164062499996,
1749734892.861336,2025-06-12 20:28:12.861,32.40563692455147,13.251906188964844,2.4564509033203126,8.003816149902343,-12.106870229007633,-27.30534351145038,2.33587786259542,6.036328125,54.328125,-64.894921875,
1749734892.8741,2025-06-12 20:28:12.874,30.96795159792734,-7.426813549804687,-0.8906430175781249,18.758570007324217,2.0076335877862594,-29.80916030534351,5.511450381679389,7.6341796875,52.3623046875,-64.0365234375,
1749734892.886912,2025-06-12 20:28:12.886,31.6388714170186,8.94473740234375,1.8722656982421875,6.641515405273437,30.015267175572518,46.58015267175573,-14.442748091603054,4.97109375,53.255859375,-64.208203125,
1749734892.8997667,2025-06-12 20:28:12.899,32.357714080330666,-1.1013327636718748,4.199429711914062,-10.599130749511717,15.221374045801527,-152.32824427480915,-11.732824427480915,7.279101562499999,53.0771484375,-63.3498046875,
1749734892.9127235,2025-06-12 20:28:12.912,31.926408482343426,-2.0877438476562498,-12.624625354003905,19.390639245605467,2.9618320610687023,7.8320610687022905,-9.694656488549619,8.521875,52.18359375,-63.521484375,
1749734892.9256938,2025-06-12 20:28:12.925,31.782639949681013,-1.6543933471679686,-1.6472107421875,10.64222637939453,16.206106870229007,26.9618320610687,4.4961832061068705,6.9240234375,53.0771484375,-62.6630859375,
1749734892.938456,2025-06-12 20:28:12.938,31.01587444214814,-6.979097839355468,5.358223315429687,-1.177947216796875,-5.572519083969466,-56.80916030534351,1.8549618320610688,8.166796875,53.61328125,-62.49140625,
1749734892.952044,2025-06-12 20:28:12.952,31.159642974810556,-5.209782812499999,-6.287173559570312,17.15924329833984,18.396946564885496,31.389312977099237,6.213740458015267,7.4566406249999995,51.46875,-63.86484375,
1749734892.9665437,2025-06-12 20:28:12.966,31.73471710546021,-15.387534069824218,-1.2378022583007813,2.4875755249023435,4.709923664122138,69.56488549618321,6.801526717557252,6.036328125,52.541015625,-62.49140625,
1749734892.979541,2025-06-12 20:28:12.979,31.782639949681013,6.4092778442382805,-4.647145422363281,2.6192566162109374,-5.473282442748092,-93.3969465648855,-12.183206106870228,8.876953125,53.61328125,-63.521484375,
1749734892.9924242,2025-06-12 20:28:12.992,31.782639949681013,-5.942408520507812,-3.4261025756835934,15.179238525390623,18.396946564885496,67.0381679389313,5.9465648854961835,6.9240234375,54.5068359375,-64.0365234375,
1749734893.0051851,2025-06-12 20:28:13.005,30.96795159792734,-12.136208215332031,8.389282617187499,10.977414611816405,9.740458015267176,91.87786259541984,3.0916030534351147,7.1015625,52.18359375,-63.521484375,
1749734893.0181677,2025-06-12 20:28:13.018,31.01587444214814,10.953472595214842,2.6001030029296874,1.7166425903320313,-0.816793893129771,-59.06870229007634,-9.16793893129771,8.876953125,53.970703125,-61.461328124999994,
1749734893.0319688,2025-06-12 20:28:13.031,31.83056279390182,-10.101136804199218,-1.8100164550781248,12.184092248535155,29.801526717557252,29.96946564885496,-5.480916030534351,6.746484375,52.18359375,-63.178124999999994,
1749734893.0455635,2025-06-12 20:28:13.045,30.96795159792734,-6.382941625976562,7.187393383789062,1.5227122558593749,1.9465648854961832,-55.19847328244275,-7.885496183206107,8.3443359375,54.5068359375,-64.0365234375,
1749734893.0590801,2025-06-12 20:28:13.059,31.83056279390182,8.233659509277343,2.2553379638671873,17.64526623535156,-3.0076335877862594,37.57251908396947,9.351145038167939,7.9892578125,54.5068359375,-62.6630859375,
1749734893.0738795,2025-06-12 20:28:13.073,31.01587444214814,-0.02633621826171875,-2.6527754394531247,14.166491223144531,31.755725190839694,4.435114503816794,8.595419847328245,7.279101562499999,53.4345703125,-65.0666015625,
1749734893.0873244,2025-06-12 20:28:13.087,31.782639949681013,-11.604695446777344,0.9864110839843749,6.282385156249999,2.801526717557252,26.328244274809162,-3.8473282442748094,6.5689453124999995,52.7197265625,-64.0365234375,
1749734893.1004848,2025-06-12 20:28:13.100,31.926408482343426,-11.449072338867186,-7.931990100097655,-2.370259643554687,-0.8702290076335878,-44.68702290076336,-5.717557251908397,6.39140625,53.255859375,-63.521484375,
1749734893.1134515,2025-06-12 20:28:13.113,31.73471710546021,3.153163586425781,-4.412513659667969,19.56062756347656,32.16030534351145,55.82442748091603,-0.9465648854961832,7.1015625,52.18359375,-63.521484375,
1749734893.126271,2025-06-12 20:28:13.126,30.96795159792734,-6.514622717285156,5.693411547851563,9.756371765136718,-5.709923664122138,59.55725190839695,11.977099236641221,7.6341796875,54.5068359375,-64.0365234375,
1749734893.139373,2025-06-12 20:28:13.139,32.40563692455147,0.8116343627929687,3.248931652832031,8.501810095214843,-9.67175572519084,-106.03053435114504,-6.587786259541985,6.036328125,52.8984375,-63.178124999999994,
1749734893.152321,2025-06-12 20:28:13.152,31.01587444214814,-2.834734765625,1.16837041015625,15.667655664062499,5.435114503816794,-7.549618320610687,9.267175572519085,,,,83.82480644308316
1749734893.1651337,2025-06-12 20:28:13.165,32.40563692455147,4.199429711914062,3.8283284545898435,-0.6751648681640625,16.717557251908396,-31.793893129770993,-2.5877862595419847,7.1015625,53.255859375,-62.834765624999996,
1749734893.1779373,2025-06-12 20:28:13.177,31.01587444214814,-7.635109094238281,-4.350264416503906,5.343858105468749,-3.7480916030534353,-23.244274809160306,3.099236641221374,6.746484375,51.46875,-62.148046875,
1749734893.1923852,2025-06-12 20:28:13.192,31.73471710546021,-10.500968481445312,-1.3455413330078123,19.498378320312497,29.954198473282442,69.57251908396947,4.770992366412214,,,,80.66230582517184
1749734893.2052765,2025-06-12 20:28:13.205,31.01587444214814,-6.5960255737304685,5.6311623046875,7.101202124023437,3.5419847328244276,-55.091603053435115,18.083969465648856,6.9240234375,52.7197265625,-63.3498046875,
1749734893.2180305,2025-06-12 20:28:13.218,30.96795159792734,6.8402341430664055,4.560954162597656,14.803348864746093,-16.6793893129771,15.946564885496183,-2.7786259541984735,8.876953125,53.61328125,-64.5515625,
1749734893.2308319,2025-06-12 20:28:13.230,31.782639949681013,-10.87925234375,1.6256629272460936,7.601590270996093,26.900763358778626,22.702290076335878,9.511450381679388,8.166796875,51.46875,-63.521484375,
1749734893.2436802,2025-06-12 20:28:13.243,31.83056279390182,9.311050256347656,5.875370874023437,14.47294903564453,0.1984732824427481,-44.274809160305345,-1.5190839694656488,7.6341796875,54.1494140625,-63.3498046875,
1749734893.256631,2025-06-12 20:28:13.256,31.01587444214814,2.4684219116210935,2.35589443359375,11.741164941406248,-5.977099236641221,30.931297709923665,-6.076335877862595,6.036328125,53.255859375,-63.86484375,
1749734893.2698972,2025-06-12 20:28:13.269,31.83056279390182,-12.887987536621093,-1.2713210815429687,14.86320390625,15.541984732824428,-38.50381679389313,15.870229007633588,7.279101562499999,52.0048828125,-63.693164062499996,
1749734893.282869,2025-06-12 20:28:13.282,31.73471710546021,-1.7597382202148437,3.1699229980468746,15.330073229980467,-4.114503816793893,13.16030534351145,23.48854961832061,7.81171875,53.255859375,-64.5515625,
1749734893.2977974,2025-06-12 20:28:13.297,31.590948572797796,-1.0678139404296874,-2.0829554443359375,8.06367119140625,-1.8702290076335877,-32.33587786259542,-12.725190839694656,6.746484375,53.61328125,-64.208203125,
1749734893.3111215,2025-06-12 20:28:13.311,32.357714080330666,2.7916391357421872,-3.8762124877929685,12.919112158203124,28.236641221374047,39.56488549618321,2.404580152671756,6.9240234375,52.7197265625,-64.3798828125,
1749734893.324841,2025-06-12 20:28:13.324,32.21394554766825,-15.095441467285156,4.833893151855468,0.7733271362304687,5.809160305343512,40.51908396946565,-4.396946564885496,5.5037109375,51.6474609375,-63.0064453125,
1749734893.3378212,2025-06-12 20:28:13.337,31.73471710546021,-1.6400281372070311,-4.426878869628906,15.543157177734374,-12.83206106870229,-128.45801526717557,-2.4198473282442747,7.1015625,52.18359375,-64.5515625,
1749734893.3509188,2025-06-12 20:28:13.350,31.782639949681013,7.551312036132812,-1.2689268798828124,10.594342346191405,18.541984732824428,42.29770992366412,-21.64885496183206,6.036328125,51.46875,-63.521484375,
1749734893.3637884,2025-06-12 20:28:13.363,31.782639949681013,-19.56781016845703,6.983886242675781,-8.528146313476562,4.083969465648855,-32.2442748091603,-5.511450381679389,7.6341796875,52.7197265625,-65.4099609375,
1749734893.3761983,2025-06-12 20:28:13.376,31.01587444214814,6.497863305664062,-5.183446594238281,19.61270144958496,14.732824427480915,-55.51145038167939,-5.190839694656488,6.746484375,50.0390625,-62.49140625,
1749734893.388448,2025-06-12 20:28:13.388,32.40563692455147,5.858611462402344,-1.4508862060546874,17.082628845214842,22.427480916030536,33.229007633587784,1.1984732824427482,7.81171875,51.111328125,-63.521484375,
1749734893.400618,2025-06-12 20:28:13.400,31.73471710546021,-13.912705847167969,2.6695348510742187,-1.1731588134765625,9.450381679389313,16.083969465648856,0.7862595419847328,6.746484375,52.18359375,-63.86484375,
1749734893.4131582,2025-06-12 20:28:13.413,31.73471710546021,8.525752111816406,-1.0319009155273438,9.598354455566406,1.5114503816793894,-52.10687022900763,-4.442748091603053,,,,
1749734893.4219012,2025-06-12 20:28:13.421,31.73471710546021,-5.343858105468749,-5.166687182617188,19.61270144958496,19.954198473282442,9.358778625954198,9.0,7.4566406249999995,52.541015625,-63.521484375,
1749734893.4339721,2025-06-12 20:28:13.433,31.782639949681013,-6.804321118164062,6.679822631835937,3.1794998046874996,29.480916030534353,89.90839694656489,-25.251908396946565,,,,82.78019329662449
1749734893.4460592,2025-06-12 20:28:13.446,31.926408482343426,-13.697227697753906,1.2114660400390624,2.588131994628906,7.564885496183206,25.64885496183206,-14.80916030534351,7.81171875,53.61328125,-64.894921875,
1749734893.458232,2025-06-12 20:28:13.458,31.73471710546021,-14.860809704589842,-0.7038952880859375,11.456254943847656,21.47328244274809,-9.793893129770993,11.229007633587786,7.4566406249999995,52.8984375,-62.148046875,
1749734893.4704444,2025-06-12 20:28:13.470,31.83056279390182,-1.6208745239257811,7.575254052734374,4.048595007324218,15.49618320610687,-42.19083969465649,34.55725190839695,8.521875,53.255859375,-62.49140625,82.25033732889588
1749734893.4859545,2025-06-12 20:28:13.485,31.73471710546021,0.5458779785156249,15.571887597656248,-4.553771557617187,18.633587786259543,-179.45038167938932,0.9694656488549618,7.81171875,52.18359375,-63.521484375,
1749734893.4982758,2025-06-12 20:28:13.498,31.926408482343426,4.017470385742187,-14.630966345214842,19.61270144958496,25.6793893129771,189.42748091603053,0.24427480916030533,7.4566406249999995,52.541015625,-64.5515625,
1749734893.511042,2025-06-12 20:28:13.511,31.73471710546021,-13.915100048828124,9.801861596679688,-4.747701892089843,10.419847328244275,-20.862595419847327,9.694656488549619,7.279101562499999,53.4345703125,-63.693164062499996,
1749734893.5243104,2025-06-12 20:28:13.524,31.6388714170186,2.0278888061523435,0.47884033203125,11.994950317382811,21.85496183206107,90.25954198473282,-16.603053435114504,7.1015625,53.61328125,-64.208203125,
1749734893.5381417,2025-06-12 20:28:13.538,31.73471710546021,7.8721350585937495,-5.109226342773437,19.61270144958496,18.82442748091603,-18.47328244274809,10.129770992366412,7.1015625,51.46875,-63.521484375,
1749734893.552001,2025-06-12 20:28:13.552,31.73471710546021,-19.503166723632813,4.2137949218749995,10.347739575195313,4.984732824427481,17.85496183206107,-3.786259541984733,5.8587890625,53.7919921875,-63.3498046875,
1749734893.5655627,2025-06-12 20:28:13.565,31.782639949681013,2.731784094238281,1.1085153686523437,6.624755993652343,-6.00763358778626,130.63358778625954,-2.435114503816794,8.699414062499999,52.3623046875,-63.693164062499996,
1749734893.5810251,2025-06-12 20:28:13.581,31.159642974810556,8.99501563720703,2.89219560546875,19.15301473083496,13.122137404580153,-62.94656488549618,12.320610687022901,7.1015625,52.541015625,-61.8046875,
1749734893.5946305,2025-06-12 20:28:13.594,31.6388714170186,-2.8610709838867185,8.128314636230469,10.450690246582031,3.6717557251908395,80.10687022900764,10.679389312977099,7.4566406249999995,52.541015625,-62.834765624999996,
1749734893.608224,2025-06-12 20:28:13.608,31.01587444214814,6.41646044921875,-6.050147595214844,3.3399113159179685,-10.83969465648855,-79.13740458015268,1.9312977099236641,7.6341796875,53.0771484375,-63.3498046875,
1749734893.6217632,2025-06-12 20:28:13.621,31.73471710546021,-7.3549875,1.0486603271484374,18.95489454345703,25.87786259541985,87.50381679389314,-9.290076335877863,7.9892578125,50.9326171875,-62.6630859375,
1749734893.6352718,2025-06-12 20:28:13.635,31.782639949681013,-5.312733483886719,4.491522314453125,0.296881005859375,11.290076335877863,-17.47328244274809,-9.16793893129771,6.746484375,52.541015625,-62.148046875,
1749734893.6488307,2025-06-12 20:28:13.648,31.926408482343426,-6.229712719726562,-3.9935283691406247,16.41943498535156,11.099236641221374,-24.068702290076335,0.15267175572519084,6.746484375,52.18359375,-63.521484375,
1749734893.6622658,2025-06-12 20:28:13.662,31.73471710546021,5.329492895507812,-1.254561669921875,3.7708676147460936,24.709923664122137,6.152671755725191,-1.6717557251908397,7.9892578125,52.0048828125,-64.72324218749999,
1749734893.675834,2025-06-12 20:28:13.675,30.96795159792734,-13.02445703125,-1.9009961181640624,-0.02633621826171875,-5.366412213740458,4.847328244274809,-5.679389312977099,6.2138671875,53.7919921875,-63.0064453125,
1749734893.6905994,2025-06-12 20:28:13.690,32.30979123610986,-2.0087351928710935,1.3934253662109375,19.61270144958496,20.18320610687023,32.725190839694655,11.610687022900763,6.746484375,51.826171875,-62.49140625,
1749734893.7041597,2025-06-12 20:28:13.704,32.357714080330666,14.334085339355468,11.463437548828125,4.4005426513671875,11.297709923664122,-60.732824427480914,-5.709923664122138,8.3443359375,53.0771484375,-63.0064453125,
1749734893.7181966,2025-06-12 20:28:13.718,31.01587444214814,-19.60611739501953,-5.2648494506835934,-3.785232824707031,3.3435114503816794,23.015267175572518,-8.702290076335878,6.9240234375,53.0771484375,-65.0666015625,
1749734893.7319725,2025-06-12 20:28:13.731,31.974331326564233,9.17458076171875,0.32082302246093747,19.61270144958496,13.251908396946565,-1.5572519083969465,7.938931297709924,7.6341796875,53.7919921875,-63.0064453125,
1749734893.7455304,2025-06-12 20:28:13.745,32.30979123610986,-11.84890401611328,3.816357446289062,6.9719152343749995,-15.946564885496183,13.17557251908397,13.442748091603054,8.521875,53.255859375,-63.178124999999994,
1749734893.7594883,2025-06-12 20:28:13.759,32.357714080330666,7.189787585449218,1.2234370483398436,9.974244116210937,-1.5572519083969465,-8.679389312977099,-1.381679389312977,6.9240234375,52.7197265625,-64.0365234375,
1749734893.7730155,2025-06-12 20:28:13.773,31.73471710546021,-13.644555261230469,-0.12449848632812499,12.176909643554687,17.984732824427482,40.89312977099237,-5.862595419847328,6.5689453124999995,50.9326171875,-63.3498046875,
1749734893.7866366,2025-06-12 20:28:13.786,31.01587444214814,6.1267620483398435,5.755660791015624,10.726023437499999,-2.5114503816793894,105.54961832061069,-0.9618320610687023,6.746484375,52.8984375,-62.834765624999996,
1749734893.8019404,2025-06-12 20:28:13.801,31.6388714170186,0.8020575561523438,-0.507570751953125,17.31426785583496,-6.1679389312977095,-123.40458015267176,5.709923664122138,7.9892578125,52.3623046875,-63.0064453125,
1749734893.81573,2025-06-12 20:28:13.815,31.590948572797796,-6.421248852539062,-7.766790185546874,8.920795385742187,19.358778625954198,105.78625954198473,3.49618320610687,6.9240234375,53.0771484375,-61.976367187499996,
1749734893.8292418,2025-06-12 20:28:13.829,32.40563692455147,-8.149862451171874,2.2840683837890623,1.8195932617187498,-3.0076335877862594,-84.2442748091603,1.6793893129770991,6.746484375,52.8984375,-63.521484375,
1749734893.842866,2025-06-12 20:28:13.842,32.07017701500584,-7.917624890136718,-2.370259643554687,18.198326818847654,24.80916030534351,88.27480916030534,-4.305343511450381,7.4566406249999995,52.8984375,-63.86484375,
1749734893.8565228,2025-06-12 20:28:13.856,31.73471710546021,3.564966271972656,2.068590234375,5.200206005859375,27.83969465648855,0.48854961832061067,3.6717557251908395,6.2138671875,53.0771484375,-63.0064453125,
1749734893.8699589,2025-06-12 20:28:13.869,32.30979123610986,-5.872976672363281,1.3335703247070312,3.5434184570312497,2.8931297709923665,-2.717557251908397,3.717557251908397,6.9240234375,52.7197265625,-62.319726562499994,
1749734893.883633,2025-06-12 20:28:13.883,31.01587444214814,-2.3032219970703123,-4.821922143554687,19.56781016845703,6.480916030534351,-24.34351145038168,-11.763358778625955,7.6341796875,54.1494140625,-64.0365234375,
1749734893.8974164,2025-06-12 20:28:13.897,31.01587444214814,3.8570588745117185,-4.944026428222656,3.545812658691406,13.98473282442748,-12.946564885496183,-12.114503816793894,7.279101562499999,52.7197265625,-64.72324218749999,
1749734893.9119081,2025-06-12 20:28:13.911,31.83056279390182,-18.564639672851563,2.3319524169921872,1.618480322265625,0.9465648854961832,13.610687022900763,-5.221374045801527,7.1015625,52.541015625,-63.521484375,81.32491441135595
1749734893.9284775,2025-06-12 20:28:13.928,31.30341150747297,-15.466542724609374,-3.31357509765625,11.360486877441405,21.763358778625953,45.49618320610687,8.900763358778626,5.6812499999999995,52.541015625,-62.834765624999996,
1749734893.9413202,2025-06-12 20:28:13.941,32.40563692455147,5.295974072265625,2.4013842651367185,1.446097802734375,15.244274809160306,-34.06106870229008,-12.442748091603054,7.9892578125,52.3623046875,-63.3498046875,83.03765337101339
1749734893.9587538,2025-06-12 20:28:13.958,31.73471710546021,1.7525556152343749,-0.040701428222656245,18.54009910583496,-14.702290076335878,-129.7709923664122,-2.954198473282443,5.8587890625,52.3623046875,-63.3498046875,
1749734893.9718995,2025-06-12 20:28:13.971,31.73471710546021,2.9735984619140625,0.8930372192382812,14.085088366699217,10.618320610687023,14.49618320610687,10.67175572519084,7.4566406249999995,52.541015625,-63.521484375,83.53336252480698
1749734893.9883919,2025-06-12 20:28:13.988,31.73471710546021,2.6431986328124997,0.82360537109375,2.099714855957031,1.702290076335878,-11.007633587786259,4.229007633587786,7.1015625,54.685546875,-64.208203125,
1749734894.0018046,2025-06-12 20:28:14.001,32.357714080330666,-10.287884533691406,-2.7078420776367187,17.70512127685547,15.038167938931299,34.45038167938932,8.488549618320612,7.279101562499999,52.0048828125,-63.693164062499996,
1749734894.016669,2025-06-12 20:28:14.016,31.01587444214814,14.772224243164061,14.257470886230468,7.884106066894531,18.9618320610687,-27.954198473282442,-4.809160305343512,6.9240234375,53.7919921875,-63.3498046875,
1749734894.0306492,2025-06-12 20:28:14.030,30.96795159792734,-10.335768566894531,0.011971008300781249,0.7158662963867187,0.183206106870229,51.29007633587786,-21.64885496183206,7.81171875,53.255859375,-63.178124999999994,
1749734894.0441678,2025-06-12 20:28:14.044,31.73471710546021,9.655815295410155,0.8930372192382812,19.61270144958496,32.38931297709924,-64.58778625954199,20.64885496183206,7.9892578125,50.9326171875,-62.6630859375,
1749734894.057752,2025-06-12 20:28:14.057,31.782639949681013,-8.901641772460938,10.790666882324219,7.747636572265624,0.5190839694656488,-17.297709923664122,4.893129770992366,9.23203125,52.541015625,-64.894921875,
1749734894.0713701,2025-06-12 20:28:14.071,30.96795159792734,10.534487304687499,0.009576806640625,14.276624499511717,-6.290076335877862,31.587786259541986,2.6564885496183206,8.3443359375,52.7197265625,-64.3798828125,
1749734894.0849411,2025-06-12 20:28:14.084,31.063797286368946,-8.087613208007811,1.4987702392578124,5.623979699707031,30.908396946564885,-38.534351145038165,7.435114503816794,8.521875,50.396484375,-63.521484375,
1749734894.0993292,2025-06-12 20:28:14.099,31.782639949681013,2.2577321655273437,9.765948571777344,13.51526837158203,-2.16793893129771,63.19083969465649,3.66412213740458,7.279101562499999,52.0048828125,-63.0064453125,
1749734894.113016,2025-06-12 20:28:14.113,31.974331326564233,6.663063220214843,3.5242648437499997,9.90241806640625,-11.259541984732824,-77.6030534351145,2.3435114503816794,8.699414062499999,53.0771484375,-63.0064453125,
1749734894.1265764,2025-06-12 20:28:14.126,31.159642974810556,-7.709329345703124,6.215347509765625,4.407725256347656,34.229007633587784,-92.58015267175573,-6.129770992366412,6.5689453124999995,53.4345703125,-63.3498046875,
1749734894.1420124,2025-06-12 20:28:14.142,31.782639949681013,5.0757075195312495,5.046977099609375,17.707515478515624,0.2900763358778626,95.3969465648855,-6.458015267175573,7.6341796875,50.5751953125,-64.0365234375,82.30242192366822
1749734894.1596613,2025-06-12 20:28:14.159,31.543025728576993,-10.263942517089843,-7.216123803710937,15.813701965332031,12.206106870229007,35.274809160305345,-0.7480916030534351,7.6341796875,51.2900390625,-63.693164062499996,
1749734894.1732304,2025-06-12 20:28:14.173,31.926408482343426,-11.156979736328124,3.641580725097656,-0.239420166015625,-2.053435114503817,-61.97709923664122,-14.977099236641221,7.9892578125,50.2177734375,-62.319726562499994,
1749734894.186802,2025-06-12 20:28:14.186,31.782639949681013,1.5825672973632812,-0.5051765502929687,5.781997009277344,-4.938931297709924,-20.068702290076335,0.6412213740458015,6.9240234375,52.3623046875,-64.3798828125,
1749734894.2004898,2025-06-12 20:28:14.200,31.782639949681013,-8.008604553222655,-3.172317199707031,12.136208215332031,23.022900763358777,6.534351145038168,6.099236641221374,6.5689453124999995,52.0048828125,-64.0365234375,
1749734894.2142074,2025-06-12 20:28:14.214,31.782639949681013,0.6009446166992187,4.158728283691406,8.939948999023438,6.885496183206107,-18.38167938931298,1.0076335877862594,5.1486328125,52.3623046875,-64.0365234375,
1749734894.2281148,2025-06-12 20:28:14.228,31.926408482343426,-7.656656909179687,-1.3766659545898436,13.603853833007811,-27.083969465648856,-32.25954198473283,13.931297709923664,5.6812499999999995,54.685546875,-65.58164062499999,
1749734894.242756,2025-06-12 20:28:14.242,31.73471710546021,-8.655039001464843,-0.2154781494140625,6.981492041015625,27.427480916030536,-44.20610687022901,-0.7251908396946565,8.3443359375,52.3623046875,-63.0064453125,
1749734894.2568345,2025-06-12 20:28:14.256,32.357714080330666,-0.1867477294921875,2.6958710693359373,9.13627353515625,5.282442748091603,21.80916030534351,0.08396946564885496,8.521875,52.541015625,-62.834765624999996,
1749734894.2704053,2025-06-12 20:28:14.270,31.73471710546021,2.703053674316406,-2.3726538452148436,2.8945898071289062,3.3206106870229006,-29.31297709923664,-5.122137404580153,7.279101562499999,51.2900390625,-63.693164062499996,
1749734894.2841842,2025-06-12 20:28:14.284,31.73471710546021,-11.872846032714843,0.6368576416015624,12.375628381347655,24.908396946564885,34.221374045801525,6.648854961832061,7.9892578125,51.6474609375,-63.3498046875,
1749734894.2977045,2025-06-12 20:28:14.297,31.782639949681013,-11.080365283203124,19.589357983398436,7.283161450195312,11.83206106870229,9.793893129770993,8.946564885496183,6.5689453124999995,53.0771484375,-64.0365234375,
1749734894.3111358,2025-06-12 20:28:14.311,32.357714080330666,10.486603271484375,-4.3239281982421875,12.071564770507813,-3.198473282442748,-35.33587786259542,-4.6106870229007635,7.1015625,52.8984375,-64.208203125,
1749734894.324889,2025-06-12 20:28:14.324,31.926408482343426,-7.651868505859374,-3.5386300537109374,11.628637463378906,29.14503816793893,80.45038167938931,-5.687022900763359,5.5037109375,53.0771484375,-63.0064453125,
1749734894.3386126,2025-06-12 20:28:14.338,31.782639949681013,-8.712499841308594,4.747701892089843,-1.5059528442382812,-5.702290076335878,-36.63358778625954,6.8396946564885495,7.1015625,53.255859375,-63.521484375,
1749734894.3530886,2025-06-12 20:28:14.353,30.96795159792734,-14.784195251464842,-8.63827958984375,12.143390820312499,5.404580152671755,-58.83206106870229,7.312977099236641,6.746484375,53.255859375,-66.61171875,
1749734894.3670669,2025-06-12 20:28:14.367,30.96795159792734,8.106766821289062,-1.3383587280273437,9.334992272949219,1.213740458015267,13.335877862595419,2.3893129770992365,8.876953125,52.8984375,-63.521484375,
1749734894.382152,2025-06-12 20:28:14.382,32.40563692455147,3.67749375,3.347093920898437,7.594407666015624,-0.31297709923664124,-66.09160305343511,-3.595419847328244,6.746484375,52.18359375,-64.894921875,
1749734894.4012551,2025-06-12 20:28:14.401,31.83056279390182,-0.22026655273437498,-4.608838195800781,5.580884069824219,22.206106870229007,46.19083969465649,-7.282442748091603,5.8587890625,52.7197265625,-64.72324218749999,
1749734894.4148695,2025-06-12 20:28:14.414,31.01587444214814,6.256048937988281,1.7621324218749999,8.585607153320312,10.625954198473282,67.4885496183206,-4.122137404580153,6.5689453124999995,51.2900390625,-62.319726562499994,
1749734894.4285994,2025-06-12 20:28:14.428,32.30979123610986,12.368445776367187,-0.12210428466796874,16.41464658203125,17.290076335877863,-116.47328244274809,-0.030534351145038167,7.4566406249999995,53.255859375,-63.521484375,
1749734894.4420116,2025-06-12 20:28:14.442,31.782639949681013,0.6057330200195312,-7.184999182128906,13.857639208984374,10.038167938931299,61.732824427480914,11.17557251908397,6.2138671875,52.0048828125,-63.693164062499996,
1749734894.455539,2025-06-12 20:28:14.455,32.30979123610986,-14.707580798339842,2.3726538452148436,3.5960908935546874,7.061068702290076,38.31297709923664,-19.923664122137403,7.6341796875,55.2216796875,-64.0365234375,
1749734894.470603,2025-06-12 20:28:14.470,32.30979123610986,-2.4157494750976563,-7.599196069335937,16.38352196044922,7.5038167938931295,44.37404580152672,-5.854961832061068,7.6341796875,52.7197265625,-64.0365234375,
1749734894.484424,2025-06-12 20:28:14.484,31.782639949681013,2.252943762207031,-1.1156979736328125,14.47294903564453,8.381679389312977,-2.83206106870229,7.572519083969466,6.5689453124999995,51.2900390625,-62.319726562499994,
1749734894.4979248,2025-06-12 20:28:14.497,32.357714080330666,-5.76523759765625,3.8570588745117185,-0.39264907226562495,3.549618320610687,-28.358778625954198,0.3435114503816794,7.1015625,52.18359375,-63.86484375,
1749734894.5114138,2025-06-12 20:28:14.511,31.447180040135382,-5.523423229980469,-4.560954162597656,16.314090112304687,19.931297709923665,-14.84732824427481,11.549618320610687,7.1015625,52.541015625,-64.208203125,
1749734894.5250688,2025-06-12 20:28:14.525,32.40563692455147,5.410895751953125,0.7110778930664062,9.069235888671875,-1.8549618320610688,102.90076335877863,7.412213740458015,6.746484375,52.18359375,-63.86484375,
1749734894.5388572,2025-06-12 20:28:14.538,32.21394554766825,-18.55266866455078,1.8531120849609375,-2.9472622436523435,0.05343511450381679,-44.23664122137404,-12.045801526717558,7.4566406249999995,52.8984375,-65.23828125,
1749734894.5525043,2025-06-12 20:28:14.552,31.782639949681013,12.356474768066406,-0.6440402465820312,19.61270144958496,11.114503816793894,16.885496183206108,10.938931297709924,6.9240234375,52.3623046875,-63.3498046875,
1749734894.5662932,2025-06-12 20:28:14.566,32.357714080330666,2.5234885498046875,7.034164477539062,9.651026892089844,1.6106870229007633,-49.00763358778626,2.16793893129771,7.6341796875,51.6474609375,-62.6630859375,
1749734894.5811272,2025-06-12 20:28:14.581,31.590948572797796,-18.77532941894531,-2.9831752685546875,-0.8738836059570312,2.564885496183206,-20.80916030534351,7.564885496183206,5.8587890625,52.0048828125,-64.72324218749999,
1749734894.5950615,2025-06-12 20:28:14.595,30.96795159792734,-7.7763669921875,0.4836287353515625,19.603723193359375,18.564885496183205,-84.19847328244275,9.122137404580153,5.6812499999999995,53.255859375,-62.834765624999996,
1749734894.6089115,2025-06-12 20:28:14.608,32.40563692455147,11.537657800292967,4.376600634765625,13.153743920898437,4.9541984732824424,128.15267175572518,11.816793893129772,7.4566406249999995,52.8984375,-63.178124999999994,
1749734894.6225255,2025-06-12 20:28:14.622,31.01587444214814,-13.201627954101562,-1.6903063720703124,3.347093920898437,-9.335877862595419,-40.06106870229008,-11.381679389312977,7.6341796875,52.7197265625,-65.0666015625,
1749734894.6361248,2025-06-12 20:28:14.636,31.782639949681013,-7.697358337402343,-4.261678955078125,17.29571279296875,24.35114503816794,-4.526717557251908,15.610687022900763,5.8587890625,53.0771484375,-63.693164062499996,
1749734894.6498003,2025-06-12 20:28:14.649,30.96795159792734,8.741230261230468,3.3446997192382812,13.563152404785155,8.290076335877863,64.54198473282443,-1.7633587786259541,6.746484375,53.255859375,-63.521484375,
1749734894.6633482,2025-06-12 20:28:14.663,32.40563692455147,-14.322114331054687,-3.8091748413085935,12.27028350830078,4.679389312977099,-26.984732824427482,-8.297709923664122,8.876953125,52.8984375,-64.5515625,
1749734894.6776395,2025-06-12 20:28:14.677,31.83056279390182,11.06360587158203,0.05746083984375,8.858546142578124,22.19083969465649,-5.603053435114504,6.083969465648855,6.746484375,52.541015625,-63.178124999999994,
1749734894.6934469,2025-06-12 20:28:14.693,31.6388714170186,-16.55590447998047,-0.14125789794921875,8.068459594726562,9.67175572519084,4.648854961832061,-10.992366412213741,6.5689453124999995,53.7919921875,-62.319726562499994,
1749734894.7076905,2025-06-12 20:28:14.707,31.782639949681013,-10.59194814453125,-8.334215979003906,13.302184423828125,2.213740458015267,-41.6412213740458,12.954198473282442,6.746484375,52.18359375,-63.86484375,
1749734894.721153,2025-06-12 20:28:14.721,30.96795159792734,5.291185668945312,7.635109094238281,11.765106958007811,1.4122137404580153,4.66412213740458,5.625954198473282,7.1015625,52.8984375,-63.86484375,
1749734894.7340462,2025-06-12 20:28:14.734,31.063797286368946,2.01112939453125,2.521094348144531,4.666299035644531,-2.5419847328244276,45.74809160305343,-7.885496183206107,7.6341796875,54.5068359375,-63.693164062499996,
1749734894.747292,2025-06-12 20:28:14.747,31.01587444214814,10.295067138671874,-5.6311623046875,19.61270144958496,22.717557251908396,2.5801526717557253,-2.3740458015267176,7.81171875,51.111328125,-62.834765624999996,
1749734894.7607281,2025-06-12 20:28:14.760,31.83056279390182,-2.4301146850585935,8.602366564941406,4.826710546875,-11.221374045801527,-33.98473282442748,1.2671755725190839,7.81171875,53.255859375,-62.834765624999996,
1749734894.7739465,2025-06-12 20:28:14.773,31.447180040135382,-5.877765075683594,4.398148449707031,9.624690673828125,-10.916030534351146,-19.198473282442748,1.3206106870229009,7.81171875,54.328125,-64.208203125,
1749734894.786803,2025-06-12 20:28:14.786,31.73471710546021,13.17050333251953,5.310339282226562,19.61270144958496,0.04580152671755725,-85.47328244274809,-0.9694656488549618,7.279101562499999,52.0048828125,-63.693164062499996,
1749734894.799764,2025-06-12 20:28:14.799,32.21394554766825,1.5610194824218748,6.0716954101562495,7.71890615234375,-3.312977099236641,23.16030534351145,-6.656488549618321,7.6341796875,52.0048828125,-63.693164062499996,
1749734894.8151379,2025-06-12 20:28:14.815,32.357714080330666,7.941566906738281,-5.66946953125,9.782707983398437,0.29770992366412213,6.908396946564886,-17.396946564885496,7.4566406249999995,53.970703125,-63.178124999999994,
1749734894.8289735,2025-06-12 20:28:14.828,32.30979123610986,-12.983755603027342,-0.4525041137695312,11.633425866699218,26.46564885496183,-50.274809160305345,-0.9236641221374046,,,,81.59962146205852
1749734894.8425808,2025-06-12 20:28:14.842,31.782639949681013,12.567164514160156,5.753266589355468,11.183315954589844,-16.541984732824428,72.30534351145039,15.603053435114504,6.036328125,52.8984375,-63.521484375,
1749734894.856321,2025-06-12 20:28:14.856,31.447180040135382,-4.388571643066406,1.197100830078125,4.604049792480469,1.1374045801526718,-91.33587786259542,-0.8931297709923665,6.036328125,53.255859375,-62.834765624999996,
1749734894.8699872,2025-06-12 20:28:14.869,31.543025728576993,1.8555062866210936,1.7094599853515624,17.46091270751953,4.1679389312977095,62.58015267175573,6.709923664122138,7.6341796875,52.7197265625,-63.693164062499996,
1749734894.8836086,2025-06-12 20:28:14.883,31.83056279390182,-16.486472631835937,7.359775903320312,-4.592078784179687,3.480916030534351,17.0381679389313,-6.221374045801527,7.1015625,53.255859375,-62.148046875,
1749734894.89696,2025-06-12 20:28:14.896,31.73471710546021,15.974113476562499,2.023100402832031,19.61270144958496,14.145038167938932,-39.732824427480914,-1.8778625954198473,7.4566406249999995,52.8984375,-64.5515625,
1749734894.9107182,2025-06-12 20:28:14.910,32.30979123610986,-4.568136767578125,-4.465186096191406,8.657433203124999,15.48091603053435,17.671755725190838,7.587786259541985,7.279101562499999,53.0771484375,-62.6630859375,
1749734894.925784,2025-06-12 20:28:14.925,31.782639949681013,-11.535263598632811,5.343858105468749,1.3144167114257812,7.923664122137405,-9.17557251908397,-7.702290076335878,7.6341796875,54.8642578125,-64.3798828125,
1749734894.9394414,2025-06-12 20:28:14.939,31.063797286368946,-11.094730493164063,-10.874463940429687,7.50821640625,-13.351145038167939,-135.8091603053435,19.595419847328245,,,,81.81259064165772
1749734894.952986,2025-06-12 20:28:14.952,31.83056279390182,-10.50815108642578,10.946289990234375,11.417947717285156,3.66412213740458,67.5114503816794,-2.549618320610687,6.9240234375,52.7197265625,-65.0666015625,
1749734894.9664764,2025-06-12 20:28:14.966,31.73471710546021,-9.016563452148437,4.556165759277343,-4.450820886230469,6.801526717557252,-112.30534351145039,-2.732824427480916,6.5689453124999995,53.7919921875,-61.976367187499996,
1749734894.980128,2025-06-12 20:28:14.980,31.782639949681013,-3.3686417358398435,-1.2952630981445312,19.61270144958496,12.687022900763358,91.3206106870229,-0.7938931297709924,7.81171875,52.541015625,-64.894921875,
1749734894.993705,2025-06-12 20:28:14.993,32.357714080330666,-11.942277880859374,0.9696516723632812,-5.238513232421875,19.96946564885496,-74.98473282442748,-23.984732824427482,7.9892578125,52.7197265625,-64.0365234375,
1749734895.007323,2025-06-12 20:28:15.007,31.73471710546021,-3.1100679565429687,0.4381389038085937,6.766013891601562,11.48091603053435,34.41984732824427,5.259541984732825,6.036328125,54.685546875,-64.5515625,
1749734895.0210254,2025-06-12 20:28:15.021,31.01587444214814,-10.71884083251953,-7.7787611938476555,13.646949462890625,-1.4961832061068703,-48.29770992366412,6.175572519083969,6.9240234375,50.9326171875,-65.0666015625,
1749734895.0358849,2025-06-12 20:28:15.035,31.926408482343426,-5.274426257324219,6.059724401855468,1.3024457031249999,20.549618320610687,-1.5267175572519085,-0.061068702290076333,7.4566406249999995,52.541015625,-62.834765624999996,82.25033732889588
1749734895.053298,2025-06-12 20:28:15.053,32.21394554766825,-7.620743884277343,-5.702988354492187,18.50717883300781,-7.5038167938931295,-107.44274809160305,1.618320610687023,7.9892578125,52.0048828125,-64.72324218749999,
1749734895.067505,2025-06-12 20:28:15.067,31.782639949681013,4.754884497070313,4.067748620605468,8.396465222167969,7.801526717557252,-47.908396946564885,15.412213740458014,5.6812499999999995,52.541015625,-62.49140625,
1749734895.0812287,2025-06-12 20:28:15.081,31.543025728576993,-3.5242648437499997,4.094084838867187,6.488286499023437,15.244274809160306,56.29770992366412,7.412213740458015,6.746484375,53.970703125,-63.178124999999994,
1749734895.09477,2025-06-12 20:28:15.094,32.30979123610986,-2.27927998046875,-11.413159313964844,9.253589416503905,7.137404580152672,-89.12977099236642,1.083969465648855,7.81171875,52.18359375,-63.86484375,
1749734895.1082816,2025-06-12 20:28:15.108,32.30979123610986,-1.9512743530273435,-4.872200378417968,7.125144140624999,18.47328244274809,173.51908396946564,6.4961832061068705,6.746484375,50.75390625,-62.49140625,
1749734895.1221387,2025-06-12 20:28:15.122,31.73471710546021,1.8243816650390623,4.642357019042969,2.310404602050781,3.595419847328244,-75.74809160305344,3.2213740458015265,6.5689453124999995,52.7197265625,-65.0666015625,
1749734895.135934,2025-06-12 20:28:15.135,32.21394554766825,-15.322890625,-11.068394274902342,13.338097448730467,20.923664122137403,-36.31297709923664,3.3053435114503817,6.746484375,52.541015625,-64.894921875,
1749734895.1508968,2025-06-12 20:28:15.150,31.01587444214814,5.204994409179688,11.286266625976562,1.9512743530273435,-0.2748091603053435,-4.427480916030534,1.7328244274809161,6.036328125,53.255859375,-62.148046875,
1749734895.1644256,2025-06-12 20:28:15.164,31.01587444214814,-9.41639512939453,1.886630908203125,5.2816088623046875,6.0458015267175576,-21.480916030534353,1.618320610687023,7.6341796875,53.7919921875,-64.0365234375,
1749734895.178013,2025-06-12 20:28:15.178,32.40563692455147,6.823474731445312,2.3535002319335936,17.712303881835936,23.557251908396946,-3.7480916030534353,11.038167938931299,7.9892578125,53.0771484375,-63.693164062499996,
1749734895.1919017,2025-06-12 20:28:15.191,32.21394554766825,3.0023288818359375,5.578489868164062,7.912836486816405,-5.458015267175573,40.36641221374046,4.251908396946565,6.39140625,53.61328125,-62.49140625,
1749734895.2053812,2025-06-12 20:28:15.205,31.926408482343426,-19.6133,-5.173869787597656,-0.5123591552734374,14.954198473282442,11.259541984732824,0.7175572519083969,7.279101562499999,53.7919921875,-63.693164062499996,
1749734895.219145,2025-06-12 20:28:15.219,31.73471710546021,6.0884548217773435,4.228160131835938,17.83680236816406,16.84732824427481,-38.33587786259542,15.954198473282442,7.4566406249999995,52.8984375,-62.49140625,
1749734895.2327235,2025-06-12 20:28:15.232,31.01587444214814,-0.2705447875976562,4.355052819824219,10.026916552734374,6.458015267175573,-72.58778625954199,12.282442748091603,6.746484375,54.328125,-62.49140625,
1749734895.2463143,2025-06-12 20:28:15.246,31.73471710546021,5.003881469726562,4.637568615722656,7.599196069335937,-4.412213740458015,-17.72519083969466,-4.458015267175573,7.279101562499999,52.7197265625,-62.6630859375,
1749734895.260726,2025-06-12 20:28:15.260,31.926408482343426,6.9336080078124995,-6.528987927246093,11.310208642578125,26.763358778625953,-53.969465648854964,15.076335877862595,,,,
1749734895.270084,2025-06-12 20:28:15.270,32.40563692455147,-6.110002636718749,4.225765930175781,-4.996698864746094,17.6793893129771,-39.656488549618324,-3.877862595419847,6.39140625,52.541015625,-63.521484375,
1749734895.2834058,2025-06-12 20:28:15.283,31.063797286368946,8.183381274414062,3.4644098022460934,10.618284362792968,-6.709923664122138,4.152671755725191,5.442748091603053,7.6341796875,53.7919921875,-63.693164062499996,
1749734895.2961957,2025-06-12 20:28:15.296,31.83056279390182,-3.507505432128906,-1.7166425903320313,13.326126440429686,36.778625954198475,21.671755725190838,-4.0534351145038165,7.279101562499999,50.5751953125,-62.319726562499994,
1749734895.3093486,2025-06-12 20:28:15.309,31.543025728576993,9.97903251953125,4.383783239746093,7.331045483398437,3.3435114503816794,32.29007633587786,3.801526717557252,6.39140625,52.18359375,-62.834765624999996,
1749734895.3233397,2025-06-12 20:28:15.323,31.782639949681013,-6.215347509765625,-0.8355763793945312,4.53940634765625,-17.17557251908397,-59.030534351145036,-6.206106870229007,8.166796875,53.255859375,-63.521484375,
1749734895.337019,2025-06-12 20:28:15.337,31.83056279390182,2.5737667846679684,-0.03591302490234375,15.157690710449218,18.885496183206108,-28.213740458015266,14.305343511450381,5.1486328125,51.6474609375,-62.6630859375,82.24265637495056
1749734895.3544104,2025-06-12 20:28:15.354,31.73471710546021,-0.9313444458007812,5.181052392578125,3.6296097167968746,-2.648854961832061,-31.641221374045802,1.9694656488549618,6.39140625,53.970703125,-62.834765624999996,
1749734895.369028,2025-06-12 20:28:15.369,31.543025728576993,-7.7979148071289055,-9.749189160156249,11.67652149658203,12.86259541984733,-74.7557251908397,-6.320610687022901,7.1015625,52.8984375,-64.208203125,
1749734895.3834512,2025-06-12 20:28:15.383,31.782639949681013,7.4603323730468745,-1.149216796875,11.626243261718749,-13.82442748091603,-8.687022900763358,-9.114503816793894,7.81171875,53.255859375,-63.521484375,
1749734895.397181,2025-06-12 20:28:15.397,31.974331326564233,-16.548721875,-5.128379956054687,15.837643981933592,-4.473282442748092,17.541984732824428,1.1526717557251909,5.8587890625,52.7197265625,-62.6630859375,83.61830204665551
1749734895.4146156,2025-06-12 20:28:15.414,31.926408482343426,-10.031704956054687,-1.1540052001953125,16.010026501464843,34.49618320610687,-15.106870229007633,0.8091603053435115,7.1015625,51.826171875,-65.23828125,
1749734895.428683,2025-06-12 20:28:15.428,32.40563692455147,12.332532751464843,-1.1851298217773436,8.348581188964843,1.6564885496183206,4.0458015267175576,8.435114503816793,8.3443359375,54.5068359375,-63.3498046875,
1749734895.4423313,2025-06-12 20:28:15.442,31.782639949681013,-14.14733760986328,-2.3319524169921872,16.927005737304686,7.801526717557252,29.106870229007633,-5.656488549618321,7.9892578125,51.2900390625,-63.0064453125,
1749734895.4559495,2025-06-12 20:28:15.455,31.20756581903136,8.923189587402343,0.39264907226562495,12.548010900878905,18.908396946564885,-14.854961832061068,-0.6030534351145038,7.81171875,52.541015625,-64.5515625,
1749734895.4694347,2025-06-12 20:28:15.469,30.96795159792734,-19.6133,-3.0741549316406247,5.645527514648437,1.465648854961832,19.709923664122137,-4.984732824427481,7.9892578125,52.3623046875,-64.0365234375,
1749734895.4845073,2025-06-12 20:28:15.484,31.590948572797796,-10.01733974609375,-3.153163586425781,13.005303417968749,21.717557251908396,7.366412213740458,-7.66412213740458,7.9892578125,52.7197265625,-61.976367187499996,
1749734895.498095,2025-06-12 20:28:15.498,31.782639949681013,5.954379528808594,0.28969840087890625,13.297396020507811,10.34351145038168,40.57251908396947,7.961832061068702,6.036328125,53.61328125,-64.208203125,80.75309015794875
1749734895.5154412,2025-06-12 20:28:15.515,32.40563692455147,-2.463633508300781,2.061407629394531,-0.17477672119140625,10.786259541984732,-14.908396946564885,-19.908396946564885,7.81171875,52.541015625,-64.894921875,
1749734895.5290477,2025-06-12 20:28:15.529,31.926408482343426,-2.094926452636719,-4.656722229003906,19.61270144958496,24.99236641221374,32.74045801526717,1.5725190839694656,6.39140625,51.826171875,-63.521484375,
1749734895.5427032,2025-06-12 20:28:15.542,31.590948572797796,-16.56787548828125,0.5219359619140624,9.775525378417969,-16.091603053435115,-7.1603053435114505,14.19083969465649,8.876953125,53.61328125,-63.521484375,
1749734895.5564084,2025-06-12 20:28:15.556,32.21394554766825,19.61270144958496,1.5251064575195312,14.681244580078124,-4.404580152671755,-32.587786259541986,7.312977099236641,8.3443359375,52.0048828125,-63.693164062499996,
1749734895.56999,2025-06-12 20:28:15.569,31.782639949681013,-19.6133,-0.3591302490234375,6.452373474121093,29.801526717557252,55.6412213740458,9.396946564885496,6.2138671875,51.2900390625,-64.3798828125,
1749734895.583539,2025-06-12 20:28:15.583,31.6388714170186,3.6367923217773437,2.9185318237304685,8.087613208007811,0.3053435114503817,2.2442748091603053,8.244274809160306,7.4566406249999995,53.970703125,-62.49140625,
1749734895.5987864,2025-06-12 20:28:15.598,31.73471710546021,-8.259995727539062,1.1875240234375,13.673285681152343,-1.9694656488549618,-12.84732824427481,-5.198473282442748,7.81171875,51.46875,-64.894921875,
1749734895.612614,2025-06-12 20:28:15.612,31.83056279390182,19.18952630615234,2.5857377929687497,12.777854260253905,12.854961832061068,-12.007633587786259,8.16030534351145,6.5689453124999995,51.2900390625,-63.3498046875,
1749734895.626428,2025-06-12 20:28:15.626,32.357714080330666,-13.857639208984374,3.6343981201171873,3.9264907226562498,-1.1755725190839694,49.969465648854964,-6.755725190839694,5.6812499999999995,53.255859375,-63.178124999999994,
1749734895.6400268,2025-06-12 20:28:15.640,31.83056279390182,11.10191309814453,-3.9336733276367184,11.365275280761718,1.3358778625954197,-118.37404580152672,1.297709923664122,7.4566406249999995,53.255859375,-63.521484375,
1749734895.6535044,2025-06-12 20:28:15.653,31.782639949681013,5.351040710449219,2.6815058593749996,14.171279626464843,27.702290076335878,82.31297709923665,-7.061068702290076,6.9240234375,53.0771484375,-63.0064453125,
1749734895.6669877,2025-06-12 20:28:15.666,31.83056279390182,2.3918074584960936,4.726154077148437,2.703053674316406,-5.587786259541985,-76.54198473282443,-2.7709923664122136,7.1015625,52.541015625,-64.208203125,
1749734895.680445,2025-06-12 20:28:15.680,31.6388714170186,16.091429357910155,-2.080561242675781,19.61270144958496,-5.015267175572519,-62.68702290076336,-3.9083969465648853,7.81171875,51.111328125,-64.894921875,
1749734895.6940193,2025-06-12 20:28:15.694,31.20756581903136,-1.6017209106445311,-1.9704279663085937,-1.3359645263671873,42.83206106870229,27.404580152671755,-5.412213740458015,5.326171875,53.61328125,-63.521484375,
1749734895.7090456,2025-06-12 20:28:15.709,31.782639949681013,-11.305420239257812,-4.034229797363281,4.7381250854492185,10.099236641221374,-9.251908396946565,-6.267175572519084,6.5689453124999995,52.0048828125,-63.3498046875,
1749734895.7226799,2025-06-12 20:28:15.722,31.01587444214814,-3.6727053466796873,-0.4955997436523437,15.950171459960936,10.98473282442748,-9.465648854961833,11.213740458015268,,,,81.92250393439205
1749734895.7363071,2025-06-12 20:28:15.736,30.96795159792734,3.6056677001953124,3.1100679565429687,10.237606298828124,8.778625954198473,48.961832061068705,0.32061068702290074,7.4566406249999995,52.8984375,-63.521484375,
1749734895.7498262,2025-06-12 20:28:15.749,32.40563692455147,-12.440271826171875,-1.2665326782226562,1.3048399047851562,3.381679389312977,-86.07633587786259,7.3893129770992365,6.036328125,53.255859375,-62.834765624999996,
1749734895.7633286,2025-06-12 20:28:15.763,31.83056279390182,-6.026205578613281,-2.051830822753906,19.61270144958496,11.32824427480916,62.50381679389313,11.770992366412214,6.39140625,51.46875,-64.208203125,
1749734895.7769058,2025-06-12 20:28:15.776,32.21394554766825,3.0262708984374997,0.8738836059570312,4.2521021484374995,-3.633587786259542,-7.1679389312977095,-2.763358778625954,7.9892578125,53.7919921875,-65.4099609375,
1749734895.7904186,2025-06-12 20:28:15.790,31.83056279390182,3.1747114013671873,9.337386474609374,3.555389465332031,7.244274809160306,-29.9618320610687,-15.290076335877863,7.6341796875,53.0771484375,-64.72324218749999,
1749734895.803967,2025-06-12 20:28:15.803,32.07017701500584,7.35438894958496,1.8052280517578123,14.484920043945312,5.709923664122138,-130.83969465648855,10.511450381679388,7.279101562499999,54.5068359375,-62.319726562499994,
