timestamp_unix,timestamp_readable,temp_c,accel_x,accel_y,accel_z,gyro_x,gyro_y,gyro_z,mag_x,mag_y,mag_z,heading
1749736410.5229273,2025-06-12 20:53:30.522,31.495102884356186,-8.44674345703125,-3.277662072753906,14.60702432861328,24.946564885496183,-76.62595419847328,6.114503816793893,72.25839843749999,52.3623046875,-60.259570312499996,
1749736410.5380743,2025-06-12 20:53:30.538,30.872105909485725,10.120290417480469,3.5146880371093747,9.107543115234375,10.98473282442748,-6.312977099236641,6.526717557251908,72.25839843749999,53.4345703125,-60.9462890625,
1749736410.552427,2025-06-12 20:53:30.552,30.920028753706532,-1.6639701538085936,3.1028853515624997,6.224924316406249,-5.648854961832061,-3.7404580152671754,-6.801526717557252,72.791015625,52.8984375,-60.774609375,
1749736410.5656033,2025-06-12 20:53:30.565,30.920028753706532,2.770091320800781,4.4196962646484375,16.163255407714843,23.267175572519083,-59.54961832061068,7.358778625954199,71.1931640625,51.6474609375,-61.6330078125,
1749736410.581373,2025-06-12 20:53:30.581,30.680414532602512,-13.587094421386718,2.2002713256835937,4.388571643066406,2.099236641221374,27.46564885496183,4.534351145038168,71.9033203125,55.5791015625,-60.602929687499994,
1749736410.5964582,2025-06-12 20:53:30.596,30.440800311498485,0.7781155395507812,-1.0558429321289062,17.98524287109375,13.290076335877863,-30.198473282442748,-12.267175572519085,72.25839843749999,52.7197265625,-59.9162109375,
1749736410.6125784,2025-06-12 20:53:30.612,31.686794261239406,-10.077194787597655,-0.9792284790039062,9.342174877929686,-7.694656488549619,-52.916030534351144,-7.488549618320611,73.3236328125,53.7919921875,-59.5728515625,
1749736410.6283555,2025-06-12 20:53:30.628,30.77626022104412,4.414907861328125,1.350329736328125,5.197811804199218,2.2442748091603053,-31.625954198473284,-7.809160305343512,71.9033203125,53.7919921875,-60.602929687499994,
1749736410.6419451,2025-06-12 20:53:30.641,31.111720130589752,4.678270043945313,0.23223756103515625,18.93574093017578,4.175572519083969,-47.88549618320611,0.5572519083969466,73.6787109375,52.0048828125,-60.259570312499996,
1749736410.6568363,2025-06-12 20:53:30.656,30.920028753706532,0.9624690673828125,0.2154781494140625,3.9911341674804683,10.534351145038167,-32.52671755725191,-6.519083969465649,71.5482421875,52.3623046875,-61.6330078125,
1749736410.6752656,2025-06-12 20:53:30.675,31.01587444214814,4.2497079467773435,-0.5985504150390625,19.61270144958496,1.2290076335877862,-83.18320610687023,-5.9465648854961835,,,,35.84808328934849
1749736410.688522,2025-06-12 20:53:30.688,30.440800311498485,8.693346228027343,1.5682020874023437,9.497797985839844,17.763358778625953,50.58015267175573,7.7251908396946565,72.080859375,52.541015625,-61.461328124999994,
1749736410.7021122,2025-06-12 20:53:30.702,31.6388714170186,-2.89219560546875,3.1842882080078123,-0.5698199951171875,13.01526717557252,-30.374045801526716,-10.83969465648855,74.3888671875,54.1494140625,-59.9162109375,
1749736410.7162879,2025-06-12 20:53:30.716,31.495102884356186,-1.177947216796875,1.8171990600585937,11.077971081542968,17.9618320610687,-24.72519083969466,-9.198473282442748,72.9685546875,51.2900390625,-60.602929687499994,
1749736410.7303603,2025-06-12 20:53:30.730,31.01587444214814,-10.587159741210938,-0.15322890625,10.692504614257812,12.488549618320612,88.22137404580153,4.091603053435114,72.791015625,53.61328125,-61.117968749999996,
1749736410.7438858,2025-06-12 20:53:30.743,31.686794261239406,-9.181763366699219,-0.5698199951171875,3.1699229980468746,7.0458015267175576,-26.87786259541985,-3.3206106870229006,71.5482421875,54.5068359375,-59.5728515625,
1749736410.7579157,2025-06-12 20:53:30.757,31.543025728576993,7.644685900878906,-7.316680273437499,19.268534960937497,25.458015267175572,-17.587786259541986,4.0534351145038165,72.6134765625,52.0048828125,-60.259570312499996,
1749736410.7718456,2025-06-12 20:53:30.771,31.111720130589752,6.368576416015625,-1.889025109863281,9.627084875488281,11.603053435114504,35.80916030534351,-0.9389312977099237,72.791015625,53.61328125,-59.744531249999994,
1749736410.7873564,2025-06-12 20:53:30.787,31.111720130589752,-2.8203695556640622,-1.1252747802734375,7.000645654296875,-5.198473282442748,-22.49618320610687,-0.5114503816793893,72.791015625,53.61328125,-61.461328124999994,
1749736410.801073,2025-06-12 20:53:30.801,30.249108934615272,-0.9217676391601562,-2.4779987182617185,15.667655664062499,10.114503816793894,50.51908396946565,-5.129770992366412,72.791015625,52.18359375,-60.43125,
1749736410.8149736,2025-06-12 20:53:30.814,31.01587444214814,-9.009380847167968,-2.085349645996094,-0.3806780639648437,3.16793893129771,-17.0381679389313,-3.2213740458015265,73.14609374999999,53.970703125,-59.744531249999994,
1749736410.8286717,2025-06-12 20:53:30.828,31.063797286368946,0.8116343627929687,-3.438073583984375,19.438523278808592,-5.358778625954199,-11.427480916030534,-5.572519083969466,72.6134765625,53.0771484375,-60.602929687499994,
1749736410.8424606,2025-06-12 20:53:30.842,31.01587444214814,-9.4618849609375,2.518700146484375,8.166621862792969,14.51908396946565,-15.0,-8.770992366412214,73.14609374999999,52.18359375,-60.087890625,37.09666214661332
1749736410.8592653,2025-06-12 20:53:30.859,31.686794261239406,-6.842628344726562,0.2920926025390625,-2.9041666137695312,7.206106870229007,-44.786259541984734,-11.900763358778626,72.791015625,52.18359375,-60.43125,
1749736410.8726826,2025-06-12 20:53:30.872,31.063797286368946,-0.5099649536132812,-4.199429711914062,14.30774912109375,6.267175572519084,-44.79389312977099,0.9007633587786259,73.14609374999999,53.970703125,-60.43125,
1749736410.8864126,2025-06-12 20:53:30.886,31.686794261239406,1.7621324218749999,1.4030021728515625,4.149151477050781,12.625954198473282,0.816793893129771,5.580152671755725,73.14609374999999,54.328125,-60.43125,
1749736410.9020386,2025-06-12 20:53:30.902,30.249108934615272,-2.96881005859375,0.062249243164062495,1.37906015625,7.923664122137405,-23.480916030534353,-3.801526717557252,72.25839843749999,53.7919921875,-61.2896484375,
1749736410.9153502,2025-06-12 20:53:30.915,31.01587444214814,-6.957550024414062,-4.611232397460937,19.46485949707031,21.091603053435115,-49.54961832061068,1.3206106870229009,73.85625,53.255859375,-60.774609375,
1749736410.9282916,2025-06-12 20:53:30.928,30.920028753706532,19.596540588378904,4.584896179199219,11.686098303222655,6.412213740458015,-28.885496183206108,0.6183206106870229,73.14609374999999,54.328125,-60.774609375,
1749736410.9411085,2025-06-12 20:53:30.941,31.6388714170186,4.637568615722656,-2.3870190551757813,4.472368701171875,11.15267175572519,-4.862595419847328,-9.114503816793894,73.501171875,52.541015625,-59.401171874999996,
1749736410.9539213,2025-06-12 20:53:30.953,30.34495462305688,-10.91037696533203,2.7054478759765623,11.614272253417967,-10.564885496183207,18.47328244274809,-2.122137404580153,73.3236328125,50.9326171875,-60.9462890625,
1749736410.96686,2025-06-12 20:53:30.966,30.249108934615272,-4.623203405761719,2.0566192260742184,13.287819213867186,16.595419847328245,19.702290076335878,3.549618320610687,,,,36.75358005205387
1749736410.9797611,2025-06-12 20:53:30.979,31.01587444214814,-3.5410242553710933,6.967126831054687,3.399766357421875,4.4961832061068705,18.709923664122137,-5.557251908396947,72.25839843749999,53.7919921875,-60.259570312499996,
1749736410.9926152,2025-06-12 20:53:30.992,31.111720130589752,-2.7557261108398436,-3.679887951660156,19.61270144958496,4.557251908396947,-22.297709923664122,4.938931297709924,72.4359375,51.46875,-59.744531249999994,
1749736411.0068867,2025-06-12 20:53:31.006,31.20756581903136,-4.774038110351563,1.8076222534179687,1.675941162109375,23.435114503816795,-0.1297709923664122,-7.587786259541985,72.791015625,53.61328125,-59.401171874999996,
1749736411.0204592,2025-06-12 20:53:31.020,31.111720130589752,3.909731311035156,1.66636435546875,9.354145886230468,0.5648854961832062,-26.129770992366414,3.801526717557252,71.72578125,53.970703125,-62.148046875,
1749736411.0333867,2025-06-12 20:53:31.033,31.01587444214814,-2.43250888671875,-1.9680337646484374,16.2805712890625,9.664122137404581,25.870229007633586,9.022900763358779,72.080859375,53.255859375,-60.43125,
1749736411.0461373,2025-06-12 20:53:31.046,31.686794261239406,-6.880935571289062,-2.0470424194335934,9.220070593261719,11.183206106870228,59.2442748091603,8.786259541984732,72.791015625,50.75390625,-60.43125,
1749736411.0589466,2025-06-12 20:53:31.058,31.20756581903136,-12.39238779296875,6.315903979492187,-0.7852981445312499,6.557251908396947,-7.809160305343512,-4.801526717557252,71.015625,52.8984375,-61.461328124999994,
1749736411.0716927,2025-06-12 20:53:31.071,31.30341150747297,-11.626243261718749,-8.667010009765624,12.061987963867187,10.221374045801527,16.053435114503817,7.755725190839694,72.25839843749999,52.0048828125,-61.6330078125,
1749736411.0844986,2025-06-12 20:53:31.084,31.686794261239406,-3.0933085449218747,-3.289633081054687,7.082048510742187,14.80916030534351,53.465648854961835,0.06870229007633588,73.6787109375,52.3623046875,-61.6330078125,
1749736411.0971923,2025-06-12 20:53:31.097,31.063797286368946,-10.24000050048828,-2.3056161987304686,-4.841075756835937,7.793893129770993,-9.67175572519084,-14.526717557251908,72.080859375,52.8984375,-61.461328124999994,
1749736411.1108246,2025-06-12 20:53:31.110,30.5366459999401,0.6823474731445313,-6.751648681640624,17.374721447753906,4.435114503816794,13.580152671755725,6.183206106870229,72.4359375,53.970703125,-61.117968749999996,36.22375418270338
1749736411.1310217,2025-06-12 20:53:31.131,31.6388714170186,8.951920007324219,0.47165772705078124,7.651868505859374,0.48854961832061067,6.129770992366412,6.6106870229007635,72.4359375,53.61328125,-58.714453125,
1749736411.1454587,2025-06-12 20:53:31.145,31.063797286368946,-7.005434057617187,1.43652099609375,0.9888052856445312,2.2977099236641223,-1.8473282442748091,-8.320610687022901,73.501171875,51.111328125,-61.117968749999996,
1749736411.1613376,2025-06-12 20:53:31.161,31.255488663252166,-19.3068421875,-6.4284314575195305,9.660603698730467,-1.9389312977099236,67.50381679389314,22.557251908396946,73.501171875,53.255859375,-59.0578125,
1749736411.176424,2025-06-12 20:53:31.176,31.686794261239406,6.79953271484375,-0.8738836059570312,-1.5011644409179687,1.465648854961832,-50.961832061068705,-6.488549618320611,72.6134765625,53.7919921875,-60.602929687499994,
1749736411.1915057,2025-06-12 20:53:31.191,31.255488663252166,-8.382100012207031,-4.182670300292968,9.41639512939453,13.49618320610687,-3.0076335877862594,-25.259541984732824,73.14609374999999,52.541015625,-61.117968749999996,
1749736411.2064335,2025-06-12 20:53:31.206,31.01587444214814,12.976572998046874,1.1013327636718748,14.506467858886717,-5.687022900763359,-35.656488549618324,10.16793893129771,72.791015625,53.255859375,-60.43125,
1749736411.2213652,2025-06-12 20:53:31.221,31.20756581903136,-2.27927998046875,-0.41419688720703124,6.153098266601562,4.259541984732825,-41.458015267175576,-7.862595419847328,73.3236328125,52.7197265625,-60.602929687499994,
1749736411.2377799,2025-06-12 20:53:31.237,31.111720130589752,0.48123453369140623,-1.5275006591796874,14.465766430664061,13.068702290076336,67.6412213740458,4.9465648854961835,72.6134765625,52.7197265625,-59.2294921875,
1749736411.2523193,2025-06-12 20:53:31.252,31.20756581903136,-11.279084020996093,1.8555062866210936,-2.473210314941406,1.381679389312977,-70.74809160305344,0.11450381679389313,73.6787109375,53.7919921875,-59.9162109375,
1749736411.2668948,2025-06-12 20:53:31.266,31.01587444214814,-3.0238766967773434,-5.777208605957031,19.61270144958496,22.068702290076335,48.038167938931295,8.435114503816793,72.6134765625,51.6474609375,-59.9162109375,
1749736411.2813625,2025-06-12 20:53:31.281,31.20756581903136,1.7812860351562498,5.418078356933593,8.238447912597655,1.3893129770992367,-84.32824427480917,8.534351145038167,73.3236328125,52.0048828125,-60.259570312499996,
1749736411.2958267,2025-06-12 20:53:31.295,31.063797286368946,-10.558429321289061,-0.18435352783203124,6.387730029296875,-3.6030534351145036,64.29770992366412,4.702290076335878,72.9685546875,53.4345703125,-60.602929687499994,
1749736411.3102474,2025-06-12 20:53:31.310,31.447180040135382,-8.939948999023438,0.7493851196289062,17.02037960205078,30.061068702290076,21.82442748091603,3.3435114503816794,74.3888671875,50.9326171875,-60.259570312499996,
1749736411.3256755,2025-06-12 20:53:31.325,31.20756581903136,8.300697155761718,7.292738256835937,1.1276689819335937,5.465648854961832,-48.45038167938932,17.72519083969466,72.791015625,53.970703125,-60.43125,
1749736411.3414311,2025-06-12 20:53:31.341,31.01587444214814,-4.965574243164062,3.3782185424804685,10.747571252441405,-3.068702290076336,-80.07633587786259,12.572519083969466,73.3236328125,53.0771484375,-60.9462890625,
1749736411.357139,2025-06-12 20:53:31.357,31.20756581903136,-2.6192566162109374,-3.3351229125976563,13.860033410644531,20.27480916030534,83.03053435114504,12.01526717557252,72.9685546875,53.4345703125,-60.602929687499994,
1749736411.3747199,2025-06-12 20:53:31.374,31.063797286368946,1.2785036865234374,-2.0781670410156248,9.069235888671875,1.1450381679389312,33.603053435114504,-5.679389312977099,73.3236328125,54.1494140625,-62.6630859375,
1749736411.389761,2025-06-12 20:53:31.389,31.111720130589752,-2.808398547363281,-0.48123453369140623,13.690045092773437,20.244274809160306,-59.74809160305343,1.8244274809160306,71.9033203125,50.9326171875,-60.602929687499994,
1749736411.404332,2025-06-12 20:53:31.404,31.063797286368946,-11.415553515625,1.62805712890625,5.365405920410156,3.381679389312977,30.66412213740458,-0.5725190839694656,71.9033203125,53.0771484375,-58.886132812499994,
1749736411.4188647,2025-06-12 20:53:31.418,31.20756581903136,5.166687182617188,0.258573779296875,18.452112194824217,0.5954198473282443,12.206106870229007,-0.40458015267175573,72.6134765625,52.7197265625,-60.602929687499994,
1749736411.435078,2025-06-12 20:53:31.435,31.686794261239406,-7.644685900878906,4.127603662109375,5.904101293945312,7.099236641221374,9.229007633587786,4.106870229007634,73.3236328125,52.3623046875,-61.6330078125,
1749736411.450119,2025-06-12 20:53:31.450,31.447180040135382,-3.450044592285156,6.291961962890625,0.4429273071289062,11.244274809160306,30.30534351145038,4.198473282442748,73.14609374999999,52.8984375,-59.401171874999996,
1749736411.466544,2025-06-12 20:53:31.466,31.30341150747297,-2.1595698974609374,-7.376535314941406,19.61270144958496,19.244274809160306,34.55725190839695,-3.8091603053435112,73.3236328125,53.7919921875,-60.9462890625,
1749736411.481402,2025-06-12 20:53:31.481,31.255488663252166,5.432443566894531,1.637633935546875,9.923965881347655,2.6030534351145036,-1.1068702290076335,-0.45038167938931295,72.6134765625,52.7197265625,-60.259570312499996,
1749736411.4953904,2025-06-12 20:53:31.495,30.632491688381705,-1.216254443359375,1.1947066284179686,8.379705810546875,-7.076335877862595,-2.0916030534351147,2.763358778625954,73.501171875,53.970703125,-60.43125,
1749736411.510519,2025-06-12 20:53:31.510,31.111720130589752,-2.8730419921875,-0.11252747802734374,15.021221215820312,9.67175572519084,-20.33587786259542,15.877862595419847,73.14609374999999,51.826171875,-59.744531249999994,
1749736411.5246203,2025-06-12 20:53:31.524,31.063797286368946,-11.463437548828125,2.750937707519531,6.023811376953125,8.259541984732824,-66.99236641221374,-2.3206106870229006,72.6134765625,53.0771484375,-58.886132812499994,
1749736411.5397737,2025-06-12 20:53:31.539,31.39925719591458,5.530605834960937,-0.1005564697265625,18.53351505126953,-9.213740458015268,-67.47328244274809,-3.404580152671756,74.03378906249999,52.0048828125,-60.259570312499996,
1749736411.5544262,2025-06-12 20:53:31.554,31.20756581903136,5.444414575195312,1.4101847778320311,8.20971749267578,14.870229007633588,-8.48091603053435,-8.580152671755725,72.080859375,53.970703125,-61.117968749999996,
1749736411.5695736,2025-06-12 20:53:31.569,31.255488663252166,-6.974309436035155,1.0582371337890624,2.1811177124023438,-0.8473282442748091,16.709923664122137,2.1297709923664123,71.72578125,52.18359375,-60.774609375,
1749736411.584026,2025-06-12 20:53:31.584,31.255488663252166,-2.0159177978515626,-0.46208092041015625,18.160019592285156,11.374045801526718,-12.82442748091603,6.267175572519084,73.14609374999999,52.541015625,-60.43125,
1749736411.5983386,2025-06-12 20:53:31.598,31.111720130589752,13.405135095214844,4.347870214843749,3.5482068603515624,18.33587786259542,-86.50381679389314,-3.0916030534351147,72.791015625,52.541015625,-60.087890625,
1749736411.6119938,2025-06-12 20:53:31.611,31.20756581903136,-0.028730419921875,2.6527754394531247,10.955866796875,1.6412213740458015,43.396946564885496,-0.6793893129770993,72.4359375,52.541015625,-60.087890625,
1749736411.6254728,2025-06-12 20:53:31.625,31.255488663252166,-8.621520178222656,2.109291662597656,11.621454858398437,11.793893129770993,4.122137404580153,-1.748091603053435,73.3236328125,52.0048828125,-59.5728515625,36.13986769166852
1749736411.642603,2025-06-12 20:53:31.642,31.30341150747297,-8.576030346679687,4.350264416503906,1.687912170410156,-0.2595419847328244,-23.17557251908397,5.213740458015267,71.9033203125,51.6474609375,-59.9162109375,
1749736411.657339,2025-06-12 20:53:31.657,31.20756581903136,-12.61504854736328,-7.68059892578125,10.907982763671875,19.3206106870229,9.648854961832061,-2.236641221374046,73.85625,52.18359375,-61.117968749999996,
1749736411.6720557,2025-06-12 20:53:31.672,31.063797286368946,0.21068974609375,9.390058911132812,12.880804931640624,-9.244274809160306,-69.70229007633588,-0.2595419847328244,72.6134765625,52.7197265625,-60.259570312499996,
1749736411.6888714,2025-06-12 20:53:31.688,31.111720130589752,-4.3454760131835934,-4.132392065429687,1.0582371337890624,1.8854961832061068,-15.114503816793894,4.122137404580153,73.501171875,52.18359375,-59.401171874999996,
1749736411.7036932,2025-06-12 20:53:31.703,31.255488663252166,-2.729389892578125,-5.1882349975585935,16.079458349609375,20.717557251908396,-11.183206106870228,6.625954198473282,72.080859375,51.111328125,-60.087890625,
1749736411.7186975,2025-06-12 20:53:31.718,31.447180040135382,-9.18655177001953,2.8131869506835936,3.047818713378906,7.32824427480916,-54.06106870229008,9.893129770992367,72.080859375,54.685546875,-59.0578125,
1749736411.7336645,2025-06-12 20:53:31.733,31.20756581903136,0.6272808349609375,1.0271125122070313,13.230358374023437,10.49618320610687,-58.41984732824427,-2.381679389312977,72.9685546875,52.7197265625,-60.9462890625,
1749736411.7485483,2025-06-12 20:53:31.748,31.20756581903136,3.347093920898437,-0.36631285400390623,15.576676000976562,15.16030534351145,27.46564885496183,8.82442748091603,72.080859375,50.75390625,-60.087890625,
1749736411.7625642,2025-06-12 20:53:31.762,31.255488663252166,-12.567164514160156,1.9225439331054686,2.913743420410156,-3.0839694656488548,12.312977099236642,4.748091603053435,72.791015625,53.255859375,-61.8046875,
1749736411.7768955,2025-06-12 20:53:31.776,31.111720130589752,0.13407529296874998,-2.81558115234375,14.458583825683593,19.068702290076335,18.34351145038168,-17.946564885496183,73.3236328125,52.7197265625,-60.602929687499994,
1749736411.790583,2025-06-12 20:53:31.790,31.39925719591458,-3.2225954345703123,2.868253588867187,5.3007624755859375,16.763358778625953,2.854961832061069,-2.8625954198473282,71.37070312499999,53.61328125,-59.744531249999994,
1749736411.8043158,2025-06-12 20:53:31.804,31.111720130589752,2.789244934082031,3.806780639648437,10.168174450683592,-6.259541984732825,-16.954198473282442,-0.7480916030534351,72.25839843749999,52.7197265625,-61.2896484375,
1749736411.818498,2025-06-12 20:53:31.818,31.30341150747297,-4.65432802734375,-2.4779987182617185,14.35802735595703,14.419847328244275,5.8320610687022905,4.099236641221374,72.4359375,51.111328125,-59.744531249999994,
1749736411.8325918,2025-06-12 20:53:31.832,31.20756581903136,5.7125651611328125,4.060566015625,11.939883679199218,-6.229007633587786,-26.595419847328245,-3.114503816793893,71.1931640625,54.1494140625,-59.9162109375,
1749736411.8463235,2025-06-12 20:53:31.846,31.20756581903136,-14.719551806640624,-3.1411925781249996,2.549824768066406,3.8091603053435112,63.41984732824427,-12.106870229007633,72.080859375,55.04296875,-59.401171874999996,34.97287176279211
1749736411.8637388,2025-06-12 20:53:31.863,31.30341150747297,-9.09796630859375,1.659181750488281,15.543157177734374,17.015267175572518,20.519083969465647,-3.9389312977099236,72.6134765625,53.0771484375,-60.259570312499996,
1749736411.8774664,2025-06-12 20:53:31.877,31.20756581903136,-4.73094248046875,2.7461493041992187,10.383652600097655,0.35877862595419846,54.603053435114504,14.061068702290076,72.791015625,54.685546875,-60.087890625,
1749736411.8911173,2025-06-12 20:53:31.891,31.063797286368946,-0.36631285400390623,1.235408056640625,12.694057202148437,3.9923664122137406,-21.709923664122137,-2.6946564885496183,71.72578125,52.8984375,-59.401171874999996,
1749736411.9064717,2025-06-12 20:53:31.906,31.39925719591458,-2.4061726684570313,1.7860744384765623,3.0550013183593747,29.68702290076336,-14.854961832061068,17.99236641221374,69.950390625,51.111328125,-60.774609375,
1749736411.9206526,2025-06-12 20:53:31.920,31.255488663252166,2.849099975585937,7.1203557373046875,7.050923889160156,9.923664122137405,45.786259541984734,-9.297709923664122,71.9033203125,53.7919921875,-60.9462890625,
1749736411.9343643,2025-06-12 20:53:31.934,31.111720130589752,-0.1580173095703125,-9.730035546875,10.350133776855468,15.396946564885496,-47.0,-10.786259541984732,71.5482421875,52.0048828125,-60.602929687499994,
1749736411.948056,2025-06-12 20:53:31.948,31.39925719591458,13.960589880371092,2.559401574707031,8.927977990722656,6.9465648854961835,-19.068702290076335,-7.32824427480916,72.080859375,52.541015625,-60.43125,
1749736411.9618762,2025-06-12 20:53:31.961,31.30341150747297,3.1100679565429687,4.005499377441406,10.376469995117187,-11.526717557251908,-18.717557251908396,5.564885496183206,72.080859375,52.541015625,-61.117968749999996,
1749736411.9757874,2025-06-12 20:53:31.975,31.30341150747297,-1.8243816650390623,0.3327940307617187,12.586318127441405,24.49618320610687,-26.31297709923664,9.618320610687023,73.6787109375,51.2900390625,-60.9462890625,
1749736411.989592,2025-06-12 20:53:31.989,31.30341150747297,0.8667010009765624,5.781997009277344,0.5746083984375,24.16793893129771,16.977099236641223,-0.2748091603053435,72.25839843749999,52.7197265625,-58.886132812499994,
1749736412.0033562,2025-06-12 20:53:32.003,31.111720130589752,-4.570530969238281,-0.2561795776367187,3.687070556640625,-6.923664122137405,-70.13740458015268,-6.8396946564885495,72.9685546875,53.0771484375,-60.9462890625,
1749736412.0182083,2025-06-12 20:53:32.018,31.111720130589752,2.6144682128906247,-0.17956512451171874,19.50556092529297,11.83206106870229,-2.7938931297709924,3.3893129770992365,71.9033203125,52.3623046875,-61.2896484375,
1749736412.0318658,2025-06-12 20:53:32.031,31.30341150747297,-7.268796240234375,6.5385647338867185,10.709264025878905,-1.4885496183206106,68.30534351145039,9.030534351145038,71.72578125,51.826171875,-60.087890625,
1749736412.0451105,2025-06-12 20:53:32.045,31.255488663252166,-13.194445349121093,-2.9281086303710935,11.288660827636718,-1.9389312977099236,-2.2900763358778624,1.5190839694656488,73.6787109375,52.7197265625,-60.259570312499996,
1749736412.0585015,2025-06-12 20:53:32.058,31.30341150747297,-1.0103531005859374,-2.825157958984375,11.382034692382812,9.030534351145038,-18.80916030534351,-6.137404580152672,71.9033203125,51.2900390625,-60.259570312499996,
1749736412.0719018,2025-06-12 20:53:32.071,31.20756581903136,1.4221557861328125,-3.277662072753906,5.97592734375,-10.801526717557252,-7.145038167938932,15.541984732824428,72.25839843749999,53.4345703125,-60.602929687499994,
1749736412.0846841,2025-06-12 20:53:32.084,31.255488663252166,6.361393811035156,1.5777788940429687,15.811307763671874,8.16030534351145,-43.35114503816794,-4.145038167938932,71.5482421875,51.6474609375,-61.6330078125,
1749736412.0985036,2025-06-12 20:53:32.098,31.111720130589752,-15.435418103027343,-1.1037269653320312,15.643713647460936,12.511450381679388,87.09160305343511,-7.473282442748092,74.03378906249999,52.7197265625,-60.259570312499996,
1749736412.1125143,2025-06-12 20:53:32.112,31.447180040135382,0.03591302490234375,0.21308394775390624,7.125144140624999,-13.19083969465649,-102.45801526717557,23.69465648854962,72.080859375,54.328125,-60.087890625,
1749736412.1266463,2025-06-12 20:53:32.126,31.255488663252166,-19.04587420654297,-6.358999609374999,10.1131078125,17.435114503816795,39.30534351145038,-5.709923664122138,72.4359375,52.18359375,-60.774609375,
1749736412.142134,2025-06-12 20:53:32.142,31.30341150747297,3.394977954101562,-3.763685009765625,12.447454431152343,16.47328244274809,116.87786259541984,-0.04580152671755725,71.9033203125,55.2216796875,-60.259570312499996,
1749736412.1562788,2025-06-12 20:53:32.156,31.20756581903136,-17.681179260253906,0.8571241943359375,-1.6807295654296874,7.870229007633588,-28.916030534351144,-9.732824427480915,72.6134765625,52.7197265625,-60.602929687499994,
1749736412.1700902,2025-06-12 20:53:32.170,31.20756581903136,4.393360046386719,-7.141903552246093,19.61270144958496,26.671755725190838,0.31297709923664124,-1.1450381679389312,73.6787109375,52.0048828125,-61.6330078125,
1749736412.1846604,2025-06-12 20:53:32.184,31.447180040135382,0.26336218261718747,0.16759411621093748,4.019864587402344,4.877862595419847,-4.870229007633588,-7.404580152671755,74.03378906249999,52.3623046875,-60.602929687499994,
1749736412.1989806,2025-06-12 20:53:32.198,31.447180040135382,7.941566906738281,4.436455676269531,10.402806213378906,-0.09923664122137404,17.083969465648856,1.4274809160305344,72.4359375,52.18359375,-60.087890625,
1749736412.2134883,2025-06-12 20:53:32.213,31.255488663252166,-0.04548983154296875,5.844246252441406,10.27830772705078,10.267175572519085,-56.74045801526717,-13.534351145038167,72.9685546875,52.3623046875,-59.9162109375,
1749736412.228048,2025-06-12 20:53:32.228,31.255488663252166,0.32082302246093747,-3.27526787109375,2.7246014892578123,10.885496183206106,-5.320610687022901,0.1984732824427481,71.37070312499999,53.255859375,-61.8046875,
1749736412.2434459,2025-06-12 20:53:32.243,31.20756581903136,-4.613626599121093,1.675941162109375,15.191209533691405,-6.519083969465649,-35.0763358778626,-8.84732824427481,72.9685546875,52.0048828125,-62.319726562499994,
1749736412.2576888,2025-06-12 20:53:32.257,31.255488663252166,-7.242460021972656,-3.9169139160156248,8.513781103515624,6.465648854961832,25.709923664122137,5.458015267175573,73.3236328125,52.7197265625,-59.9162109375,36.03205105382417
1749736412.2756975,2025-06-12 20:53:32.275,31.20756581903136,-1.5849614990234373,3.5314474487304683,1.9488801513671874,1.4961832061068703,36.94656488549618,-2.1374045801526718,73.14609374999999,53.61328125,-60.774609375,
1749736412.2903473,2025-06-12 20:53:32.290,31.255488663252166,1.6041151123046875,-0.7685387329101562,19.103335046386718,19.374045801526716,15.664122137404581,6.435114503816794,72.25839843749999,53.0771484375,-61.2896484375,
1749736412.3047655,2025-06-12 20:53:32.304,31.111720130589752,-12.739547033691405,-0.8164227661132812,7.4962453979492185,4.351145038167939,31.625954198473284,2.8396946564885495,74.211328125,53.970703125,-59.744531249999994,
1749736412.3189347,2025-06-12 20:53:32.318,31.111720130589752,-4.297591979980469,1.5921441040039062,4.61602080078125,4.259541984732825,6.106870229007634,-0.5267175572519084,73.6787109375,54.1494140625,-59.2294921875,
1749736412.333051,2025-06-12 20:53:32.333,31.30341150747297,6.718129858398437,-2.114080065917969,18.84655691833496,18.53435114503817,-40.36641221374046,9.50381679389313,72.9685546875,52.3623046875,-60.9462890625,
1749736412.3473308,2025-06-12 20:53:32.347,31.20756581903136,-8.904035974121093,4.182670300292968,5.578489868164062,12.816793893129772,-54.61068702290076,3.7099236641221376,71.72578125,53.970703125,-59.401171874999996,
1749736412.362672,2025-06-12 20:53:32.362,31.111720130589752,6.945579016113281,1.419761584472656,16.268600280761717,6.7251908396946565,50.06106870229008,-6.519083969465649,72.080859375,51.826171875,-61.117968749999996,
1749736412.376552,2025-06-12 20:53:32.376,31.39925719591458,-9.457096557617186,-5.394136340332031,10.098742602539062,0.9389312977099237,31.977099236641223,-5.145038167938932,71.37070312499999,52.541015625,-60.087890625,
1749736412.3937562,2025-06-12 20:53:32.393,31.30341150747297,-10.496180078124999,3.5889082885742187,1.944091748046875,-0.37404580152671757,32.17557251908397,-4.129770992366412,73.3236328125,55.2216796875,-61.6330078125,
1749736412.4077387,2025-06-12 20:53:32.407,31.30341150747297,0.41898529052734373,-8.621520178222656,17.978060266113282,14.290076335877863,-87.34351145038168,3.732824427480916,73.14609374999999,52.541015625,-61.117968749999996,
1749736412.4212568,2025-06-12 20:53:32.421,31.20756581903136,10.9941740234375,1.2018892333984375,8.245630517578125,24.427480916030536,42.23664122137404,-16.916030534351144,72.25839843749999,52.3623046875,-59.2294921875,
1749736412.4348009,2025-06-12 20:53:32.434,31.255488663252166,-9.17458076171875,0.36391865234375,-3.394977954101562,2.2213740458015265,-11.610687022900763,-5.213740458015267,73.85625,52.18359375,-61.461328124999994,
1749736412.448521,2025-06-12 20:53:32.448,31.20756581903136,0.8068459594726562,-7.228094812011718,17.472883715820313,-0.7404580152671756,-46.69465648854962,11.816793893129772,73.85625,51.111328125,-61.461328124999994,
1749736412.461996,2025-06-12 20:53:32.461,31.255488663252166,6.512228515625,-1.2042834350585936,4.386177441406249,18.641221374045802,11.694656488549619,3.267175572519084,71.9033203125,53.4345703125,-59.2294921875,
1749736412.477616,2025-06-12 20:53:32.477,31.686794261239406,0.8906430175781249,4.742913488769531,5.691017346191406,-0.3969465648854962,6.893129770992366,-3.7022900763358777,72.6134765625,53.0771484375,-59.5728515625,
1749736412.4911046,2025-06-12 20:53:32.491,31.39925719591458,-3.5410242553710933,-1.9895815795898437,18.425775976562498,12.877862595419847,-43.23664122137404,8.083969465648854,73.14609374999999,51.111328125,-59.744531249999994,
1749736412.504635,2025-06-12 20:53:32.504,31.30341150747297,-1.4772224243164063,14.403517187499999,2.0733786376953125,13.687022900763358,-37.732824427480914,4.435114503816794,72.9685546875,52.0048828125,-59.5728515625,
1749736412.5180871,2025-06-12 20:53:32.518,31.30341150747297,1.1516109985351561,-1.4006079711914061,10.735600244140624,-4.595419847328245,8.091603053435115,-4.083969465648855,74.3888671875,54.1494140625,-60.9462890625,
1749736412.5315216,2025-06-12 20:53:32.531,31.255488663252166,-7.996633544921875,-5.116408947753906,9.289502441406249,11.061068702290076,0.26717557251908397,1.5267175572519085,71.9033203125,52.0048828125,-61.6330078125,
1749736412.5484695,2025-06-12 20:53:32.548,31.30341150747297,2.085349645996094,2.7341782958984373,4.256890551757812,9.86259541984733,-20.946564885496183,-2.6412213740458017,72.791015625,55.400390625,-60.774609375,
1749736412.5640495,2025-06-12 20:53:32.564,31.20756581903136,0.09576806640624999,-6.904877587890625,14.07072315673828,10.129770992366412,-22.396946564885496,6.8396946564885495,73.14609374999999,52.541015625,-60.774609375,
1749736412.580317,2025-06-12 20:53:32.580,31.447180040135382,-3.9312791259765625,6.564900952148437,7.204152795410156,19.671755725190838,3.8702290076335877,1.7251908396946565,72.6134765625,52.3623046875,-60.259570312499996,
1749736412.5938823,2025-06-12 20:53:32.593,31.30341150747297,-4.584896179199219,0.09576806640624999,4.637568615722656,11.053435114503817,39.48091603053435,-5.885496183206107,73.501171875,53.255859375,-60.774609375,
1749736412.6071148,2025-06-12 20:53:32.607,31.30341150747297,-4.668693237304687,-2.346317626953125,14.539986682128905,20.641221374045802,-44.14503816793893,7.106870229007634,70.660546875,50.75390625,-60.087890625,
1749736412.620491,2025-06-12 20:53:32.620,31.30341150747297,-6.423643054199219,-1.3239935180664062,9.598354455566406,17.068702290076335,31.83206106870229,1.8931297709923665,72.791015625,54.328125,-60.087890625,
1749736412.6337757,2025-06-12 20:53:32.633,31.20756581903136,-17.28853018798828,-0.0047884033203125,-2.70065947265625,9.954198473282442,13.290076335877863,-2.3053435114503817,71.9033203125,53.7919921875,-59.9162109375,
1749736412.648411,2025-06-12 20:53:32.648,31.39925719591458,0.8499415893554687,-0.3136404174804687,13.711592907714843,35.11450381679389,-34.00763358778626,9.786259541984732,72.080859375,52.18359375,-60.774609375,
1749736412.6628077,2025-06-12 20:53:32.662,31.39925719591458,-2.442085693359375,3.833116857910156,1.4317325927734375,8.725190839694656,-30.022900763358777,3.4580152671755724,71.37070312499999,53.61328125,-59.0578125,
1749736412.6756423,2025-06-12 20:53:32.675,31.255488663252166,7.517793212890624,-2.592920397949219,9.2320416015625,-0.5190839694656488,31.862595419847327,-3.954198473282443,73.85625,52.541015625,-62.148046875,
1749736412.6903589,2025-06-12 20:53:32.690,31.20756581903136,-5.76523759765625,-5.944802722167968,7.592013464355468,6.99236641221374,-5.419847328244275,3.114503816793893,73.3236328125,54.1494140625,-60.9462890625,
1749736412.709965,2025-06-12 20:53:32.709,31.447180040135382,-3.976768957519531,5.710170959472656,2.882618798828125,4.435114503816794,-17.480916030534353,-13.145038167938932,72.9685546875,53.0771484375,-60.259570312499996,
1749736412.7249188,2025-06-12 20:53:32.724,31.111720130589752,1.886630908203125,-1.5610194824218748,14.401122985839843,19.213740458015266,-37.770992366412216,7.190839694656488,72.9685546875,53.4345703125,-59.9162109375,
1749736412.739453,2025-06-12 20:53:32.739,31.255488663252166,-2.1116858642578125,0.9433154541015625,7.637503295898437,16.106870229007633,27.923664122137403,-1.0916030534351144,72.4359375,52.8984375,-60.087890625,
1749736412.7543817,2025-06-12 20:53:32.754,31.063797286368946,-2.798821740722656,0.0047884033203125,3.0047230834960934,5.648854961832061,-36.221374045801525,-10.977099236641221,72.6134765625,53.7919921875,-61.2896484375,
1749736412.7685032,2025-06-12 20:53:32.768,31.447180040135382,8.099584216308592,2.7365724975585937,15.128960290527344,16.045801526717558,-5.656488549618321,-2.954198473282443,72.6134765625,52.0048828125,-60.602929687499994,
1749736412.7828405,2025-06-12 20:53:32.782,31.20756581903136,-2.0087351928710935,1.9943699829101562,-0.9097966308593749,8.122137404580153,-18.65648854961832,10.13740458015267,72.4359375,52.8984375,-61.461328124999994,
1749736412.7972083,2025-06-12 20:53:32.797,31.447180040135382,-6.042964990234375,3.5673604736328124,0.5339069702148437,0.6793893129770993,43.465648854961835,-11.335877862595419,73.501171875,52.541015625,-60.43125,
1749736412.8125107,2025-06-12 20:53:32.812,31.255488663252166,1.85790048828125,-0.5698199951171875,19.61270144958496,16.083969465648856,142.12977099236642,3.3053435114503817,73.501171875,51.111328125,-60.774609375,
1749736412.8269708,2025-06-12 20:53:32.826,31.20756581903136,-9.466673364257812,10.620678564453124,10.649408984374999,-8.114503816793894,-77.83969465648855,14.725190839694656,72.25839843749999,53.4345703125,-59.2294921875,
1749736412.8415213,2025-06-12 20:53:32.841,31.447180040135382,-2.6671406494140624,-0.5530605834960938,12.445060229492187,0.5954198473282443,-0.6106870229007634,2.1908396946564888,72.9685546875,53.4345703125,-60.259570312499996,
1749736412.8557265,2025-06-12 20:53:32.855,31.255488663252166,2.961627453613281,-2.6575638427734374,9.387664709472656,26.3206106870229,-7.984732824427481,6.748091603053435,71.1931640625,53.0771484375,-59.9162109375,
1749736412.8701155,2025-06-12 20:53:32.870,31.20756581903136,-5.595249279785156,7.558494641113281,7.687781530761718,-2.1068702290076335,47.83206106870229,-7.244274809160306,72.080859375,53.61328125,-59.401171874999996,
1749736412.885423,2025-06-12 20:53:32.885,31.20756581903136,5.154716174316406,-8.118737829589843,16.749834814453123,8.854961832061068,-3.984732824427481,8.908396946564885,71.9033203125,52.7197265625,-59.5728515625,
1749736412.9002628,2025-06-12 20:53:32.900,31.20756581903136,-6.861781958007812,10.127473022460936,8.657433203124999,12.50381679389313,2.66412213740458,-2.8091603053435112,72.9685546875,52.3623046875,-60.602929687499994,37.778637643366736
1749736412.9185598,2025-06-12 20:53:32.918,31.39925719591458,-9.196128576660156,-4.936843823242187,14.075511560058592,16.85496183206107,-15.335877862595419,0.8320610687022901,72.9685546875,52.7197265625,-60.602929687499994,35.742833559941815
1749736412.9385478,2025-06-12 20:53:32.938,31.30341150747297,2.935291235351562,1.5682020874023437,6.3709706176757805,8.625954198473282,2.0610687022900764,1.4580152671755726,72.080859375,52.8984375,-60.087890625,
1749736412.9529073,2025-06-12 20:53:32.952,31.447180040135382,-9.447519750976562,4.841075756835937,5.626373901367187,-0.5877862595419847,8.83206106870229,0.7099236641221374,72.6134765625,52.3623046875,-62.319726562499994,
1749736412.9673572,2025-06-12 20:53:32.967,31.39925719591458,-0.7254431030273437,2.6958710693359373,9.744400756835937,16.740458015267176,-0.5343511450381679,-3.427480916030534,73.3236328125,52.3623046875,-61.2896484375,
1749736412.9814885,2025-06-12 20:53:32.981,31.39925719591458,-4.924872814941406,-1.707065783691406,1.9201497314453124,0.0916030534351145,-72.13740458015268,-2.7099236641221376,72.791015625,53.970703125,-59.744531249999994,
1749736412.9958534,2025-06-12 20:53:32.995,31.30341150747297,-3.1579519897460937,-0.59376201171875,13.654132067871092,-6.931297709923665,33.152671755725194,-0.9465648854961832,71.72578125,52.8984375,-61.117968749999996,
1749736413.0101542,2025-06-12 20:53:33.010,31.39925719591458,-8.947131604003905,0.36631285400390623,6.9527616210937495,7.33587786259542,38.82442748091603,6.122137404580153,71.1931640625,52.7197265625,-59.2294921875,
1749736413.0244532,2025-06-12 20:53:33.024,31.30341150747297,3.9791631591796874,3.883395092773437,2.300827795410156,0.0,-25.6793893129771,4.6183206106870225,72.25839843749999,54.1494140625,-60.602929687499994,
1749736413.0399966,2025-06-12 20:53:33.039,31.447180040135382,-2.310404602050781,-6.813897924804687,15.574281799316406,23.00763358778626,15.259541984732824,8.51908396946565,72.6134765625,53.4345703125,-60.602929687499994,
1749736413.0541668,2025-06-12 20:53:33.054,31.20756581903136,-3.0550013183593747,2.9640216552734375,7.280767248535156,13.82442748091603,-9.709923664122137,1.251908396946565,72.9685546875,52.3623046875,-60.602929687499994,
1749736413.0684114,2025-06-12 20:53:33.068,31.255488663252166,-0.6344634399414062,3.555389465332031,8.757989672851561,-2.6946564885496183,33.2442748091603,0.9923664122137404,73.85625,53.255859375,-61.461328124999994,
1749736413.0827575,2025-06-12 20:53:33.082,31.255488663252166,-6.825868933105468,0.16041151123046873,14.322114331054687,11.740458015267176,-63.88549618320611,0.9236641221374046,72.6134765625,53.0771484375,-60.9462890625,
1749736413.0970447,2025-06-12 20:53:33.097,31.39925719591458,-5.329492895507812,0.9959878906249999,6.0884548217773435,5.763358778625954,26.259541984732824,1.4427480916030535,71.72578125,53.255859375,-60.087890625,
1749736413.1113417,2025-06-12 20:53:33.111,31.447180040135382,-6.648698010253906,0.3711012573242187,3.5506010620117183,0.5954198473282443,-12.297709923664122,-11.022900763358779,72.6134765625,53.4345703125,-58.1994140625,
1749736413.1259048,2025-06-12 20:53:33.125,31.255488663252166,-2.7078420776367187,-0.4165910888671875,19.61270144958496,11.320610687022901,83.12213740458016,-3.717557251908397,72.080859375,53.61328125,-62.148046875,
1749736413.140531,2025-06-12 20:53:33.140,31.20756581903136,-4.2880151733398435,7.433996154785156,10.888829150390624,-1.297709923664122,-33.404580152671755,1.2595419847328244,72.080859375,55.400390625,-59.744531249999994,
1749736413.1566904,2025-06-12 20:53:33.156,31.447180040135382,-3.7612908081054686,-1.1252747802734375,7.8721350585937495,1.4427480916030535,-5.290076335877862,-8.67175572519084,72.4359375,52.541015625,-60.087890625,
1749736413.1713233,2025-06-12 20:53:33.171,31.20756581903136,-3.0909143432617188,-0.5746083984375,10.134655627441406,15.778625954198473,18.114503816793892,-8.01526717557252,71.5482421875,52.7197265625,-59.5728515625,
1749736413.1861045,2025-06-12 20:53:33.186,31.20756581903136,-0.031124621582031248,3.859453076171875,0.5913678100585937,3.8625954198473282,26.31297709923664,-2.595419847328244,73.85625,52.8984375,-61.117968749999996,
1749736413.200872,2025-06-12 20:53:33.200,31.255488663252166,-6.208164904785156,-3.1747114013671873,15.08586466064453,19.564885496183205,8.923664122137405,0.42748091603053434,73.3236328125,53.4345703125,-61.2896484375,36.011551210403965
1749736413.2197428,2025-06-12 20:53:33.219,31.255488663252166,-0.19153613281249998,3.258508459472656,8.530540515136718,-3.8091603053435112,-20.66412213740458,-5.312977099236641,72.25839843749999,53.0771484375,-60.259570312499996,
1749736413.234257,2025-06-12 20:53:33.234,31.30341150747297,-2.375048046875,-1.924938134765625,8.0828248046875,14.335877862595419,-22.236641221374047,-6.137404580152672,72.4359375,52.8984375,-61.8046875,
1749736413.2491696,2025-06-12 20:53:33.249,31.20756581903136,1.8124106567382812,-1.4006079711914061,9.478644372558593,13.67175572519084,86.81679389312977,1.9770992366412214,72.4359375,52.18359375,-59.401171874999996,
1749736413.2650108,2025-06-12 20:53:33.265,31.39925719591458,-3.1938650146484373,3.5434184570312497,4.220977526855468,4.511450381679389,2.1297709923664123,-4.709923664122138,73.6787109375,53.0771484375,-60.602929687499994,
1749736413.2796528,2025-06-12 20:53:33.279,31.111720130589752,-0.430956298828125,0.9696516723632812,15.734693310546874,14.549618320610687,-24.106870229007633,-4.66412213740458,73.501171875,51.826171875,-60.43125,
1749736413.2949126,2025-06-12 20:53:33.294,31.39925719591458,-5.746083984375,-1.6232687255859375,1.8171990600585937,14.236641221374045,-6.038167938931298,6.229007633587786,71.5482421875,53.4345703125,-61.2896484375,
1749736413.3096154,2025-06-12 20:53:33.309,31.255488663252166,-9.399635717773437,-1.9967641845703124,12.260706701660155,3.2977099236641223,-3.50381679389313,-5.977099236641221,73.501171875,52.541015625,-60.774609375,
1749736413.3242095,2025-06-12 20:53:33.324,31.447180040135382,0.06464344482421874,-0.15083470458984374,13.163320727539062,13.83206106870229,-3.33587786259542,3.49618320610687,73.14609374999999,51.111328125,-60.087890625,
1749736413.3384411,2025-06-12 20:53:33.338,31.30341150747297,-10.850521923828124,1.2856862915039062,0.16519991455078123,8.16793893129771,-21.16030534351145,2.5267175572519083,73.501171875,53.255859375,-60.43125,
1749736413.3532345,2025-06-12 20:53:33.353,31.39925719591458,-1.7286135986328124,-4.7931917236328125,17.76018791503906,10.396946564885496,-7.778625954198473,6.9465648854961835,72.9685546875,54.1494140625,-59.9162109375,
1749736413.3677495,2025-06-12 20:53:33.367,31.255488663252166,-4.728548278808593,6.066907006835937,9.054870678710937,3.7251908396946565,-8.992366412213741,-4.99236641221374,72.4359375,53.255859375,-60.43125,
1749736413.3837428,2025-06-12 20:53:33.383,31.20756581903136,-1.218648645019531,-3.5577836669921874,6.713341455078124,5.625954198473282,18.53435114503817,2.4656488549618323,73.501171875,53.255859375,-59.744531249999994,
1749736413.398376,2025-06-12 20:53:33.398,31.30341150747297,1.9680337646484374,1.43652099609375,12.593500732421875,13.335877862595419,-18.053435114503817,-8.381679389312977,72.791015625,51.46875,-60.43125,
1749736413.4128227,2025-06-12 20:53:33.412,31.255488663252166,-9.13627353515625,-3.1651345947265623,4.106055847167968,7.312977099236641,30.793893129770993,0.8015267175572519,72.25839843749999,53.4345703125,-59.5728515625,
1749736413.4273841,2025-06-12 20:53:33.427,31.543025728576993,-2.518700146484375,-1.3024457031249999,13.860033410644531,-4.511450381679389,1.0458015267175573,-0.7938931297709924,74.03378906249999,51.2900390625,-58.886132812499994,
1749736413.4420805,2025-06-12 20:53:33.442,31.447180040135382,-10.405200415039062,-0.948103857421875,7.738059765625,0.2900763358778626,28.778625954198475,6.801526717557252,72.6134765625,53.7919921875,-60.602929687499994,37.11797551313422
1749736413.4608505,2025-06-12 20:53:33.460,31.447180040135382,-3.7110125732421873,1.5107412475585937,6.212953308105468,4.511450381679389,2.312977099236641,1.9389312977099236,73.14609374999999,53.255859375,-60.087890625,
1749736413.4754384,2025-06-12 20:53:33.475,31.447180040135382,-4.836287353515624,-1.0845733520507812,13.026851232910156,3.8091603053435112,-47.36641221374046,-5.282442748091603,72.9685546875,52.7197265625,-60.259570312499996,
1749736413.4916413,2025-06-12 20:53:33.491,31.39925719591458,-4.237736938476562,0.3495534423828125,6.469132885742187,10.664122137404581,56.83969465648855,0.8396946564885496,74.211328125,53.970703125,-60.43125,
1749736413.5061765,2025-06-12 20:53:33.506,31.447180040135382,-4.6830584472656245,-2.0374656127929685,11.420341918945311,3.1755725190839694,-32.717557251908396,-3.572519083969466,70.660546875,53.255859375,-59.401171874999996,
1749736413.5205705,2025-06-12 20:53:33.520,31.063797286368946,-0.842758984375,-1.3958195678710936,16.180014819335938,5.175572519083969,22.0,11.83969465648855,71.72578125,53.61328125,-60.087890625,
1749736413.5351043,2025-06-12 20:53:33.535,31.447180040135382,-10.47702646484375,4.393360046386719,3.84987626953125,8.938931297709924,2.2519083969465647,-4.786259541984733,72.6134765625,54.5068359375,-60.602929687499994,
1749736413.5500643,2025-06-12 20:53:33.550,31.447180040135382,7.038952880859375,-3.8139632446289062,15.026009619140623,2.450381679389313,-9.664122137404581,-1.6488549618320612,73.3236328125,52.7197265625,-58.886132812499994,
1749736413.5644765,2025-06-12 20:53:33.564,31.543025728576993,4.378994836425781,3.4261025756835934,9.330203869628905,7.541984732824427,-14.893129770992367,-6.778625954198473,72.791015625,52.541015625,-61.117968749999996,
1749736413.5793033,2025-06-12 20:53:33.579,31.30341150747297,-7.242460021972656,0.13407529296874998,-0.16519991455078123,6.66412213740458,-19.954198473282442,-11.34351145038168,72.6134765625,53.0771484375,-61.2896484375,
1749736413.5936368,2025-06-12 20:53:33.593,31.447180040135382,2.2840683837890623,1.5825672973632812,14.994884997558593,16.80916030534351,-39.81679389312977,-3.2595419847328246,72.6134765625,51.2900390625,-59.9162109375,
1749736413.6097333,2025-06-12 20:53:33.609,31.30341150747297,-8.872911352539061,2.7964275390625,-0.55545478515625,2.0916030534351147,-41.93129770992366,-9.259541984732824,73.501171875,53.61328125,-60.774609375,
1749736413.6243312,2025-06-12 20:53:33.624,31.39925719591458,3.1004911499023438,1.2473790649414063,14.618995336914061,0.9389312977099237,29.732824427480917,-8.198473282442748,72.791015625,54.328125,-61.117968749999996,
1749736413.6391022,2025-06-12 20:53:33.639,31.447180040135382,-12.684480395507812,-0.17238251953125,6.979097839355468,-0.6870229007633588,-33.954198473282446,4.244274809160306,71.72578125,52.541015625,-60.087890625,
1749736413.6540725,2025-06-12 20:53:33.654,31.255488663252166,3.327940307617187,3.5913024902343746,3.047818713378906,11.068702290076336,24.099236641221374,-0.7099236641221374,72.4359375,54.328125,-61.117968749999996,
1749736413.6691885,2025-06-12 20:53:33.669,31.255488663252166,-4.484339709472656,-4.173093493652344,12.413935607910156,23.083969465648856,-22.374045801526716,5.213740458015267,74.03378906249999,52.7197265625,-60.602929687499994,
1749736413.6839044,2025-06-12 20:53:33.683,31.447180040135382,-4.826710546875,1.199495031738281,10.565611926269531,14.618320610687023,63.05343511450382,6.740458015267175,72.6134765625,53.7919921875,-59.9162109375,
1749736413.6982973,2025-06-12 20:53:33.698,31.543025728576993,-0.40462008056640625,3.3351229125976563,11.786654772949218,2.7938931297709924,-58.93129770992366,-4.564885496183206,72.6134765625,52.7197265625,-61.6330078125,
1749736413.7134311,2025-06-12 20:53:33.713,31.447180040135382,3.265691064453125,3.208230224609375,12.703634008789061,26.82442748091603,4.549618320610687,1.900763358778626,73.3236328125,52.3623046875,-59.5728515625,35.76846876061019
1749736413.7325308,2025-06-12 20:53:33.732,31.543025728576993,0.09576806640624999,1.5227122558593749,1.7717092285156248,6.358778625954199,12.213740458015268,-4.877862595419847,72.25839843749999,53.4345703125,-61.6330078125,
1749736413.7476606,2025-06-12 20:53:33.747,31.447180040135382,-4.836287353515624,-5.473144995117187,15.004461804199218,19.755725190839694,-47.717557251908396,5.213740458015267,73.3236328125,51.2900390625,-58.886132812499994,
1749736413.762535,2025-06-12 20:53:33.762,31.543025728576993,-3.7421371948242186,7.170633972167968,7.343016491699219,11.49618320610687,62.465648854961835,0.816793893129771,72.080859375,55.04296875,-60.43125,
1749736413.7773407,2025-06-12 20:53:33.777,31.447180040135382,1.6065093139648436,0.354341845703125,11.985373510742187,3.4198473282442747,-51.62595419847328,-0.5801526717557252,72.080859375,51.46875,-60.43125,
1749736413.7928724,2025-06-12 20:53:33.792,31.30341150747297,-9.87608184814453,8.372523205566406,9.277531433105468,6.114503816793893,18.236641221374047,0.4961832061068702,72.25839843749999,51.2900390625,-60.9462890625,
1749736413.8077471,2025-06-12 20:53:33.807,31.447180040135382,5.298368273925781,4.216189123535156,6.64630380859375,11.595419847328245,-43.55725190839695,2.0076335877862594,72.080859375,53.970703125,-60.087890625,
1749736413.8233795,2025-06-12 20:53:33.823,31.111720130589752,-5.655104321289063,-4.153939880371094,9.358934289550781,17.419847328244273,-39.213740458015266,1.213740458015267,72.791015625,51.826171875,-60.087890625,
1749736413.8377562,2025-06-12 20:53:33.837,31.20756581903136,8.078036401367187,5.849034655761718,12.011709729003906,6.129770992366412,14.870229007633588,-3.66412213740458,73.3236328125,53.7919921875,-59.2294921875,
1749736413.8534474,2025-06-12 20:53:33.853,31.447180040135382,3.5601778686523438,2.530671154785156,11.765106958007811,-5.419847328244275,-25.6793893129771,2.9923664122137406,72.791015625,52.8984375,-61.461328124999994,
1749736413.86777,2025-06-12 20:53:33.867,31.30341150747297,-2.166752502441406,-0.7062894897460937,7.031770275878906,23.954198473282442,-68.2824427480916,-7.435114503816794,72.080859375,52.18359375,-60.087890625,
1749736413.8828106,2025-06-12 20:53:33.882,31.255488663252166,-5.537788439941406,-0.9265560424804687,7.905653881835937,1.8015267175572518,59.47328244274809,7.5038167938931295,73.501171875,52.18359375,-60.43125,
1749736413.8984537,2025-06-12 20:53:33.898,31.39925719591458,-6.224924316406249,-1.9009961181640624,14.896722729492186,2.9236641221374047,2.33587786259542,-6.931297709923665,72.791015625,52.18359375,-61.8046875,
1749736413.9130619,2025-06-12 20:53:33.913,31.447180040135382,-4.4819455078125,2.817975354003906,9.119514123535156,13.442748091603054,-3.648854961832061,-7.091603053435114,72.9685546875,53.0771484375,-59.9162109375,
1749736413.9273143,2025-06-12 20:53:33.927,31.255488663252166,-0.11252747802734374,5.324704492187499,6.323086584472656,3.9389312977099236,-22.068702290076335,-4.282442748091603,73.14609374999999,53.61328125,-59.744531249999994,
1749736413.9431207,2025-06-12 20:53:33.943,31.39925719591458,-0.4165910888671875,0.3327940307617187,9.888052856445311,8.106870229007633,-46.534351145038165,7.412213740458015,72.791015625,52.18359375,-60.43125,
1749736413.95804,2025-06-12 20:53:33.958,31.39925719591458,-1.1755530151367186,0.30885201416015623,7.297526660156249,23.099236641221374,37.38167938931298,6.824427480916031,73.501171875,51.826171875,-60.774609375,
1749736413.9726312,2025-06-12 20:53:33.972,31.30341150747297,-15.90947003173828,2.710236279296875,-1.5251064575195312,1.5572519083969465,-11.557251908396946,1.7251908396946565,72.4359375,52.8984375,-62.148046875,
1749736413.9869044,2025-06-12 20:53:33.986,31.20756581903136,0.9983820922851562,-4.015076184082031,14.551957690429687,20.671755725190838,-22.885496183206108,4.9465648854961835,72.9685546875,52.0048828125,-59.5728515625,
1749736414.001325,2025-06-12 20:53:34.001,31.543025728576993,-6.624755993652343,4.450820886230469,7.433996154785156,23.358778625954198,3.053435114503817,1.5038167938931297,72.6134765625,52.0048828125,-60.602929687499994,
1749736414.0155914,2025-06-12 20:53:34.015,31.447180040135382,5.135562561035156,1.3048399047851562,11.748347546386718,-1.4427480916030535,-24.03053435114504,-5.67175572519084,73.501171875,52.8984375,-60.43125,
1749736414.0298269,2025-06-12 20:53:34.029,31.30341150747297,0.3399766357421875,-3.1220389648437497,10.366893188476562,14.091603053435115,-32.99236641221374,2.885496183206107,72.791015625,52.18359375,-60.774609375,
1749736414.043906,2025-06-12 20:53:34.043,31.111720130589752,-2.6096798095703124,-0.10773907470703124,5.03740029296875,2.9160305343511452,-30.801526717557252,-1.8931297709923665,72.25839843749999,53.4345703125,-59.5728515625,
1749736414.0601215,2025-06-12 20:53:34.060,31.30341150747297,-5.849034655761718,-2.4516625,14.118607189941406,5.969465648854962,-13.534351145038167,-16.87786259541985,72.791015625,51.826171875,-60.43125,
1749736414.0745382,2025-06-12 20:53:34.074,31.447180040135382,7.194575988769531,4.125209460449218,6.148309863281249,17.33587786259542,0.7175572519083969,1.4351145038167938,71.5482421875,51.6474609375,-59.2294921875,
1749736414.088929,2025-06-12 20:53:34.088,31.6388714170186,7.967903124999999,3.6942531616210936,7.979874133300781,-4.320610687022901,29.801526717557252,-0.4198473282442748,72.25839843749999,54.1494140625,-60.602929687499994,
1749736414.1034331,2025-06-12 20:53:34.103,31.447180040135382,-2.882618798828125,3.1962592163085937,8.087613208007811,15.129770992366412,-48.50381679389313,4.679389312977099,71.72578125,51.111328125,-59.0578125,
1749736414.1178977,2025-06-12 20:53:34.117,31.543025728576993,0.8906430175781249,2.96881005859375,13.883975427246092,9.755725190839694,51.42748091603053,-7.66412213740458,71.9033203125,51.2900390625,-60.602929687499994,
1749736414.1323047,2025-06-12 20:53:34.132,31.20756581903136,1.7238251953125,2.224213342285156,11.350910070800781,-5.396946564885496,-76.87786259541984,-4.824427480916031,72.4359375,51.826171875,-60.43125,
1749736414.1466267,2025-06-12 20:53:34.146,31.447180040135382,-0.842758984375,-0.5913678100585937,14.118607189941406,8.625954198473282,2.5877862595419847,-2.50381679389313,72.791015625,51.46875,-60.774609375,
1749736414.1625235,2025-06-12 20:53:34.162,31.543025728576993,-2.142810485839844,-1.0941501586914062,2.6671406494140624,8.129770992366412,-0.13740458015267176,-10.274809160305344,73.501171875,53.61328125,-58.714453125,
1749736414.1774426,2025-06-12 20:53:34.177,31.30341150747297,1.2306196533203124,-4.422090466308593,10.448296044921875,18.87786259541985,-50.969465648854964,-4.450381679389313,72.4359375,52.541015625,-61.461328124999994,
1749736414.1921055,2025-06-12 20:53:34.192,31.39925719591458,0.4381389038085937,3.1699229980468746,4.374206433105469,-2.931297709923664,-42.37404580152672,-0.8473282442748091,73.6787109375,52.7197265625,-59.5728515625,
1749736414.207102,2025-06-12 20:53:34.207,31.447180040135382,-3.9647979492187497,-2.032677209472656,3.871424084472656,-6.625954198473282,-48.79389312977099,-2.366412213740458,72.25839843749999,53.4345703125,-61.976367187499996,
1749736414.2217424,2025-06-12 20:53:34.221,31.30341150747297,-1.9225439331054686,5.906495495605468,16.007632299804687,16.81679389312977,11.625954198473282,6.625954198473282,72.4359375,52.541015625,-60.43125,
1749736414.2365322,2025-06-12 20:53:34.236,31.255488663252166,0.39743747558593745,2.4516625,7.517793212890624,5.320610687022901,23.480916030534353,9.106870229007633,72.6134765625,52.0048828125,-60.9462890625,
1749736414.251029,2025-06-12 20:53:34.251,31.447180040135382,0.6703764648437499,-1.2521674682617188,15.389928271484374,11.213740458015268,-59.74045801526717,5.816793893129771,72.6134765625,52.7197265625,-60.602929687499994,
1749736414.2661123,2025-06-12 20:53:34.266,31.39925719591458,-9.859322436523437,-2.473210314941406,5.482721801757812,13.297709923664122,-36.282442748091604,-2.8473282442748094,71.015625,51.826171875,-59.0578125,
1749736414.2824457,2025-06-12 20:53:34.282,31.255488663252166,5.176263989257812,4.206612316894531,-0.7781155395507812,0.8396946564885496,40.32824427480916,-3.7709923664122136,72.9685546875,52.7197265625,-59.9162109375,
1749736414.2980218,2025-06-12 20:53:34.298,31.39925719591458,1.0414777221679687,-6.833051538085937,19.61270144958496,20.435114503816795,-2.1297709923664123,6.6106870229007635,74.03378906249999,51.6474609375,-60.9462890625,
1749736414.3136656,2025-06-12 20:53:34.313,31.447180040135382,-16.168043811035155,1.6208745239257811,-8.920795385742187,33.229007633587784,39.083969465648856,-6.290076335877862,73.3236328125,54.5068359375,-60.259570312499996,
1749736414.3286283,2025-06-12 20:53:34.328,31.255488663252166,6.215347509765625,4.965574243164062,5.506663818359375,2.9770992366412212,63.534351145038165,-10.15267175572519,72.791015625,53.61328125,-59.744531249999994,
1749736414.344571,2025-06-12 20:53:34.344,31.447180040135382,0.033518823242187495,-5.473144995117187,15.464148522949218,4.473282442748092,11.618320610687023,8.01526717557252,73.501171875,51.46875,-60.087890625,
1749736414.359096,2025-06-12 20:53:34.359,31.39925719591458,-19.474436303710938,2.6001030029296874,7.041347082519531,9.931297709923664,33.79389312977099,15.458015267175572,72.791015625,53.970703125,-60.43125,
1749736414.3744109,2025-06-12 20:53:34.374,31.39925719591458,2.7557261108398436,-4.551377355957031,19.61270144958496,-8.648854961832061,42.00763358778626,-3.9389312977099236,72.6134765625,53.4345703125,-61.976367187499996,36.66544615553698
1749736414.3959918,2025-06-12 20:53:34.395,31.447180040135382,0.047884033203124995,-0.16041151123046873,12.78743106689453,2.8931297709923665,27.15267175572519,-2.984732824427481,72.9685546875,52.7197265625,-61.6330078125,
1749736414.410109,2025-06-12 20:53:34.410,31.543025728576993,-11.3389390625,-11.441889733886718,6.969521032714844,-14.740458015267176,-54.778625954198475,4.824427480916031,72.080859375,53.61328125,-61.117968749999996,
1749736414.423616,2025-06-12 20:53:34.423,31.39925719591458,-6.205770703124999,-1.22583125,12.258312499999999,9.877862595419847,54.43511450381679,-5.083969465648855,72.9685546875,51.6474609375,-60.9462890625,
1749736414.4368987,2025-06-12 20:53:34.436,31.111720130589752,-17.34599102783203,-0.5123591552734374,-2.384624853515625,14.732824427480915,24.34351145038168,-2.3435114503816794,72.9685546875,53.4345703125,-59.9162109375,
1749736414.4504662,2025-06-12 20:53:34.450,31.30341150747297,1.5394716674804687,2.480392919921875,16.40746397705078,-0.2595419847328244,-114.26717557251908,-5.0534351145038165,72.9685546875,53.0771484375,-60.259570312499996,
1749736414.4642212,2025-06-12 20:53:34.464,31.447180040135382,1.0271125122070313,-0.833182177734375,13.94861887207031,20.977099236641223,75.30534351145039,3.877862595419847,72.791015625,52.18359375,-59.744531249999994,
1749736414.477772,2025-06-12 20:53:34.477,31.30341150747297,-4.594472985839843,4.113238452148437,8.441955053710936,22.572519083969464,72.26717557251908,0.29770992366412213,72.4359375,52.541015625,-60.43125,35.951033476364685
1749736414.4966004,2025-06-12 20:53:34.496,31.6388714170186,0.40940848388671874,2.0638018310546875,18.73941639404297,-9.045801526717558,-113.25190839694656,-2.351145038167939,74.211328125,52.541015625,-62.148046875,36.13986769166852
1749736414.5150037,2025-06-12 20:53:34.515,31.255488663252166,-3.821145849609375,9.10993731689453,7.137115148925781,12.053435114503817,-4.641221374045801,7.152671755725191,72.4359375,53.255859375,-60.087890625,
1749736414.5287056,2025-06-12 20:53:34.528,31.543025728576993,-13.314155432128905,-3.1747114013671873,-4.244919543457031,9.465648854961833,35.778625954198475,-18.85496183206107,72.080859375,54.685546875,-59.744531249999994,
1749736414.5429497,2025-06-12 20:53:34.542,31.39925719591458,16.206351037597656,-0.7038952880859375,17.233463549804686,23.625954198473284,-87.61832061068702,17.83206106870229,73.14609374999999,53.61328125,-60.774609375,
1749736414.5565305,2025-06-12 20:53:34.556,31.39925719591458,14.999673400878905,12.109871997070313,16.19677423095703,-5.32824427480916,-15.541984732824428,8.427480916030534,72.25839843749999,52.3623046875,-59.9162109375,
1749736414.5700293,2025-06-12 20:53:34.570,31.30341150747297,-7.3094976684570305,-5.516240625,12.23915888671875,-11.679389312977099,-0.7404580152671756,11.977099236641221,72.4359375,52.8984375,-61.8046875,
1749736414.583453,2025-06-12 20:53:34.583,31.447180040135382,-4.575319372558593,-0.97683427734375,12.289437121582031,20.16030534351145,-22.358778625954198,4.6106870229007635,72.6134765625,52.7197265625,-61.2896484375,
1749736414.5967185,2025-06-12 20:53:34.596,31.447180040135382,-2.0446482177734375,-0.143652099609375,3.210624426269531,3.6793893129770994,19.27480916030534,13.17557251908397,72.6134765625,54.1494140625,-60.9462890625,35.55569295551028
1749736414.6155174,2025-06-12 20:53:34.615,31.447180040135382,5.214571215820312,-9.852139831542969,-2.4061726684570313,-5.770992366412214,5.442748091603053,-0.9312977099236641,71.37070312499999,51.826171875,-61.117968749999996,
1749736414.6289625,2025-06-12 20:53:34.628,31.590948572797796,-15.128960290527344,7.082048510742187,17.899051611328122,14.900763358778626,50.49618320610687,-9.954198473282442,72.080859375,53.255859375,-60.43125,
1749736414.6422758,2025-06-12 20:53:34.642,31.30341150747297,-8.75320126953125,2.7724855224609373,7.194575988769531,-29.923664122137403,79.29007633587786,-0.29770992366412213,,,,35.795750612379855
1749736414.6556325,2025-06-12 20:53:34.655,31.590948572797796,15.344438439941406,-1.8148048583984373,4.235342736816406,-24.50381679389313,-7.977099236641221,9.885496183206106,72.080859375,51.826171875,-60.43125,
1749736414.6705754,2025-06-12 20:53:34.670,31.255488663252166,7.510610607910156,1.2473790649414063,1.2497732666015624,30.65648854961832,-18.419847328244273,3.8625954198473282,72.080859375,54.328125,-61.117968749999996,
1749736414.6848993,2025-06-12 20:53:34.684,31.447180040135382,-2.346317626953125,12.665326782226561,19.61270144958496,-18.893129770992367,-61.961832061068705,2.66412213740458,73.14609374999999,53.970703125,-60.774609375,
1749736414.6989431,2025-06-12 20:53:34.698,31.30341150747297,1.2832920898437499,-4.072537023925781,14.800954663085937,25.740458015267176,88.26717557251908,8.15267175572519,72.9685546875,52.7197265625,-61.2896484375,
1749736414.7131546,2025-06-12 20:53:34.713,31.543025728576993,-10.761936462402343,-0.34237083740234375,1.6424223388671875,5.961832061068702,-0.7938931297709924,8.65648854961832,74.3888671875,54.1494140625,-60.259570312499996,
1749736414.730944,2025-06-12 20:53:34.730,31.543025728576993,-9.45470235595703,3.0909143432617188,18.844761267089844,14.061068702290076,-0.37404580152671757,-2.1297709923664123,71.5482421875,54.5068359375,-60.602929687499994,
1749736414.7453055,2025-06-12 20:53:34.745,30.96795159792734,-3.287238879394531,2.291250988769531,4.632780212402343,10.16030534351145,10.122137404580153,-4.015267175572519,71.9033203125,54.1494140625,-59.5728515625,
1749736414.7599971,2025-06-12 20:53:34.759,31.30341150747297,-11.1474029296875,0.105344873046875,1.5418658691406248,0.8396946564885496,-46.229007633587784,6.587786259541985,71.37070312499999,55.04296875,-59.744531249999994,
1749736414.7743526,2025-06-12 20:53:34.774,31.543025728576993,-6.6702458251953125,-7.752424975585937,19.61270144958496,8.122137404580153,-2.732824427480916,1.5114503816793894,71.37070312499999,52.8984375,-61.117968749999996,
1749736414.788551,2025-06-12 20:53:34.788,32.02225417078503,-2.6719290527343746,-2.310404602050781,-1.7717092285156248,13.16030534351145,17.50381679389313,-2.633587786259542,71.72578125,54.328125,-59.401171874999996,
1749736414.8031712,2025-06-12 20:53:34.803,31.590948572797796,-3.833116857910156,1.2378022583007813,-0.28490999755859375,4.923664122137405,-4.320610687022901,-2.50381679389313,72.791015625,53.255859375,-61.461328124999994,
1749736414.8186963,2025-06-12 20:53:34.818,31.6388714170186,-13.685256689453125,-3.995922570800781,19.594146386718748,6.32824427480916,49.44274809160305,2.3969465648854964,72.791015625,54.328125,-60.774609375,
1749736414.8346918,2025-06-12 20:53:34.834,31.30341150747297,4.11802685546875,1.0223241088867188,13.539210388183593,9.038167938931299,84.61832061068702,6.9465648854961835,72.25839843749999,54.8642578125,-60.602929687499994,
1749736414.8489563,2025-06-12 20:53:34.848,31.255488663252166,-4.455609289550781,-0.17956512451171874,13.204022155761718,-2.618320610687023,-43.31297709923664,-7.137404580152672,72.080859375,53.61328125,-60.774609375,36.32381758715986
1749736414.8666167,2025-06-12 20:53:34.866,31.447180040135382,0.02633621826171875,1.5035586425781249,7.742848168945312,9.885496183206106,-11.030534351145038,0.5725190839694656,72.791015625,53.255859375,-59.401171874999996,
1749736414.880371,2025-06-12 20:53:34.880,31.30341150747297,1.37906015625,3.67749375,4.211400720214844,-1.633587786259542,11.916030534351146,6.519083969465649,73.14609374999999,54.328125,-60.087890625,
1749736414.893957,2025-06-12 20:53:34.893,31.447180040135382,4.790797521972656,-0.0383072265625,19.61270144958496,13.335877862595419,-57.969465648854964,7.541984732824427,71.5482421875,54.5068359375,-60.259570312499996,
1749736414.9074733,2025-06-12 20:53:34.907,31.30341150747297,-1.2785036865234374,-2.0350714111328125,9.746794958496093,12.740458015267176,56.50381679389313,-3.4427480916030535,72.4359375,53.970703125,-60.087890625,
1749736414.9209516,2025-06-12 20:53:34.920,32.21394554766825,-11.918335864257811,6.605602380371093,-0.6536170532226562,6.198473282442748,9.442748091603054,-4.854961832061068,71.72578125,53.61328125,-60.43125,
1749736414.934892,2025-06-12 20:53:34.934,31.30341150747297,-15.421052893066406,-7.287949853515625,19.531897143554687,28.557251908396946,-0.7557251908396947,4.091603053435114,73.14609374999999,53.255859375,-60.43125,
1749736414.9497976,2025-06-12 20:53:34.949,31.39925719591458,1.946485949707031,4.134786267089844,7.8170684204101555,16.908396946564885,11.923664122137405,15.488549618320612,72.6134765625,54.1494140625,-61.2896484375,
1749736414.964213,2025-06-12 20:53:34.964,31.447180040135382,3.1699229980468746,4.094084838867187,7.848193041992187,-5.870229007633588,-27.435114503816795,13.534351145038167,71.72578125,51.826171875,-61.117968749999996,
1749736414.978218,2025-06-12 20:53:34.978,30.96795159792734,-9.351751684570312,-2.8227637573242186,19.61270144958496,19.404580152671755,97.4885496183206,-8.297709923664122,72.6134765625,53.0771484375,-61.2896484375,
1749736414.9918773,2025-06-12 20:53:34.991,31.447180040135382,-19.474436303710938,-2.0159177978515626,-1.1731588134765625,14.053435114503817,114.21374045801527,6.519083969465649,72.080859375,53.255859375,-60.087890625,
1749736415.0059087,2025-06-12 20:53:35.005,31.255488663252166,11.520898388671874,5.386953735351562,5.511452221679687,-12.091603053435115,-145.85496183206106,-6.9465648854961835,71.015625,54.685546875,-62.148046875,
1749736415.0198808,2025-06-12 20:53:35.019,31.447180040135382,2.482787121582031,2.6192566162109374,12.777854260253905,27.625954198473284,-7.603053435114504,-3.6717557251908395,74.56640625,53.255859375,-60.774609375,
1749736415.0327673,2025-06-12 20:53:35.032,31.447180040135382,2.779668127441406,3.1196447631835937,9.320627062988281,0.7099236641221374,56.17557251908397,8.50381679389313,73.14609374999999,53.255859375,-59.401171874999996,
1749736415.0452776,2025-06-12 20:53:35.045,31.543025728576993,-14.66448516845703,-3.0454245117187497,9.275137231445312,16.27480916030534,49.87786259541985,-9.664122137404581,71.72578125,53.970703125,-59.0578125,
1749736415.0577886,2025-06-12 20:53:35.057,31.39925719591458,1.70467158203125,2.418143676757812,9.100360510253905,5.519083969465649,-43.99236641221374,-1.5801526717557253,73.501171875,52.8984375,-60.774609375,
1749736415.0713544,2025-06-12 20:53:35.071,31.30341150747297,1.3407529296874998,4.934449621582031,7.1778165771484375,1.251908396946565,8.007633587786259,-1.5648854961832062,73.85625,53.970703125,-61.117968749999996,37.00572931395118
1749736415.0871048,2025-06-12 20:53:35.087,31.39925719591458,-2.6886884643554687,3.2728736694335936,6.579266162109374,-0.6946564885496184,10.541984732824428,-2.801526717557252,73.6787109375,53.7919921875,-61.2896484375,
1749736415.0992596,2025-06-12 20:53:35.099,31.590948572797796,-12.004527124023436,-0.4285620971679687,16.840814477539062,10.534351145038167,64.36641221374046,11.534351145038167,73.85625,51.826171875,-60.774609375,
1749736415.1114142,2025-06-12 20:53:35.111,31.30341150747297,-1.7405846069335937,-0.3902548706054687,15.143325500488281,17.358778625954198,74.3206106870229,7.740458015267175,73.3236328125,53.7919921875,-59.9162109375,
1749736415.1236038,2025-06-12 20:53:35.123,31.447180040135382,-7.206546997070312,4.127603662109375,2.9472622436523435,2.213740458015267,35.045801526717554,4.770992366412214,72.6134765625,53.7919921875,-60.259570312499996,
1749736415.135778,2025-06-12 20:53:35.135,31.543025728576993,-4.912901806640625,-3.9312791259765625,15.497667346191406,-3.648854961832061,-8.229007633587786,-10.114503816793894,73.14609374999999,53.255859375,-60.087890625,
1749736415.1479669,2025-06-12 20:53:35.147,31.6388714170186,-4.2521021484374995,-4.469974499511719,3.4572271972656248,9.702290076335878,-12.01526717557252,3.854961832061069,73.501171875,52.8984375,-60.774609375,
1749736415.1601338,2025-06-12 20:53:35.160,31.30341150747297,-6.543353137207031,6.277596752929687,6.241683728027343,7.244274809160306,-16.435114503816795,0.7099236641221374,72.791015625,52.18359375,-61.117968749999996,
1749736415.172323,2025-06-12 20:53:35.172,32.16602270344745,-3.303998291015625,-3.268085266113281,12.373234179687499,-4.465648854961832,-62.152671755725194,5.083969465648855,73.6787109375,52.7197265625,-61.2896484375,
1749736415.1849802,2025-06-12 20:53:35.184,31.543025728576993,6.694187841796874,3.2225954345703123,12.72997022705078,8.877862595419847,-1.5038167938931297,-5.312977099236641,,,,
1749736415.1945977,2025-06-12 20:53:35.194,31.6388714170186,-3.4955344238281247,2.5234885498046875,9.85692823486328,-1.1450381679389312,-39.9236641221374,10.916030534351146,73.3236328125,54.1494140625,-60.602929687499994,
1749736415.207129,2025-06-12 20:53:35.207,31.30341150747297,0.1388636962890625,-0.679953271484375,13.364433666992186,-2.549618320610687,-2.4885496183206106,-2.3206106870229006,72.9685546875,53.0771484375,-61.2896484375,
1749736415.221217,2025-06-12 20:53:35.221,30.96795159792734,-9.720458740234374,-4.891353991699218,4.695029455566406,8.374045801526718,15.732824427480915,6.4961832061068705,71.9033203125,53.7919921875,-60.602929687499994,
1749736415.2366002,2025-06-12 20:53:35.236,31.255488663252166,-6.72291826171875,4.278438366699218,3.564966271972656,-5.687022900763359,-16.267175572519083,2.786259541984733,72.791015625,53.255859375,-61.8046875,
1749736415.2515028,2025-06-12 20:53:35.251,31.543025728576993,0.2825157958984375,-2.2864625854492187,19.52950294189453,11.48091603053435,-0.5954198473282443,8.961832061068701,71.5482421875,54.5068359375,-60.602929687499994,
1749736415.2676418,2025-06-12 20:53:35.267,31.39925719591458,-5.011064074707031,2.1212626708984375,1.197100830078125,3.312977099236641,-8.01526717557252,-0.6641221374045801,72.6134765625,54.8642578125,-60.602929687499994,
1749736415.2829957,2025-06-12 20:53:35.282,31.543025728576993,-3.660734338378906,-3.4907460205078125,14.034810131835936,-3.1297709923664123,-14.427480916030534,-11.870229007633588,74.211328125,53.61328125,-61.117968749999996,
1749736415.3019047,2025-06-12 20:53:35.301,31.543025728576993,-1.455674609375,-2.281674182128906,13.579911816406248,21.519083969465647,44.58015267175573,10.145038167938932,72.080859375,53.61328125,-61.8046875,
1749736415.3173537,2025-06-12 20:53:35.317,31.447180040135382,-7.4220251464843745,0.6536170532226562,4.374206433105469,-7.961832061068702,-19.610687022900763,2.954198473282443,72.080859375,55.400390625,-61.8046875,
1749736415.331661,2025-06-12 20:53:35.331,31.39925719591458,2.5905261962890624,-5.580884069824219,15.674838269042969,23.404580152671755,-86.93129770992367,11.122137404580153,72.791015625,53.970703125,-60.43125,35.89984113189543
1749736415.3487358,2025-06-12 20:53:35.348,31.39925719591458,-7.275978845214843,0.8643067993164062,7.37414111328125,11.16793893129771,33.48854961832061,15.374045801526718,73.14609374999999,55.400390625,-60.774609375,
1749736415.361907,2025-06-12 20:53:35.361,31.20756581903136,1.388636962890625,-0.45010991210937495,7.223306408691406,0.1297709923664122,-10.396946564885496,-13.435114503816793,71.72578125,53.970703125,-61.461328124999994,
1749736415.3746216,2025-06-12 20:53:35.374,31.447180040135382,-9.258377819824219,-2.1164742675781247,15.229516760253905,-1.6564885496183206,-0.8091603053435115,-0.48854961832061067,70.30546875,53.970703125,-60.43125,
1749736415.3870413,2025-06-12 20:53:35.387,31.6388714170186,-12.63420216064453,0.32082302246093747,-4.0988732421875,19.480916030534353,-11.931297709923664,0.7938931297709924,71.1931640625,54.8642578125,-60.602929687499994,
1749736415.3995478,2025-06-12 20:53:35.399,31.543025728576993,-0.105344873046875,-0.6153098266601562,11.066000073242186,-2.7099236641221376,-43.83206106870229,6.519083969465649,72.080859375,55.7578125,-62.148046875,
1749736415.4120085,2025-06-12 20:53:35.412,31.6388714170186,4.721365673828124,-4.144363073730468,17.070657836914062,18.30534351145038,-10.19083969465649,1.618320610687023,73.6787109375,53.0771484375,-60.259570312499996,
1749736415.424288,2025-06-12 20:53:35.424,31.447180040135382,8.207323291015625,11.877634436035155,12.71081661376953,21.282442748091604,18.603053435114504,-4.229007633587786,71.37070312499999,55.04296875,-61.117968749999996,
1749736415.4365478,2025-06-12 20:53:35.436,31.590948572797796,-2.482787121582031,1.0079588989257813,6.277596752929687,12.427480916030534,-7.877862595419847,-4.3816793893129775,,,,36.409123204875954
1749736415.4489748,2025-06-12 20:53:35.448,31.6388714170186,-1.3335703247070312,-1.618480322265625,9.327809667968749,6.694656488549619,-64.36641221374046,9.01526717557252,71.72578125,52.8984375,-61.461328124999994,
1749736415.4613152,2025-06-12 20:53:35.461,31.447180040135382,-0.5889736083984375,-3.2225954345703123,11.4538607421875,8.282442748091603,25.259541984732824,9.053435114503817,72.080859375,54.685546875,-60.43125,
1749736415.4736855,2025-06-12 20:53:35.473,31.447180040135382,0.0718260498046875,0.36391865234375,5.446808776855469,12.358778625954198,-0.5877862595419847,-4.732824427480916,71.1931640625,54.5068359375,-61.2896484375,
1749736415.4858613,2025-06-12 20:53:35.485,31.39925719591458,7.400477331542969,2.6982652709960937,19.30624363708496,-6.770992366412214,-45.267175572519086,-5.687022900763359,,,,
1749736415.4954722,2025-06-12 20:53:35.495,31.255488663252166,-1.9608511596679685,-0.5674257934570313,13.66849727783203,15.473282442748092,-1.4961832061068703,-0.030534351145038167,72.6134765625,52.7197265625,-61.6330078125,
1749736415.5083253,2025-06-12 20:53:35.508,30.96795159792734,-0.4285620971679687,5.772420202636718,14.037204333496092,16.85496183206107,35.70992366412214,15.267175572519085,72.9685546875,55.2216796875,-60.602929687499994,
1749736415.5215275,2025-06-12 20:53:35.521,31.543025728576993,0.5770026000976562,2.5665841796874997,5.736507177734374,11.427480916030534,-59.51908396946565,3.564885496183206,73.501171875,55.04296875,-61.8046875,
1749736415.536644,2025-06-12 20:53:35.536,31.543025728576993,-4.814739538574218,1.3455413330078123,13.661314672851562,22.64885496183206,53.0,12.251908396946565,73.14609374999999,54.328125,-59.744531249999994,
1749736415.5568044,2025-06-12 20:53:35.556,31.543025728576993,4.031835595703125,4.879382983398437,7.563283044433593,-2.1603053435114505,51.221374045801525,2.969465648854962,72.25839843749999,53.0771484375,-62.6630859375,
1749736415.5748236,2025-06-12 20:53:35.574,31.30341150747297,-2.3223756103515623,-2.195482922363281,10.876858142089842,23.35114503816794,19.916030534351144,-0.6412213740458015,72.9685546875,53.0771484375,-61.2896484375,
1749736415.5890763,2025-06-12 20:53:35.589,31.543025728576993,-4.132392065429687,5.250484240722656,7.192181787109375,19.52671755725191,-12.206106870229007,-6.3816793893129775,72.6134765625,54.1494140625,-60.259570312499996,
1749736415.6025684,2025-06-12 20:53:35.602,30.96795159792734,3.3399113159179685,2.094926452636719,6.196193896484375,-1.534351145038168,-39.93893129770992,-9.389312977099237,72.4359375,55.04296875,-61.461328124999994,36.64958616276594
1749736415.6203449,2025-06-12 20:53:35.620,31.543025728576993,-3.3016040893554686,-0.5339069702148437,5.195417602539062,21.801526717557252,-14.15267175572519,1.5801526717557253,72.080859375,52.18359375,-60.087890625,
1749736415.63392,2025-06-12 20:53:35.633,31.447180040135382,-6.3709706176757805,2.9831752685546875,7.898471276855468,11.557251908396946,40.79389312977099,0.48091603053435117,72.9685546875,54.8642578125,-61.2896484375,
1749736415.6474583,2025-06-12 20:53:35.647,31.255488663252166,-3.430890979003906,-2.612074011230469,16.31169591064453,2.145038167938931,-21.458015267175572,-12.702290076335878,71.9033203125,53.0771484375,-60.259570312499996,
1749736415.661015,2025-06-12 20:53:35.661,31.30341150747297,-5.415684155273437,0.11252747802734374,8.643067993164061,11.610687022900763,55.29007633587786,0.9694656488549618,73.14609374999999,55.04296875,-60.774609375,
1749736415.6742527,2025-06-12 20:53:35.674,31.447180040135382,-4.642357019042969,-6.581660363769531,11.030087048339842,4.129770992366412,74.49618320610686,-5.770992366412214,72.791015625,53.970703125,-61.117968749999996,
1749736415.6870172,2025-06-12 20:53:35.687,31.543025728576993,-11.262324609375,-2.0374656127929685,12.840103503417968,2.885496183206107,-26.427480916030536,1.1450381679389312,73.501171875,55.04296875,-62.148046875,
1749736415.700678,2025-06-12 20:53:35.700,31.20756581903136,10.46984385986328,4.963180041503906,12.931083166503905,14.13740458015267,-38.778625954198475,6.213740458015267,71.37070312499999,53.970703125,-59.0578125,
1749736415.7136028,2025-06-12 20:53:35.713,32.357714080330666,1.5825672973632812,3.8666356811523435,5.142745166015625,2.0381679389312977,-29.900763358778626,-3.0076335877862594,72.791015625,53.970703125,-59.744531249999994,
1749736415.7260544,2025-06-12 20:53:35.726,32.07017701500584,1.2713210815429687,-9.694122521972655,13.505691564941406,12.473282442748092,-47.70992366412214,7.374045801526718,73.501171875,52.18359375,-62.148046875,
1749736415.7386918,2025-06-12 20:53:35.738,31.543025728576993,0.4477157104492187,-3.201047619628906,11.947066284179687,25.954198473282442,52.31297709923664,1.6870229007633588,70.48300781249999,54.5068359375,-59.9162109375,
1749736415.7523756,2025-06-12 20:53:35.752,31.30341150747297,-4.984727856445312,4.2880151733398435,2.7629087158203123,2.4580152671755724,0.0916030534351145,-3.3282442748091605,72.791015625,53.255859375,-61.117968749999996,
1749736415.7654293,2025-06-12 20:53:35.765,30.96795159792734,0.09337386474609374,-5.655104321289063,11.990161914062499,6.00763358778626,-44.98473282442748,-2.435114503816794,73.501171875,53.255859375,-60.43125,
1749736415.7784534,2025-06-12 20:53:35.778,31.590948572797796,5.781997009277344,0.2561795776367187,15.073893652343749,24.549618320610687,-8.49618320610687,7.145038167938932,72.791015625,52.8984375,-61.461328124999994,
1749736415.7914364,2025-06-12 20:53:35.791,31.590948572797796,-8.55448253173828,0.7589619262695312,3.7900212280273435,16.35114503816794,42.55725190839695,-2.50381679389313,71.1931640625,54.5068359375,-61.2896484375,
1749736415.8056614,2025-06-12 20:53:35.805,31.30341150747297,1.0917559570312498,-1.2282254516601563,13.986926098632813,22.12213740458015,-101.21374045801527,-16.366412213740457,72.4359375,53.970703125,-62.148046875,
1749736415.8189023,2025-06-12 20:53:35.818,31.447180040135382,19.563021765136718,1.024718310546875,16.24166551208496,-3.3587786259541983,46.38167938931298,-5.534351145038168,73.14609374999999,53.61328125,-59.744531249999994,
1749736415.8320918,2025-06-12 20:53:35.832,31.39925719591458,-15.792154150390624,-0.016759411621093748,7.369352709960937,10.229007633587786,53.11450381679389,-10.267175572519085,73.14609374999999,53.61328125,-60.774609375,
1749736415.8449447,2025-06-12 20:53:35.844,31.590948572797796,-14.987702392578123,-0.3495534423828125,7.979874133300781,-1.4961832061068703,36.37404580152672,-3.801526717557252,71.9033203125,51.6474609375,-61.2896484375,
1749736415.8578653,2025-06-12 20:53:35.857,31.447180040135382,-0.3758896606445312,-1.5203180541992187,12.859257116699219,31.595419847328245,14.625954198473282,2.1908396946564888,,,,36.43377250220327
1749736415.8708289,2025-06-12 20:53:35.870,31.543025728576993,-0.8020575561523438,10.414777221679687,7.888894470214844,15.305343511450381,47.38931297709924,-8.061068702290076,72.080859375,54.328125,-60.774609375,
1749736415.883646,2025-06-12 20:53:35.883,31.447180040135382,-12.351686364746094,0.4333505004882812,9.78031378173828,7.694656488549619,11.022900763358779,-7.778625954198473,71.9033203125,53.0771484375,-61.2896484375,
1749736415.89692,2025-06-12 20:53:35.896,31.447180040135382,-3.7612908081054686,-2.1643583007812497,7.474697583007812,18.900763358778626,42.38167938931298,-6.969465648854962,73.3236328125,53.7919921875,-60.259570312499996,
1749736415.916251,2025-06-12 20:53:35.916,31.447180040135382,4.402936853027343,0.679953271484375,10.09395419921875,2.8625954198473282,-10.84732824427481,-5.908396946564886,72.791015625,53.970703125,-61.461328124999994,
1749736415.930103,2025-06-12 20:53:35.930,31.447180040135382,-5.5832782714843745,-1.8363526733398436,11.635820068359374,18.34351145038168,22.87786259541985,-4.251908396946565,73.14609374999999,51.111328125,-59.0578125,
1749736415.9439127,2025-06-12 20:53:35.943,30.96795159792734,-10.625466967773438,-0.6488286499023437,5.015852478027344,16.80916030534351,37.81679389312977,-6.8396946564885495,72.080859375,53.970703125,-59.0578125,35.37359180496406
1749736415.9615479,2025-06-12 20:53:35.961,31.30341150747297,-7.175422375488281,0.9457096557617187,13.127407702636718,19.435114503816795,-9.687022900763358,-0.8091603053435115,73.3236328125,53.0771484375,-61.2896484375,
1749736415.9753492,2025-06-12 20:53:35.975,31.30341150747297,0.45489831542968745,2.5067291381835934,10.228029492187499,12.84732824427481,62.44274809160305,-9.648854961832061,72.6134765625,53.7919921875,-61.976367187499996,
1749736415.989153,2025-06-12 20:53:35.989,31.543025728576993,-7.170633972167968,1.005564697265625,3.5673604736328124,7.862595419847328,-18.389312977099237,-5.290076335877862,72.9685546875,52.7197265625,-60.9462890625,
1749736416.0026739,2025-06-12 20:53:36.002,31.255488663252166,-4.513070129394531,-2.2098481323242187,19.373879833984375,2.763358778625954,58.70229007633588,-1.4274809160305344,73.3236328125,52.3623046875,-61.976367187499996,
1749736416.0164309,2025-06-12 20:53:36.016,31.39925719591458,-14.238317272949217,3.201047619628906,4.989516259765625,21.290076335877863,2.236641221374046,-7.175572519083969,71.72578125,52.18359375,-60.43125,
1749736416.0314932,2025-06-12 20:53:36.031,31.447180040135382,-9.662997900390625,-0.507570751953125,5.580884069824219,-5.427480916030534,10.435114503816793,-6.587786259541985,72.6134765625,52.7197265625,-61.2896484375,
1749736416.0452898,2025-06-12 20:53:36.045,31.447180040135382,-16.57266389160156,1.8267758666992187,8.643067993164061,32.29007633587786,96.91603053435115,-13.267175572519085,70.1279296875,53.0771484375,-59.9162109375,
1749736416.0588188,2025-06-12 20:53:36.058,31.01587444214814,-3.0334535034179684,-4.7117888671875,-3.517082238769531,19.045801526717558,-35.31297709923664,5.068702290076335,73.14609374999999,52.541015625,-59.0578125,
1749736416.0725734,2025-06-12 20:53:36.072,32.02225417078503,8.79150849609375,4.73094248046875,12.540828295898438,-1.2213740458015268,-16.801526717557252,0.8320610687022901,72.9685546875,51.6474609375,-60.259570312499996,
1749736416.0863788,2025-06-12 20:53:36.086,31.543025728576993,-5.025429284667968,-2.2098481323242187,14.247894079589843,5.7251908396946565,-11.450381679389313,1.4045801526717556,71.72578125,51.826171875,-60.774609375,
1749736416.100279,2025-06-12 20:53:36.100,31.543025728576993,2.384624853515625,1.37906015625,13.000515014648437,22.862595419847327,33.6793893129771,-1.3129770992366412,71.72578125,53.61328125,-60.774609375,
1749736416.114683,2025-06-12 20:53:36.114,31.447180040135382,-7.122749938964843,1.8124106567382812,7.8912886718749995,-2.900763358778626,-61.595419847328245,-11.664122137404581,72.080859375,51.826171875,-61.117968749999996,
1749736416.1302266,2025-06-12 20:53:36.130,31.590948572797796,-4.084508032226562,-0.7015010864257812,11.67652149658203,10.786259541984732,34.88549618320611,-1.5725190839694656,73.501171875,52.18359375,-60.43125,
1749736416.1467113,2025-06-12 20:53:36.146,31.255488663252166,-8.954314208984375,-3.1220389648437497,3.555389465332031,4.824427480916031,31.12213740458015,-4.625954198473282,71.72578125,52.18359375,-59.744531249999994,
1749736416.1620147,2025-06-12 20:53:36.162,31.30341150747297,0.1580173095703125,0.34237083740234375,13.754688537597655,2.7480916030534353,-8.091603053435115,-2.1068702290076335,72.791015625,52.18359375,-59.401171874999996,
1749736416.176394,2025-06-12 20:53:36.176,31.543025728576993,5.949591125488281,2.602497204589844,5.916072302246094,10.83206106870229,-12.625954198473282,-6.648854961832061,73.6787109375,52.3623046875,-59.9162109375,
1749736416.190606,2025-06-12 20:53:36.190,31.255488663252166,-3.8570588745117185,-0.7062894897460937,12.524068884277343,2.099236641221374,10.82442748091603,-4.648854961832061,73.85625,52.541015625,-62.49140625,
1749736416.2050297,2025-06-12 20:53:36.205,31.01587444214814,-0.076614453125,3.8091748413085935,11.786654772949218,0.22137404580152673,0.21374045801526717,-3.2213740458015265,72.25839843749999,51.2900390625,-60.602929687499994,35.87675676375382
1749736416.2227626,2025-06-12 20:53:36.222,31.543025728576993,4.786009118652344,-5.3007624755859375,5.5545478515625,7.740458015267175,33.900763358778626,-8.816793893129772,73.6787109375,51.6474609375,-60.9462890625,
1749736416.2396615,2025-06-12 20:53:36.239,31.590948572797796,-1.1563994018554686,0.3758896606445312,14.013262316894531,0.6335877862595419,10.427480916030534,-4.213740458015267,71.72578125,52.541015625,-59.401171874999996,
1749736416.255127,2025-06-12 20:53:36.255,31.447180040135382,-0.82360537109375,3.584119885253906,7.163451367187499,15.916030534351146,34.19847328244275,-5.488549618320611,72.4359375,53.970703125,-60.774609375,
1749736416.2703474,2025-06-12 20:53:36.270,31.590948572797796,3.4931402221679684,2.2457611572265623,13.069946862792968,-4.0458015267175576,-34.56488549618321,-0.13740458015267176,72.25839843749999,51.6474609375,-60.9462890625,
1749736416.285163,2025-06-12 20:53:36.285,31.590948572797796,5.099649536132812,6.641515405273437,2.0302830078125,11.610687022900763,-76.47328244274809,-9.580152671755725,72.6134765625,52.3623046875,-60.259570312499996,
1749736416.3003325,2025-06-12 20:53:36.300,31.543025728576993,-2.1547814941406247,2.6527754394531247,5.159504577636718,-3.595419847328244,50.83969465648855,3.2061068702290076,72.4359375,53.970703125,-60.774609375,
1749736416.315107,2025-06-12 20:53:36.315,31.20756581903136,1.6831237670898436,-1.1324573852539062,13.388375683593749,11.282442748091603,46.79389312977099,-11.145038167938932,71.37070312499999,51.111328125,-61.117968749999996,
1749736416.330152,2025-06-12 20:53:36.330,31.447180040135382,-3.3494881225585935,-0.7398083129882812,9.852139831542969,2.068702290076336,-26.85496183206107,-0.9236641221374046,71.72578125,52.8984375,-61.117968749999996,
1749736416.344872,2025-06-12 20:53:36.344,31.447180040135382,-7.041347082519531,-0.16759411621093748,7.544129431152343,-4.633587786259542,36.213740458015266,-10.526717557251908,72.9685546875,52.3623046875,-59.2294921875,
1749736416.3597794,2025-06-12 20:53:36.359,31.6388714170186,5.128379956054687,-4.975151049804687,12.157756030273436,7.183206106870229,83.32824427480917,-3.6564885496183206,71.37070312499999,53.255859375,-61.117968749999996,
1749736416.3759966,2025-06-12 20:53:36.375,31.543025728576993,-6.251260534667968,5.2456958374023435,2.422932080078125,3.045801526717557,-74.95419847328245,14.206106870229007,71.5482421875,51.2900390625,-59.5728515625,
1749736416.390612,2025-06-12 20:53:36.390,31.543025728576993,-6.947973217773437,-4.4005426513671875,6.9144543945312495,6.786259541984733,23.572519083969464,1.0687022900763359,73.501171875,52.18359375,-61.8046875,
1749736416.4051175,2025-06-12 20:53:36.405,31.447180040135382,-6.445190869140625,-2.29843359375,6.5385647338867185,11.19083969465649,78.6030534351145,1.816793893129771,72.25839843749999,51.6474609375,-59.9162109375,36.17287758413077
1749736416.4241476,2025-06-12 20:53:36.424,31.39925719591458,-18.224663037109373,-0.16519991455078123,5.0206408813476555,-8.32824427480916,-32.38167938931298,1.0687022900763359,73.3236328125,51.6474609375,-60.602929687499994,
1749736416.4387965,2025-06-12 20:53:36.438,31.543025728576993,11.860875024414062,4.726154077148437,19.074604626464843,22.389312977099237,41.25190839694657,2.9389312977099236,71.9033203125,50.2177734375,-60.259570312499996,
1749736416.4533362,2025-06-12 20:53:36.453,31.590948572797796,-11.602301245117188,2.4899697265625,1.3144167114257812,13.366412213740459,48.74045801526717,6.679389312977099,71.1931640625,51.2900390625,-59.5728515625,
1749736416.4679477,2025-06-12 20:53:36.467,31.447180040135382,-0.8020575561523438,-5.068524914550781,13.168109130859374,0.26717557251908397,4.557251908396947,-1.2595419847328244,72.25839843749999,52.0048828125,-62.319726562499994,
1749736416.484238,2025-06-12 20:53:36.484,31.447180040135382,-5.817910034179687,-6.069301208496094,8.535328918457031,15.114503816793894,37.961832061068705,11.251908396946565,71.72578125,52.541015625,-61.117968749999996,
1749736416.4991298,2025-06-12 20:53:36.499,31.447180040135382,-3.430890979003906,1.1180921752929687,7.711723547363281,3.4122137404580153,19.50381679389313,3.83206106870229,72.9685546875,52.7197265625,-60.259570312499996,
1749736416.5136857,2025-06-12 20:53:36.513,31.447180040135382,-2.422932080078125,-3.756502404785156,18.289306481933593,0.6564885496183206,-54.14503816793893,13.083969465648854,71.72578125,51.826171875,-61.8046875,
1749736416.528131,2025-06-12 20:53:36.528,31.6388714170186,-6.289567761230469,-1.4437036010742186,0.7637503295898437,4.122137404580153,31.0,0.7633587786259542,71.72578125,52.18359375,-58.714453125,
1749736416.543619,2025-06-12 20:53:36.543,31.20756581903136,2.3582886352539063,0.4381389038085937,10.005368737792969,8.740458015267176,-4.679389312977099,7.793893129770993,72.080859375,52.18359375,-59.744531249999994,
1749736416.55878,2025-06-12 20:53:36.558,31.39925719591458,-1.2928688964843749,-2.31758720703125,14.238317272949217,13.34351145038168,-1.0916030534351144,13.648854961832061,72.4359375,51.46875,-61.117968749999996,
1749736416.5729854,2025-06-12 20:53:36.572,31.39925719591458,-4.3239281982421875,4.42448466796875,1.2617442749023438,6.4961832061068705,-0.32061068702290074,4.66412213740458,72.791015625,53.61328125,-60.43125,
1749736416.5899515,2025-06-12 20:53:36.589,31.543025728576993,-6.993463049316406,-3.296815686035156,10.754753857421875,16.580152671755727,5.702290076335878,21.47328244274809,73.3236328125,52.7197265625,-61.2896484375,
1749736416.6059017,2025-06-12 20:53:36.605,31.6388714170186,-10.273519323730468,4.716577270507813,5.702988354492187,26.984732824427482,31.931297709923665,9.717557251908397,72.9685546875,53.4345703125,-60.602929687499994,
1749736416.6209655,2025-06-12 20:53:36.620,31.447180040135382,8.092401611328125,-0.05746083984375,12.607865942382812,10.977099236641221,-41.93893129770992,8.259541984732824,,,,34.97287176279211
1749736416.633984,2025-06-12 20:53:36.633,31.6388714170186,-3.299209887695312,5.042188696289062,15.550339782714843,-3.068702290076336,43.12213740458015,5.679389312977099,71.9033203125,52.3623046875,-61.2896484375,
1749736416.646793,2025-06-12 20:53:36.646,31.543025728576993,-2.288856787109375,4.187458703613281,7.8912886718749995,23.091603053435115,4.1679389312977095,5.977099236641221,72.6134765625,52.7197265625,-60.9462890625,
1749736416.6596715,2025-06-12 20:53:36.659,31.447180040135382,-5.161898779296875,1.695094775390625,6.900089184570312,15.305343511450381,11.687022900763358,3.6106870229007635,73.6787109375,54.5068359375,-59.9162109375,
1749736416.672605,2025-06-12 20:53:36.672,31.39925719591458,0.411802685546875,-2.442085693359375,17.025168005371093,12.98473282442748,-25.435114503816795,8.053435114503817,72.4359375,52.541015625,-59.0578125,
1749736416.6855586,2025-06-12 20:53:36.685,30.96795159792734,-3.7038299682617186,2.3151930053710936,8.214505895996094,17.938931297709924,71.54961832061069,6.083969465648855,71.9033203125,50.9326171875,-59.5728515625,
1749736416.7004757,2025-06-12 20:53:36.700,31.447180040135382,-0.47884033203125,2.1883003173828124,13.91031164550781,13.221374045801527,-19.69465648854962,1.1068702290076335,71.9033203125,52.3623046875,-60.9462890625,
1749736416.7151587,2025-06-12 20:53:36.715,30.96795159792734,2.4349030883789062,4.165910888671875,14.709975,20.50381679389313,0.1450381679389313,-0.7175572519083969,72.4359375,52.541015625,-59.744531249999994,
1749736416.7291086,2025-06-12 20:53:36.729,31.20756581903136,-1.8195932617187498,3.967192150878906,3.2058360229492187,16.374045801526716,4.572519083969466,-0.9465648854961832,72.9685546875,53.0771484375,-59.2294921875,
1749736416.7436726,2025-06-12 20:53:36.743,31.6388714170186,-4.151545678710937,1.1061211669921875,13.673285681152343,8.0,-6.32824427480916,-4.358778625954199,71.1931640625,53.4345703125,-61.6330078125,
1749736416.7578719,2025-06-12 20:53:36.757,31.447180040135382,-4.4819455078125,1.0869675537109373,8.966285217285156,8.977099236641221,28.045801526717558,-5.0534351145038165,73.3236328125,52.3623046875,-59.5728515625,
1749736416.7721968,2025-06-12 20:53:36.772,31.39925719591458,2.636016027832031,0.16041151123046873,4.855440966796874,11.267175572519085,4.343511450381679,-8.0,71.9033203125,52.7197265625,-58.542773437499996,
1749736416.7864482,2025-06-12 20:53:36.786,31.39925719591458,-7.42441934814453,0.040701428222656245,7.809885815429687,2.0916030534351147,-46.12977099236641,-4.687022900763359,72.6134765625,52.7197265625,-60.9462890625,
1749736416.8007443,2025-06-12 20:53:36.800,31.30341150747297,-3.5984850952148437,1.6711527587890624,10.149020837402343,15.854961832061068,20.099236641221374,3.954198473282443,71.5482421875,52.7197265625,-59.5728515625,
1749736416.8160994,2025-06-12 20:53:36.816,31.447180040135382,-0.9552864624023437,2.626439221191406,6.751648681640624,6.1603053435114505,-37.0,-3.3282442748091605,72.25839843749999,53.0771484375,-59.5728515625,
1749736416.8307567,2025-06-12 20:53:36.830,30.96795159792734,-5.430049365234375,-2.6671406494140624,9.473855969238281,28.15267175572519,-34.85496183206107,-7.916030534351145,72.6134765625,51.2900390625,-59.9162109375,
1749736416.8450987,2025-06-12 20:53:36.845,31.01587444214814,1.5394716674804687,3.7205893798828122,11.427524523925781,4.0,36.17557251908397,0.183206106870229,72.25839843749999,53.7919921875,-59.5728515625,
1749736416.859282,2025-06-12 20:53:36.859,32.30979123610986,-6.8785413696289055,1.924938134765625,8.506598498535157,0.7099236641221374,-32.17557251908397,-6.183206106870229,71.37070312499999,52.18359375,-61.8046875,
1749736416.873614,2025-06-12 20:53:36.873,31.974331326564233,0.4213794921875,2.3391350219726563,6.248866333007812,13.51908396946565,-37.94656488549618,-8.83206106870229,73.6787109375,52.7197265625,-59.5728515625,
1749736416.8880465,2025-06-12 20:53:36.888,31.6388714170186,0.18435352783203124,0.7757213378906249,8.042123376464843,5.572519083969466,16.389312977099237,1.3511450381679388,71.9033203125,53.0771484375,-60.602929687499994,
1749736416.9023848,2025-06-12 20:53:36.902,31.590948572797796,-11.396399902343749,1.3072341064453123,3.337517114257812,-6.5038167938931295,-40.0,-10.633587786259541,72.6134765625,50.9326171875,-59.5728515625,
1749736416.9167335,2025-06-12 20:53:36.916,31.30341150747297,3.392583752441406,-2.262520568847656,19.469647900390623,3.9236641221374047,31.358778625954198,-0.9236641221374046,72.4359375,50.75390625,-60.087890625,
1749736416.9325712,2025-06-12 20:53:36.932,31.447180040135382,4.328716601562499,-1.905784521484375,8.853757739257812,-1.7786259541984732,-85.95419847328245,11.83969465648855,72.080859375,51.111328125,-60.774609375,
1749736416.9465082,2025-06-12 20:53:36.946,31.447180040135382,-10.371681591796875,2.4301146850585935,11.4538607421875,1.786259541984733,38.29007633587786,-3.969465648854962,73.85625,53.255859375,-60.087890625,
1749736416.961035,2025-06-12 20:53:36.961,31.447180040135382,5.449202978515625,-1.7669208251953124,14.07790576171875,10.34351145038168,43.02290076335878,10.84732824427481,74.03378906249999,52.7197265625,-61.2896484375,
1749736416.9753716,2025-06-12 20:53:36.975,31.39925719591458,-15.444994909667967,1.9800047729492187,4.917690209960937,0.3282442748091603,5.0,-1.618320610687023,71.72578125,52.8984375,-61.117968749999996,
1749736416.9897428,2025-06-12 20:53:36.989,31.590948572797796,6.696582043457031,-6.888118176269531,16.941370947265625,-1.8015267175572518,-15.557251908396946,5.4961832061068705,72.4359375,52.8984375,-60.774609375,
1749736417.0040567,2025-06-12 20:53:37.004,31.30341150747297,-4.623203405761719,0.296881005859375,5.408501550292969,5.030534351145038,29.885496183206108,-4.358778625954199,72.6134765625,51.2900390625,-60.259570312499996,
1749736417.0184422,2025-06-12 20:53:37.018,31.590948572797796,5.398924743652343,1.0079588989257813,6.528987927246093,-7.893129770992366,-63.17557251908397,-0.8702290076335878,71.9033203125,52.3623046875,-60.602929687499994,
1749736417.0327404,2025-06-12 20:53:37.032,31.590948572797796,-4.436455676269531,-1.2641384765625,14.07790576171875,8.19083969465649,-30.404580152671755,-0.8015267175572519,69.950390625,51.111328125,-59.744531249999994,
1749736417.0485058,2025-06-12 20:53:37.048,31.447180040135382,-8.927977990722656,2.3678654418945313,2.5641899780273434,15.01526717557252,0.6412213740458015,-2.2595419847328246,72.4359375,53.61328125,-59.744531249999994,
1749736417.062921,2025-06-12 20:53:37.062,31.20756581903136,3.938461730957031,-1.618480322265625,19.517531933593748,2.282442748091603,-31.38167938931298,1.6030534351145038,72.6134765625,50.9326171875,-61.976367187499996,
1749736417.0773673,2025-06-12 20:53:37.077,31.39925719591458,2.39420166015625,4.165910888671875,11.554417211914062,30.16030534351145,16.870229007633586,2.8244274809160306,72.25839843749999,51.6474609375,-60.602929687499994,
1749736417.0916014,2025-06-12 20:53:37.091,31.447180040135382,-4.139574670410156,-1.484405029296875,-4.879382983398437,7.893129770992366,-96.93129770992367,7.648854961832061,71.9033203125,52.3623046875,-61.6330078125,
1749736417.105996,2025-06-12 20:53:37.105,31.447180040135382,-9.196128576660156,-2.4492682983398435,16.44577120361328,18.46564885496183,4.419847328244275,7.0534351145038165,72.791015625,52.18359375,-61.461328124999994,
1749736417.1205168,2025-06-12 20:53:37.120,31.6388714170186,16.03636271972656,0.1388636962890625,13.134590307617186,13.381679389312977,-20.72519083969466,6.656488549618321,71.72578125,51.111328125,-59.744531249999994,
1749736417.1350403,2025-06-12 20:53:37.135,31.590948572797796,-14.60702432861328,2.9855694702148434,-0.2346317626953125,-0.2748091603053435,-12.106870229007633,4.8320610687022905,74.03378906249999,53.0771484375,-61.976367187499996,
1749736417.1507375,2025-06-12 20:53:37.150,31.447180040135382,-1.7094599853515624,-5.212177014160156,12.820949890136719,30.099236641221374,-48.396946564885496,19.51145038167939,72.791015625,51.46875,-60.774609375,
1749736417.1654036,2025-06-12 20:53:37.165,31.6388714170186,-0.4070142822265625,1.180341418457031,4.290409374999999,11.717557251908397,-20.740458015267176,15.82442748091603,74.03378906249999,52.7197265625,-61.6330078125,
1749736417.1801498,2025-06-12 20:53:37.180,31.447180040135382,-5.736507177734374,-1.0582371337890624,7.819462622070312,4.145038167938932,-22.045801526717558,-2.2213740458015265,72.6134765625,51.6474609375,-61.2896484375,
1749736417.1947994,2025-06-12 20:53:37.194,31.447180040135382,-5.461173986816406,0.26336218261718747,10.081983190917969,4.473282442748092,-28.893129770992367,6.9465648854961835,71.5482421875,52.7197265625,-61.2896484375,
1749736417.2093222,2025-06-12 20:53:37.209,31.543025728576993,-1.6017209106445311,7.376535314941406,7.599196069335937,17.49618320610687,37.099236641221374,4.267175572519084,72.080859375,54.685546875,-61.117968749999996,
1749736417.223995,2025-06-12 20:53:37.223,31.447180040135382,-1.1324573852539062,-1.7262193969726563,9.026140258789061,-5.824427480916031,-19.061068702290076,-8.412213740458014,70.30546875,52.541015625,-60.43125,
1749736417.238534,2025-06-12 20:53:37.238,31.447180040135382,5.736507177734374,0.47884033203125,8.073247998046874,21.6793893129771,33.37404580152672,-12.80916030534351,71.37070312499999,53.61328125,-60.774609375,
1749736417.2530313,2025-06-12 20:53:37.253,30.96795159792734,-3.816357446289062,5.382165332031249,13.77144794921875,-14.748091603053435,-0.6183206106870229,3.5114503816793894,72.6134765625,53.4345703125,-60.259570312499996,
1749736417.269939,2025-06-12 20:53:37.269,31.447180040135382,10.448296044921875,3.356670727539062,16.508020446777344,18.480916030534353,45.18320610687023,4.816793893129771,73.3236328125,52.0048828125,-59.2294921875,
1749736417.2846189,2025-06-12 20:53:37.284,31.590948572797796,-13.333309045410155,-1.024718310546875,2.1164742675781247,0.31297709923664124,-13.98473282442748,2.3435114503816794,72.4359375,53.61328125,-60.43125,
1749736417.301865,2025-06-12 20:53:37.301,31.543025728576993,-7.64229169921875,-2.839523168945312,12.828132495117186,18.84732824427481,-4.625954198473282,0.5190839694656488,71.37070312499999,54.685546875,-59.744531249999994,
1749736417.3171203,2025-06-12 20:53:37.317,31.39925719591458,1.2042834350585936,4.469974499511719,8.257601525878906,10.15267175572519,1.1221374045801527,-2.9923664122137406,73.3236328125,51.6474609375,-60.602929687499994,
1749736417.3323987,2025-06-12 20:53:37.332,31.30341150747297,-3.438073583984375,-4.158728283691406,3.6272155151367187,16.793893129770993,-27.99236641221374,5.358778625954199,72.25839843749999,54.1494140625,-60.9462890625,
1749736417.3470464,2025-06-12 20:53:37.347,31.255488663252166,-3.189076611328125,-0.19393033447265623,11.312602844238281,4.740458015267175,-23.801526717557252,2.4427480916030535,72.4359375,52.18359375,-59.744531249999994,
1749736417.3616557,2025-06-12 20:53:37.361,31.39925719591458,2.4301146850585935,0.4381389038085937,10.809820495605468,17.61832061068702,15.007633587786259,4.786259541984733,72.791015625,53.970703125,-60.087890625,
1749736417.3773592,2025-06-12 20:53:37.377,31.590948572797796,-2.3678654418945313,1.3192051147460937,5.566518859863281,2.6259541984732824,6.786259541984733,-6.763358778625954,73.501171875,52.541015625,-60.087890625,
1749736417.3923402,2025-06-12 20:53:37.392,31.447180040135382,-4.707000463867187,0.08858546142578125,13.271059802246093,8.770992366412214,9.908396946564885,0.183206106870229,71.1931640625,53.0771484375,-60.259570312499996,
1749736417.406984,2025-06-12 20:53:37.406,31.6388714170186,-5.80354482421875,-2.0973206542968748,2.6503812377929687,13.625954198473282,9.954198473282442,1.7633587786259541,73.14609374999999,53.970703125,-60.087890625,
1749736417.4227052,2025-06-12 20:53:37.422,32.40563692455147,-11.726799731445311,-3.0789433349609374,10.072406384277343,9.122137404580153,24.633587786259543,1.8244274809160306,71.72578125,52.18359375,-60.087890625,
1749736417.4371066,2025-06-12 20:53:37.437,32.30979123610986,-2.626439221191406,1.0893617553710937,9.375693701171874,14.748091603053435,13.748091603053435,1.1068702290076335,73.501171875,53.970703125,-60.43125,
1749736417.4510148,2025-06-12 20:53:37.451,31.39925719591458,-0.354341845703125,2.327164013671875,2.770091320800781,13.572519083969466,-6.961832061068702,-4.99236641221374,73.85625,53.970703125,-60.774609375,
1749736417.4650576,2025-06-12 20:53:37.465,31.111720130589752,-5.817910034179687,-2.221819140625,19.61270144958496,22.114503816793892,43.587786259541986,3.4732824427480917,72.25839843749999,51.2900390625,-58.1994140625,
1749736417.479043,2025-06-12 20:53:37.479,31.6388714170186,10.39322940673828,2.461239306640625,8.896853369140624,10.17557251908397,53.70229007633588,9.259541984732824,73.14609374999999,54.685546875,-59.401171874999996,
1749736417.49514,2025-06-12 20:53:37.495,31.255488663252166,-5.456385583496093,1.9752163696289062,8.039729174804688,-1.6030534351145038,-44.725190839694655,-1.6870229007633588,71.9033203125,52.3623046875,-60.9462890625,
1749736417.5092883,2025-06-12 20:53:37.509,31.447180040135382,3.191470812988281,0.34715924072265625,13.299790222167967,2.267175572519084,38.00763358778626,-0.4351145038167939,72.4359375,53.255859375,-60.774609375,
1749736417.5238104,2025-06-12 20:53:37.523,31.447180040135382,-16.124948181152345,0.6847416748046875,5.312733483886719,4.099236641221374,47.14503816793893,-1.4045801526717556,71.9033203125,54.1494140625,-60.602929687499994,
1749736417.5374901,2025-06-12 20:53:37.537,31.30341150747297,3.114856359863281,-2.221819140625,12.071564770507813,-4.740458015267175,-68.38167938931298,-6.145038167938932,71.9033203125,51.2900390625,-61.2896484375,
1749736417.5522604,2025-06-12 20:53:37.552,30.96795159792734,-4.92247861328125,-0.36391865234375,7.357381701660156,6.358778625954199,10.32824427480916,5.511450381679389,72.6134765625,52.0048828125,-59.2294921875,
1749736417.566759,2025-06-12 20:53:37.566,31.543025728576993,-7.79552060546875,4.80755693359375,5.5641246582031245,1.3740458015267176,5.412213740458015,-4.0,72.6134765625,53.0771484375,-61.6330078125,
1749736417.5812237,2025-06-12 20:53:37.581,31.6388714170186,6.866570361328125,0.7158662963867187,12.797007873535156,7.648854961832061,-43.45038167938932,2.786259541984733,73.6787109375,53.0771484375,-60.259570312499996,
1749736417.59798,2025-06-12 20:53:37.597,31.447180040135382,7.4411787597656245,1.3551181396484375,15.037980627441405,15.709923664122137,34.045801526717554,-5.1679389312977095,71.5482421875,53.7919921875,-59.9162109375,
1749736417.6135461,2025-06-12 20:53:37.613,31.447180040135382,-2.0877438476562498,1.3910311645507811,10.062829577636718,-7.106870229007634,-38.43511450381679,-7.732824427480916,71.72578125,53.255859375,-61.117968749999996,
1749736417.6286418,2025-06-12 20:53:37.628,31.447180040135382,-2.1068974609374997,-0.031124621582031248,10.283096130371094,11.335877862595419,-17.427480916030536,-10.465648854961833,72.080859375,53.255859375,-60.43125,
1749736417.6436806,2025-06-12 20:53:37.643,31.30341150747297,-7.216123803710937,0.6296750366210937,7.390900524902343,2.5343511450381677,-25.16030534351145,-3.7480916030534353,72.4359375,52.18359375,-60.774609375,
1749736417.6583807,2025-06-12 20:53:37.658,31.255488663252166,-1.2593500732421874,-2.4516625,6.303932971191406,3.3435114503816794,-44.12213740458015,-9.435114503816793,72.4359375,51.826171875,-61.117968749999996,
1749736417.673451,2025-06-12 20:53:37.673,31.39925719591458,-8.169016064453125,-1.7022773803710936,10.864887133789061,13.0,25.229007633587788,-5.038167938931298,72.791015625,52.18359375,-59.401171874999996,
1749736417.6885684,2025-06-12 20:53:37.688,31.39925719591458,-8.204929089355469,-1.0630255371093749,3.3782185424804685,-4.137404580152672,28.641221374045802,5.122137404580153,71.9033203125,53.0771484375,-58.886132812499994,34.72619578520023
1749736417.709293,2025-06-12 20:53:37.709,32.357714080330666,-8.339004382324218,10.819397302246093,11.29344923095703,8.229007633587786,4.488549618320611,-17.549618320610687,72.6134765625,53.4345703125,-60.602929687499994,
1749736417.7239797,2025-06-12 20:53:37.723,31.255488663252166,8.327033374023436,2.068590234375,11.044452258300781,-10.610687022900763,8.908396946564885,-1.8625954198473282,73.6787109375,52.7197265625,-59.9162109375,
1749736417.7388482,2025-06-12 20:53:37.738,30.96795159792734,-8.690952026367187,-5.542576843261719,6.797138513183594,-7.099236641221374,-12.633587786259541,-4.625954198473282,72.25839843749999,53.0771484375,-60.9462890625,
1749736417.7537735,2025-06-12 20:53:37.753,31.447180040135382,-0.5770026000976562,5.853823059082031,9.03332286376953,-3.854961832061069,-12.961832061068701,-12.801526717557252,70.660546875,52.18359375,-60.43125,
1749736417.7676349,2025-06-12 20:53:37.767,31.447180040135382,-3.7014357666015623,3.287238879394531,0.15322890625,2.946564885496183,22.6793893129771,-3.2595419847328246,71.1931640625,52.7197265625,-61.6330078125,
1749736417.7827487,2025-06-12 20:53:37.782,31.39925719591458,-2.114080065917969,-2.7174188842773437,15.037980627441405,17.3206106870229,18.81679389312977,0.06870229007633588,73.501171875,51.111328125,-59.744531249999994,
1749736417.7967644,2025-06-12 20:53:37.796,31.39925719591458,-7.687781530761718,0.2442085693359375,5.892130285644531,9.511450381679388,12.86259541984733,5.152671755725191,72.9685546875,53.4345703125,-61.2896484375,
1749736417.8134854,2025-06-12 20:53:37.813,31.447180040135382,-3.957615344238281,0.22266075439453123,11.137826123046874,0.7404580152671756,-0.9083969465648855,1.9465648854961832,72.9685546875,52.3623046875,-60.602929687499994,
1749736417.8279886,2025-06-12 20:53:37.827,31.590948572797796,3.0526071166992184,-2.501940734863281,11.195286962890624,24.786259541984734,48.35114503816794,9.236641221374045,71.72578125,53.61328125,-60.774609375,
1749736417.8413563,2025-06-12 20:53:37.841,31.255488663252166,-7.350199096679687,5.121197351074218,0.12689268798828124,10.893129770992367,-38.908396946564885,1.297709923664122,71.5482421875,53.4345703125,-59.2294921875,35.21571455001859
1749736417.8599615,2025-06-12 20:53:37.859,31.878485638122623,13.148955517578123,-0.031124621582031248,19.584569580078124,23.81679389312977,-36.87022900763359,-0.3893129770992366,71.72578125,52.541015625,-61.8046875,
1749736417.8744326,2025-06-12 20:53:37.874,31.543025728576993,-3.019088293457031,0.814028564453125,7.299920861816406,15.603053435114504,62.52671755725191,6.1679389312977095,71.37070312499999,53.61328125,-60.43125,
1749736417.8888938,2025-06-12 20:53:37.888,31.447180040135382,0.45489831542968745,-1.0271125122070313,14.796166259765624,5.312977099236641,-13.465648854961833,-12.595419847328245,72.25839843749999,52.0048828125,-60.602929687499994,
1749736417.9033399,2025-06-12 20:53:37.903,31.447180040135382,-4.680664245605469,-1.8650830932617186,6.284779357910156,26.396946564885496,-64.09923664122137,9.244274809160306,73.3236328125,52.7197265625,-61.2896484375,
1749736417.9177697,2025-06-12 20:53:37.917,32.357714080330666,-10.024522351074218,5.691017346191406,0.055066638183593745,10.282442748091603,-23.015267175572518,-2.7786259541984735,74.03378906249999,53.4345703125,-62.6630859375,
1749736417.9336398,2025-06-12 20:53:37.933,31.447180040135382,-1.0175357055664063,2.4301146850585935,19.61270144958496,34.29007633587786,30.80916030534351,4.221374045801527,72.9685546875,52.3623046875,-59.9162109375,
1749736417.947907,2025-06-12 20:53:37.947,31.590948572797796,5.9400143188476555,6.87614716796875,1.7980454467773437,9.778625954198473,-70.19847328244275,-2.9618320610687023,73.14609374999999,52.18359375,-60.43125,
1749736417.9621632,2025-06-12 20:53:37.962,31.543025728576993,0.7661445312499999,-1.0678139404296874,12.76827745361328,12.251908396946565,50.06106870229008,-7.9465648854961835,71.9033203125,53.4345703125,-61.2896484375,35.742833559941815
1749736417.9805439,2025-06-12 20:53:37.980,31.447180040135382,-3.7325603881835936,0.22266075439453123,8.451531860351562,11.351145038167939,-55.61068702290076,-0.7862595419847328,71.72578125,52.8984375,-60.087890625,
1749736417.9949033,2025-06-12 20:53:37.994,30.96795159792734,1.7405846069335937,0.5602431884765625,10.005368737792969,0.4961832061068702,40.2442748091603,9.122137404580153,73.3236328125,54.5068359375,-59.9162109375,
1749736418.0090642,2025-06-12 20:53:38.009,31.447180040135382,-15.713145495605469,-4.651933825683593,9.3086560546875,23.3206106870229,6.984732824427481,-10.038167938931299,74.211328125,52.541015625,-60.774609375,
1749736418.023292,2025-06-12 20:53:38.023,32.30979123610986,5.95677373046875,2.152387292480469,17.7362458984375,3.3893129770992365,74.96946564885496,6.312977099236641,73.6787109375,51.6474609375,-59.2294921875,
1749736418.038711,2025-06-12 20:53:38.038,31.6388714170186,-0.09576806640624999,5.228936425781249,0.9744400756835937,15.908396946564885,-42.47328244274809,-9.419847328244275,72.9685546875,54.1494140625,-61.2896484375,
1749736418.0530226,2025-06-12 20:53:38.053,31.447180040135382,3.1172505615234374,-0.5099649536132812,16.263811877441405,15.908396946564885,-11.488549618320612,5.641221374045801,72.080859375,53.255859375,-60.43125,35.60977462853804
1749736418.071277,2025-06-12 20:53:38.071,31.30341150747297,-5.681440539550781,3.938461730957031,6.497863305664062,13.221374045801527,29.129770992366414,5.030534351145038,71.72578125,52.8984375,-60.43125,
1749736418.0856564,2025-06-12 20:53:38.085,31.543025728576993,1.1875240234375,-1.8100164550781248,15.586252807617187,5.687022900763359,-6.122137404580153,-8.557251908396946,72.25839843749999,52.0048828125,-59.9162109375,
1749736418.0999317,2025-06-12 20:53:38.099,31.447180040135382,-6.143521459960938,2.9640216552734375,12.61504854736328,14.748091603053435,-1.2748091603053435,2.3435114503816794,73.6787109375,53.0771484375,-60.602929687499994,
1749736418.114231,2025-06-12 20:53:38.114,31.974331326564233,-5.003881469726562,0.076614453125,7.41244833984375,21.33587786259542,48.534351145038165,-8.458015267175572,74.3888671875,52.3623046875,-60.602929687499994,
1749736418.1292129,2025-06-12 20:53:38.129,31.543025728576993,9.114725720214842,-1.216254443359375,19.584569580078124,6.152671755725191,-19.076335877862597,3.687022900763359,73.3236328125,52.3623046875,-60.259570312499996,
1749736418.145121,2025-06-12 20:53:38.145,31.39925719591458,-1.8531120849609375,-0.82360537109375,12.023680737304687,21.595419847328245,50.3587786259542,-3.984732824427481,73.501171875,52.8984375,-59.744531249999994,
1749736418.1597428,2025-06-12 20:53:38.159,31.447180040135382,-11.240776794433593,2.0973206542968748,4.867411975097656,1.1068702290076335,-59.18320610687023,-8.511450381679388,73.3236328125,52.7197265625,-60.259570312499996,
1749736418.1746056,2025-06-12 20:53:38.174,31.543025728576993,-0.39264907226562495,-2.6479870361328124,15.715539697265624,10.770992366412214,24.99236641221374,2.2900763358778624,71.5482421875,50.5751953125,-59.9162109375,
1749736418.1910195,2025-06-12 20:53:38.191,31.447180040135382,-1.924938134765625,4.8889597900390624,2.849099975585937,0.6564885496183206,-11.625954198473282,-2.4198473282442747,72.25839843749999,53.4345703125,-59.5728515625,
1749736418.2053857,2025-06-12 20:53:38.205,31.6388714170186,-11.834538806152343,-6.945579016113281,6.4284314575195305,3.4122137404580153,-24.83206106870229,-1.450381679389313,73.85625,52.18359375,-60.774609375,
1749736418.2195888,2025-06-12 20:53:38.219,32.21394554766825,-5.851428857421874,-1.5753846923828123,3.071760729980469,17.251908396946565,30.206106870229007,15.335877862595419,71.72578125,53.255859375,-59.744531249999994,
1749736418.2338274,2025-06-12 20:53:38.233,31.39925719591458,1.8339584716796873,1.5610194824218748,4.477157104492187,12.938931297709924,-17.786259541984734,-4.229007633587786,73.14609374999999,53.970703125,-60.087890625,35.02976978441911
1749736418.2529898,2025-06-12 20:53:38.252,31.447180040135382,-13.010091821289063,-1.6711527587890624,17.482460522460936,9.961832061068701,24.16030534351145,-4.5038167938931295,72.25839843749999,51.6474609375,-61.2896484375,
1749736418.267592,2025-06-12 20:53:38.267,31.6388714170186,-6.787561706542968,2.2194249389648437,4.508281726074219,17.114503816793892,-12.236641221374045,-3.732824427480916,74.56640625,51.46875,-60.774609375,
1749736418.2814894,2025-06-12 20:53:38.281,32.357714080330666,6.177040283203125,0.143652099609375,10.747571252441405,-1.450381679389313,-58.099236641221374,0.7480916030534351,71.9033203125,53.0771484375,-60.259570312499996,
1749736418.295411,2025-06-12 20:53:38.295,31.6388714170186,-4.7955859252929685,-2.39420166015625,13.740323327636718,-0.35877862595419846,37.51908396946565,-5.038167938931298,71.9033203125,51.6474609375,-61.2896484375,
1749736418.3091795,2025-06-12 20:53:38.309,31.39925719591458,-5.887341882324218,4.029441394042968,7.663839514160156,6.603053435114504,-9.618320610687023,-9.763358778625955,72.4359375,52.18359375,-59.744531249999994,
1749736418.3242178,2025-06-12 20:53:38.324,31.543025728576993,1.5322890624999999,-1.714248388671875,12.488155859374999,-4.358778625954199,-30.435114503816795,1.2290076335877862,72.9685546875,50.9326171875,-61.2896484375,35.903000723047626
1749736418.3419354,2025-06-12 20:53:38.341,32.21394554766825,2.81558115234375,3.4452561889648434,7.649474304199218,14.122137404580153,14.84732824427481,2.1755725190839694,72.080859375,52.541015625,-60.43125,
1749736418.3557947,2025-06-12 20:53:38.355,31.447180040135382,-3.564966271972656,1.2617442749023438,3.1579519897460937,15.259541984732824,-67.54961832061069,-1.5572519083969465,73.85625,52.8984375,-59.744531249999994,
1749736418.371288,2025-06-12 20:53:38.371,31.30341150747297,-0.6153098266601562,-1.7573440185546874,19.61270144958496,7.0534351145038165,-62.2442748091603,1.5267175572519085,73.501171875,52.541015625,-59.401171874999996,
1749736418.3870974,2025-06-12 20:53:38.387,31.6388714170186,-7.232883215332031,-0.4070142822265625,5.394136340332031,5.931297709923665,-24.954198473282442,5.305343511450381,71.5482421875,53.7919921875,-60.9462890625,
1749736418.4049602,2025-06-12 20:53:38.404,31.926408482343426,-5.992686755371094,-0.8475473876953125,17.733851696777343,-3.8244274809160306,-26.564885496183205,-0.26717557251908397,71.72578125,51.46875,-60.774609375,
1749736418.4193313,2025-06-12 20:53:38.419,30.96795159792734,5.214571215820312,-2.2960393920898436,14.781801049804686,16.6793893129771,23.435114503816795,7.122137404580153,72.080859375,53.61328125,-60.43125,
1749736418.433055,2025-06-12 20:53:38.433,31.590948572797796,-10.338162768554687,1.9488801513671874,-0.3758896606445312,-3.381679389312977,0.0,2.519083969465649,71.9033203125,50.5751953125,-61.976367187499996,
1749736418.4465787,2025-06-12 20:53:38.446,31.447180040135382,-7.896077075195312,-4.302380383300781,9.17458076171875,3.2595419847328246,2.7251908396946565,-4.206106870229007,72.9685546875,53.4345703125,-60.259570312499996,
1749736418.4601848,2025-06-12 20:53:38.460,31.447180040135382,1.8698714965820311,-1.5035586425781249,8.932766394042968,3.0381679389312977,-2.33587786259542,3.5877862595419847,71.9033203125,52.7197265625,-60.602929687499994,
1749736418.4735126,2025-06-12 20:53:38.473,31.447180040135382,3.5865140869140624,4.735730883789063,2.5474305664062498,-7.977099236641221,21.587786259541986,-2.1526717557251906,72.25839843749999,51.2900390625,-61.6330078125,35.24335481549614
1749736418.492857,2025-06-12 20:53:38.492,31.447180040135382,-7.213729602050781,-1.7884686401367187,11.156979736328124,14.145038167938932,-26.65648854961832,2.648854961832061,71.72578125,51.826171875,-61.117968749999996,
