timestamp_unix,timestamp_readable,temp_c,accel_x,accel_y,accel_z,gyro_x,gyro_y,gyro_z,mag_x,mag_y,mag_z,heading
1749747152.705104,2025-06-12 23:52:32.705,32.54940545721389,-2.039859814453125,0.316034619140625,9.406818322753905,8.358778625954198,-3.648854961832061,-0.25190839694656486,52.906640625,39.31640625,-53.5640625,38.409857021409486
1749747152.7245245,2025-06-12 23:52:32.724,32.64525114565549,-2.01112939453125,0.21308394775390624,9.402029919433593,8.442748091603054,-4.076335877862595,-0.5725190839694656,51.486328125,41.103515625,-53.907421875,
1749747152.7394857,2025-06-12 23:52:32.739,33.31617096474676,-2.0087351928710935,0.316034619140625,9.464279162597656,8.32824427480916,-3.8244274809160306,-0.06870229007633588,52.196484375,41.103515625,-51.847265625,
1749747152.7529345,2025-06-12 23:52:32.752,33.50786234162997,-2.0087351928710935,0.36152445068359373,9.545682019042967,8.664122137404581,-4.33587786259542,-0.3511450381679389,51.84140625,41.4609375,-52.533984374999996,
1749747152.7657568,2025-06-12 23:52:32.765,33.891245095396414,-2.068590234375,0.33518823242187495,9.495403784179686,8.274809160305344,-4.015267175572519,-0.17557251908396945,53.616796875,40.74609375,-52.87734375,
1749747152.780153,2025-06-12 23:52:32.780,33.31617096474676,-1.9847931762695312,0.3064578125,9.411606726074218,8.17557251908397,-4.122137404580153,-0.2748091603053435,53.439257812499996,41.2822265625,-52.7056640625,
1749747152.7933788,2025-06-12 23:52:32.793,33.31617096474676,-2.01112939453125,0.3112462158203125,9.485826977539062,8.366412213740459,-4.0534351145038165,-0.42748091603053434,54.68203125,41.4609375,-52.533984374999996,
1749747152.8074572,2025-06-12 23:52:32.807,32.64525114565549,-2.1356278808593747,0.3136404174804687,9.452308154296874,8.297709923664122,-4.145038167938932,-0.7404580152671756,53.0841796875,43.0693359375,-52.7056640625,
1749747152.8216455,2025-06-12 23:52:32.821,33.41201665318837,-2.0661960327148434,0.45010991210937495,9.466673364257812,8.16793893129771,-3.8702290076335877,-0.45038167938931295,52.7291015625,42.7119140625,-50.9888671875,
1749747152.8391998,2025-06-12 23:52:32.839,32.54940545721389,-1.8507178833007811,0.296881005859375,9.641450085449218,8.19083969465649,-2.068702290076336,-0.6793893129770993,54.1494140625,40.9248046875,-54.4224609375,
1749747152.8532422,2025-06-12 23:52:32.853,33.17240243208434,-2.0350714111328125,0.296881005859375,9.516951599121093,8.427480916030534,-3.816793893129771,-0.1984732824427481,52.0189453125,39.8525390625,-54.0791015625,
1749747152.8668272,2025-06-12 23:52:32.866,33.41201665318837,-1.9943699829101562,0.28012159423828126,9.548076220703125,8.419847328244275,-3.816793893129771,-0.46564885496183206,52.7291015625,43.0693359375,-52.3623046875,
1749747152.8806765,2025-06-12 23:52:32.880,33.65163087429239,-2.04943662109375,0.30885201416015623,9.449913952636718,8.50381679389313,-4.145038167938932,-0.32061068702290074,52.7291015625,41.6396484375,-53.7357421875,
1749747152.894243,2025-06-12 23:52:32.894,33.41201665318837,-2.0781670410156248,0.32561142578124996,9.507374792480467,8.305343511450381,-3.8244274809160306,-0.3053435114503817,52.3740234375,41.9970703125,-54.4224609375,
1749747152.908223,2025-06-12 23:52:32.908,33.55578518585078,-2.023100402832031,0.34237083740234375,9.495403784179686,8.068702290076336,-4.030534351145038,-0.15267175572519084,53.0841796875,41.6396484375,-53.0490234375,
1749747152.9226084,2025-06-12 23:52:32.922,33.31617096474676,-1.9656395629882812,0.181959326171875,9.397241516113281,8.366412213740459,-4.190839694656488,-0.1984732824427481,51.84140625,41.103515625,-53.907421875,
1749747152.9367027,2025-06-12 23:52:32.936,33.31617096474676,-1.9632453613281249,0.32082302246093747,9.524134204101562,8.297709923664122,-5.793893129770993,-0.22900763358778625,52.906640625,39.673828125,-53.220703125,
1749747152.953783,2025-06-12 23:52:32.953,33.41201665318837,-1.8411410766601561,0.28969840087890625,9.502586389160156,8.572519083969466,-3.7480916030534353,-0.4198473282442748,51.663867187499996,42.3544921875,-54.0791015625,
1749747152.9678383,2025-06-12 23:52:32.967,33.41201665318837,-2.001552587890625,0.3016694091796875,9.514557397460937,8.213740458015268,-3.7022900763358777,-0.20610687022900764,51.84140625,41.4609375,-53.220703125,36.89710750743462
1749747152.9857316,2025-06-12 23:52:32.985,33.939167939617214,-2.003946789550781,0.2705447875976562,9.507374792480467,8.259541984732824,-3.8091603053435112,-0.7862595419847328,54.326953124999996,40.388671875,-53.907421875,
1749747152.9997644,2025-06-12 23:52:32.999,33.939167939617214,-1.9943699829101562,0.3280056274414062,9.433154541015625,8.427480916030534,-4.091603053435114,-0.20610687022900764,52.906640625,40.388671875,-52.533984374999996,
1749747153.0136478,2025-06-12 23:52:33.013,33.36409380896756,-1.9823989746093749,0.3136404174804687,9.502586389160156,8.007633587786259,-3.946564885496183,-0.4961832061068702,52.7291015625,41.2822265625,-53.0490234375,
1749747153.027524,2025-06-12 23:52:33.027,33.31617096474676,-2.142810485839844,0.181959326171875,9.437942944335937,8.17557251908397,-3.9770992366412212,-0.6183206106870229,52.906640625,40.388671875,-54.250781249999996,
1749747153.0413058,2025-06-12 23:52:33.041,33.41201665318837,-2.0063409912109376,0.34237083740234375,9.466673364257812,8.442748091603054,-4.083969465648855,-0.3893129770992366,50.9537109375,40.9248046875,-53.392382812499996,
1749747153.0572026,2025-06-12 23:52:33.057,33.55578518585078,-2.0087351928710935,0.43574470214843747,9.651026892089844,8.114503816793894,-4.00763358778626,-0.25190839694656486,52.0189453125,39.8525390625,-53.0490234375,
1749747153.0711644,2025-06-12 23:52:33.071,32.54940545721389,-2.020706201171875,0.30885201416015623,9.528922607421874,8.16030534351145,-2.0610687022900764,-0.2366412213740458,54.5044921875,40.5673828125,-52.0189453125,
1749747153.0850358,2025-06-12 23:52:33.085,33.65163087429239,-1.8459294799804686,0.30885201416015623,9.490615380859374,7.9465648854961835,-3.8396946564885495,-0.33587786259541985,54.68203125,41.818359375,-53.907421875,
1749747153.0988927,2025-06-12 23:52:33.098,33.939167939617214,-2.0063409912109376,0.3064578125,9.5001921875,8.099236641221374,-3.7022900763358777,-0.2595419847328244,51.3087890625,40.9248046875,-54.0791015625,
1749747153.1128228,2025-06-12 23:52:33.112,33.41201665318837,-1.9752163696289062,0.4381389038085937,9.533711010742186,8.374045801526718,-3.7938931297709924,-0.48854961832061067,52.196484375,41.103515625,-54.250781249999996,
1749747153.1318755,2025-06-12 23:52:33.131,33.55578518585078,-2.0159177978515626,0.2825157958984375,9.514557397460937,8.396946564885496,-3.9236641221374047,-0.5190839694656488,52.7291015625,41.6396484375,-52.7056640625,
1749747153.1469877,2025-06-12 23:52:33.146,33.747476562734,-1.9991583862304687,0.28012159423828126,9.540893615722656,8.17557251908397,-3.9618320610687023,-0.44274809160305345,52.196484375,41.4609375,-51.847265625,
1749747153.1621897,2025-06-12 23:52:33.162,33.50786234162997,-1.8531120849609375,0.17477672119140625,9.5001921875,8.15267175572519,-4.0458015267175576,-0.4122137404580153,52.551562499999996,42.17578125,-52.190625,
1749747153.178657,2025-06-12 23:52:33.178,33.55578518585078,-2.0087351928710935,0.29448680419921874,9.627084875488281,8.404580152671755,-2.045801526717557,-0.1297709923664122,51.3087890625,41.9970703125,-52.3623046875,37.976633775153466
1749747153.196758,2025-06-12 23:52:33.196,33.65163087429239,-2.013523596191406,0.28730419921875,9.512163195800781,8.106870229007633,-3.7938931297709924,-0.40458015267175573,52.551562499999996,40.74609375,-51.50390625,
1749747153.2103903,2025-06-12 23:52:33.210,33.55578518585078,-2.0446482177734375,0.30885201416015623,9.512163195800781,8.251908396946565,-3.7938931297709924,-0.5419847328244275,50.9537109375,40.9248046875,-53.392382812499996,
1749747153.224513,2025-06-12 23:52:33.224,33.98709078383802,-2.039859814453125,0.3399766357421875,9.483432775878907,8.145038167938932,-4.145038167938932,-0.31297709923664124,51.663867187499996,42.3544921875,-52.3623046875,
1749747153.2381,2025-06-12 23:52:33.238,33.65163087429239,-1.9871873779296874,0.33039982910156246,9.504980590820312,8.13740458015267,-5.778625954198473,-0.4961832061068702,53.26171875,41.4609375,-52.533984374999996,
1749747153.251739,2025-06-12 23:52:33.251,33.41201665318837,-2.001552587890625,0.38786066894531246,9.495403784179686,8.32824427480916,-3.9770992366412212,-0.3053435114503817,53.26171875,42.533203125,-53.5640625,
1749747153.2655668,2025-06-12 23:52:33.265,33.41201665318837,-2.0302830078125,0.16280571289062498,9.473855969238281,8.381679389312977,-3.946564885496183,-0.5190839694656488,53.7943359375,41.6396484375,-52.0189453125,
1749747153.2812622,2025-06-12 23:52:33.281,33.50786234162997,-2.032677209472656,0.3232172241210937,9.533711010742186,8.244274809160306,-2.114503816793893,-0.33587786259541985,52.3740234375,40.9248046875,-53.392382812499996,
1749747153.295507,2025-06-12 23:52:33.295,33.41201665318837,-2.0063409912109376,0.3112462158203125,9.612719665527344,8.106870229007633,-4.061068702290076,-0.5801526717557252,53.7943359375,39.8525390625,-54.0791015625,
1749747153.3096676,2025-06-12 23:52:33.309,33.41201665318837,-1.9871873779296874,0.29927520751953124,9.516951599121093,8.16030534351145,-4.282442748091603,-0.44274809160305345,51.84140625,40.74609375,-52.533984374999996,
1749747153.3242216,2025-06-12 23:52:33.324,33.65163087429239,-1.9823989746093749,0.4525041137695312,9.543287817382812,8.282442748091603,-1.9923664122137406,-0.25190839694656486,53.0841796875,40.5673828125,-52.3623046875,
1749747153.3381777,2025-06-12 23:52:33.338,33.41201665318837,-1.8626888916015625,0.3495534423828125,9.53131680908203,8.267175572519085,-3.9923664122137406,-0.1450381679389313,51.84140625,40.388671875,-53.220703125,
1749747153.3522398,2025-06-12 23:52:33.352,33.55578518585078,-2.039859814453125,0.33039982910156246,9.648632690429688,8.335877862595419,-3.8702290076335877,-0.5114503816793893,52.3740234375,40.9248046875,-53.7357421875,
1749747153.3690877,2025-06-12 23:52:33.369,33.699553718513194,-2.133233679199219,0.4429273071289062,9.521740002441407,8.244274809160306,-5.862595419847328,-0.45038167938931295,53.439257812499996,40.9248046875,-52.3623046875,
1749747153.3832223,2025-06-12 23:52:33.383,33.41201665318837,-2.01112939453125,0.4477157104492187,9.536105212402344,8.145038167938932,-4.374045801526718,-0.26717557251908397,53.0841796875,40.9248046875,-53.0490234375,
1749747153.4031675,2025-06-12 23:52:33.403,33.65163087429239,-2.01112939453125,0.181959326171875,9.552864624023437,8.061068702290076,-4.083969465648855,-0.6717557251908397,51.486328125,40.03125,-53.907421875,
1749747153.4188163,2025-06-12 23:52:33.418,33.55578518585078,-2.138022082519531,0.17238251953125,9.53131680908203,8.374045801526718,-4.099236641221374,-0.5648854961832062,52.7291015625,41.6396484375,-53.0490234375,
1749747153.435543,2025-06-12 23:52:33.435,33.55578518585078,-2.0087351928710935,0.29927520751953124,9.545682019042967,8.351145038167939,-4.190839694656488,-0.6183206106870229,51.663867187499996,41.9970703125,-52.3623046875,
1749747153.4514258,2025-06-12 23:52:33.451,33.65163087429239,-2.01112939453125,0.33518823242187495,9.514557397460937,8.50381679389313,-4.244274809160306,-0.35877862595419846,52.3740234375,41.2822265625,-52.3623046875,
1749747153.4650085,2025-06-12 23:52:33.465,33.699553718513194,-2.020706201171875,0.3280056274414062,9.526528405761718,8.404580152671755,-4.122137404580153,-0.48091603053435117,53.439257812499996,40.9248046875,-52.3623046875,
1749747153.4785788,2025-06-12 23:52:33.478,33.98709078383802,-2.003946789550781,0.28969840087890625,9.49300958251953,8.13740458015267,-3.4656488549618323,-0.2900763358778626,52.551562499999996,41.818359375,-52.87734375,
1749747153.4952893,2025-06-12 23:52:33.495,33.65163087429239,-1.9991583862304687,0.296881005859375,9.466673364257812,8.221374045801527,-3.854961832061069,-0.37404580152671757,53.439257812499996,41.2822265625,-53.7357421875,
1749747153.5099995,2025-06-12 23:52:33.510,33.55578518585078,-2.0183119995117185,0.30885201416015623,9.516951599121093,8.16030534351145,-3.6946564885496183,-0.35877862595419846,53.616796875,41.103515625,-52.87734375,36.92834625388919
1749747153.5276756,2025-06-12 23:52:33.527,33.55578518585078,-2.0350714111328125,0.35194764404296874,9.545682019042967,8.297709923664122,-2.0,-0.6259541984732825,53.616796875,41.103515625,-52.533984374999996,
1749747153.541082,2025-06-12 23:52:33.541,33.55578518585078,-2.042254016113281,0.2561795776367187,9.459490759277344,8.435114503816793,-5.854961832061068,-0.3053435114503817,51.84140625,40.03125,-53.5640625,
1749747153.5538228,2025-06-12 23:52:33.553,33.65163087429239,-2.032677209472656,0.33039982910156246,9.514557397460937,8.320610687022901,-4.290076335877862,-0.3893129770992366,52.551562499999996,42.533203125,-54.250781249999996,
1749747153.566632,2025-06-12 23:52:33.566,33.55578518585078,-2.0661960327148434,0.16041151123046873,9.514557397460937,8.282442748091603,-3.8091603053435112,-0.45038167938931295,52.7291015625,41.6396484375,-50.9888671875,
1749747153.5792801,2025-06-12 23:52:33.579,33.84332225117561,-2.003946789550781,0.35194764404296874,9.356540087890625,8.374045801526718,-3.8396946564885495,-0.3893129770992366,54.68203125,41.103515625,-52.87734375,
1749747153.5920763,2025-06-12 23:52:33.592,33.41201665318837,-2.042254016113281,0.30406361083984373,9.509768994140625,8.404580152671755,-5.854961832061068,-0.15267175572519084,53.26171875,40.388671875,-52.533984374999996,
1749747153.60489,2025-06-12 23:52:33.604,33.699553718513194,-1.9967641845703124,0.29927520751953124,9.557653027343749,8.259541984732824,-3.763358778625954,-0.4732824427480916,,,,
1749747153.6150012,2025-06-12 23:52:33.615,33.50786234162997,-2.001552587890625,0.316034619140625,9.516951599121093,8.473282442748092,-4.0,-0.5877862595419847,53.439257812499996,41.2822265625,-53.7357421875,
1749747153.6278305,2025-06-12 23:52:33.627,33.41201665318837,-2.020706201171875,0.29927520751953124,9.423577734375,8.122137404580153,-3.946564885496183,-0.4122137404580153,52.906640625,42.17578125,-53.5640625,
1749747153.6405282,2025-06-12 23:52:33.640,33.41201665318837,-2.0278888061523435,0.296881005859375,9.504980590820312,8.076335877862595,-5.793893129770993,-0.4122137404580153,52.196484375,42.17578125,-54.250781249999996,
1749747153.653239,2025-06-12 23:52:33.653,33.36409380896756,-2.061407629394531,0.4572925170898437,9.5384994140625,8.206106870229007,-3.946564885496183,-0.4351145038167939,52.906640625,42.17578125,-53.5640625,
1749747153.666017,2025-06-12 23:52:33.666,33.747476562734,-2.001552587890625,0.29448680419921874,9.643844287109374,8.282442748091603,-4.312977099236641,-0.6793893129770993,52.906640625,38.958984375,-53.5640625,
1749747153.6790085,2025-06-12 23:52:33.679,33.55578518585078,-2.0087351928710935,0.3136404174804687,9.643844287109374,8.450381679389313,-3.9923664122137406,-0.26717557251908397,52.551562499999996,40.03125,-53.5640625,
1749747153.6939826,2025-06-12 23:52:33.693,33.747476562734,-2.013523596191406,0.28490999755859375,9.545682019042967,8.183206106870228,-3.954198473282443,-0.31297709923664124,54.1494140625,40.9248046875,-52.7056640625,
1749747153.7113357,2025-06-12 23:52:33.711,33.55578518585078,-2.0302830078125,0.3327940307617187,9.5001921875,8.129770992366412,-3.9083969465648853,-0.33587786259541985,52.0189453125,40.9248046875,-52.3623046875,
1749747153.7385142,2025-06-12 23:52:33.738,33.65163087429239,-1.85790048828125,0.15562310791015624,9.572018237304688,8.49618320610687,-4.068702290076335,-0.29770992366412213,52.906640625,41.103515625,-52.87734375,
1749747153.7549999,2025-06-12 23:52:33.755,33.65163087429239,-2.0302830078125,0.3280056274414062,9.495403784179686,8.259541984732824,-4.1603053435114505,-0.12213740458015267,52.3740234375,42.3544921875,-52.0189453125,
1749747153.769116,2025-06-12 23:52:33.769,33.41201665318837,-2.032677209472656,0.29448680419921874,9.552864624023437,8.366412213740459,-4.175572519083969,-0.16793893129770993,52.0189453125,41.2822265625,-53.392382812499996,
1749747153.7838867,2025-06-12 23:52:33.783,33.36409380896756,-1.9776105712890624,0.32561142578124996,9.502586389160156,8.236641221374045,-3.83206106870229,-0.7099236641221374,53.439257812499996,41.2822265625,-53.0490234375,
1749747153.7987945,2025-06-12 23:52:33.798,33.31617096474676,-2.0278888061523435,0.2825157958984375,9.457096557617186,8.290076335877863,-4.0,-0.37404580152671757,53.439257812499996,40.9248046875,-51.675585937499996,
1749747153.8133018,2025-06-12 23:52:33.813,33.55578518585078,-2.0374656127929685,0.32561142578124996,9.622296472167967,8.16793893129771,-4.259541984732825,-0.42748091603053434,52.0189453125,41.9970703125,-53.392382812499996,
1749747153.829593,2025-06-12 23:52:33.829,33.699553718513194,-2.0159177978515626,0.4261678955078125,9.514557397460937,8.251908396946565,-2.015267175572519,-0.1450381679389313,52.7291015625,40.5673828125,-52.0189453125,39.36711410970326
1749747153.8649945,2025-06-12 23:52:33.864,33.747476562734,-2.0183119995117185,0.28012159423828126,9.651026892089844,8.534351145038167,-5.854961832061068,-0.4580152671755725,51.84140625,41.103515625,-54.594140625,
1749747153.8777072,2025-06-12 23:52:33.877,33.699553718513194,-2.0254946044921875,0.3064578125,9.521740002441407,8.396946564885496,-4.022900763358779,-0.44274809160305345,51.486328125,40.388671875,-54.250781249999996,
1749747153.8917122,2025-06-12 23:52:33.891,33.50786234162997,-2.0159177978515626,0.34715924072265625,9.555258825683593,8.34351145038168,-3.8702290076335877,-0.5343511450381679,53.0841796875,41.2822265625,-53.392382812499996,
1749747153.9044452,2025-06-12 23:52:33.904,33.939167939617214,-2.0374656127929685,0.2825157958984375,9.528922607421874,8.335877862595419,-4.00763358778626,-0.1450381679389313,52.3740234375,42.3544921875,-53.7357421875,
1749747153.917543,2025-06-12 23:52:33.917,33.699553718513194,-1.9608511596679685,0.3232172241210937,9.502586389160156,8.381679389312977,-5.862595419847328,-0.42748091603053434,53.26171875,41.103515625,-51.847265625,
1749747153.9311981,2025-06-12 23:52:33.931,33.65163087429239,-2.0087351928710935,0.3495534423828125,9.502586389160156,8.053435114503817,-4.114503816793893,-0.45038167938931295,52.551562499999996,41.818359375,-53.220703125,
1749747153.9473963,2025-06-12 23:52:33.947,33.50786234162997,-1.89620771484375,0.32082302246093747,9.6151138671875,8.030534351145038,-3.8702290076335877,-0.22137404580152673,53.439257812499996,41.6396484375,-52.3623046875,
1749747153.9615974,2025-06-12 23:52:33.961,33.747476562734,-2.001552587890625,0.28969840087890625,9.560047229003906,8.068702290076336,-5.8396946564885495,-0.3969465648854962,52.906640625,42.533203125,-52.533984374999996,
1749747153.9750023,2025-06-12 23:52:33.975,33.31617096474676,-2.01112939453125,0.33758243408203126,9.512163195800781,8.274809160305344,-3.877862595419847,-0.46564885496183206,51.84140625,40.74609375,-51.160546875,
1749747153.9887433,2025-06-12 23:52:33.988,33.699553718513194,-2.0087351928710935,0.34715924072265625,9.473855969238281,8.17557251908397,-4.068702290076335,-0.2595419847328244,53.0841796875,41.9970703125,-51.3322265625,
1749747154.0026138,2025-06-12 23:52:34.002,33.41201665318837,-1.9656395629882812,0.3184288208007812,9.483432775878907,8.320610687022901,-3.877862595419847,-0.3816793893129771,53.0841796875,40.9248046875,-52.7056640625,37.645921249192035
1749747154.0197651,2025-06-12 23:52:34.019,33.699553718513194,-2.020706201171875,0.3136404174804687,9.483432775878907,8.381679389312977,-4.038167938931298,-0.2824427480916031,51.486328125,39.673828125,-52.87734375,
1749747154.0332208,2025-06-12 23:52:34.033,33.699553718513194,-2.0183119995117185,0.3064578125,9.612719665527344,8.198473282442748,-4.32824427480916,-0.48091603053435117,52.906640625,41.4609375,-52.87734375,38.0844594301796
1749747154.0499673,2025-06-12 23:52:34.049,33.41201665318837,-2.013523596191406,0.3184288208007812,9.562441430664062,8.419847328244275,-4.106870229007634,-0.2824427480916031,51.486328125,41.4609375,-52.533984374999996,37.26257805144539
1749747154.0702093,2025-06-12 23:52:34.070,33.55578518585078,-2.0254946044921875,0.316034619140625,9.464279162597656,8.038167938931299,-4.267175572519084,-0.6030534351145038,52.906640625,41.4609375,-52.533984374999996,
1749747154.083964,2025-06-12 23:52:34.083,33.699553718513194,-2.0278888061523435,0.3112462158203125,9.490615380859374,8.206106870229007,-5.801526717557252,-0.40458015267175573,52.196484375,40.74609375,-52.87734375,
1749747154.0978193,2025-06-12 23:52:34.097,33.84332225117561,-2.0087351928710935,0.3280056274414062,9.485826977539062,8.282442748091603,-3.8473282442748094,-0.45038167938931295,52.0189453125,40.5673828125,-52.0189453125,
1749747154.1114998,2025-06-12 23:52:34.111,33.699553718513194,-2.0159177978515626,0.29927520751953124,9.622296472167967,8.229007633587786,-5.809160305343512,-0.2366412213740458,51.663867187499996,41.2822265625,-52.3623046875,
1749747154.1252112,2025-06-12 23:52:34.125,33.747476562734,-2.0087351928710935,0.316034619140625,9.488221179199218,8.259541984732824,-3.8931297709923665,-0.44274809160305345,53.7943359375,40.5673828125,-52.7056640625,
1749747154.1400917,2025-06-12 23:52:34.140,33.699553718513194,-2.003946789550781,0.17477672119140625,9.545682019042967,8.19083969465649,-3.763358778625954,-0.33587786259541985,53.0841796875,41.2822265625,-53.7357421875,
1749747154.1676376,2025-06-12 23:52:34.167,33.41201665318837,-2.020706201171875,0.3280056274414062,9.507374792480467,8.022900763358779,-4.099236641221374,-0.3893129770992366,53.971875,41.103515625,-53.907421875,
1749747154.183673,2025-06-12 23:52:34.183,33.84332225117561,-2.0254946044921875,0.3136404174804687,9.449913952636718,8.16030534351145,-3.9236641221374047,-0.2824427480916031,53.7943359375,41.2822265625,-52.7056640625,
1749747154.1977959,2025-06-12 23:52:34.197,33.84332225117561,-1.8411410766601561,0.45010991210937495,9.481038574218749,8.48091603053435,-5.8320610687022905,-0.31297709923664124,,,,
1749747154.2079365,2025-06-12 23:52:34.207,33.891245095396414,-2.042254016113281,0.296881005859375,9.540893615722656,8.358778625954198,-2.0610687022900764,-0.48854961832061067,53.0841796875,40.2099609375,-52.7056640625,
1749747154.2246857,2025-06-12 23:52:34.224,33.891245095396414,-2.0374656127929685,0.3327940307617187,9.471461767578125,8.312977099236642,-2.015267175572519,-0.40458015267175573,53.26171875,40.74609375,-53.5640625,
1749747154.2381403,2025-06-12 23:52:34.238,33.699553718513194,-2.0159177978515626,0.28969840087890625,9.631873278808593,8.442748091603054,-4.061068702290076,-0.33587786259541985,52.196484375,39.31640625,-52.190625,
1749747154.255902,2025-06-12 23:52:34.255,33.55578518585078,-2.0159177978515626,0.3232172241210937,9.550470422363281,8.236641221374045,-4.030534351145038,-0.22900763358778625,53.616796875,42.890625,-53.907421875,
1749747154.26904,2025-06-12 23:52:34.269,33.747476562734,-2.020706201171875,0.3064578125,9.562441430664062,8.213740458015268,-4.290076335877862,-0.1984732824427481,52.196484375,40.388671875,-54.594140625,
1749747154.28376,2025-06-12 23:52:34.283,33.55578518585078,-1.9752163696289062,0.29448680419921874,9.495403784179686,8.13740458015267,-4.137404580152672,-0.5343511450381679,52.551562499999996,40.03125,-54.594140625,
1749747154.2970033,2025-06-12 23:52:34.297,33.65163087429239,-1.9488801513671874,0.35673604736328124,9.392453112792968,8.083969465648854,-4.038167938931298,-0.35877862595419846,52.3740234375,41.9970703125,-52.3623046875,
1749747154.3159943,2025-06-12 23:52:34.315,33.747476562734,-2.032677209472656,0.30406361083984373,9.545682019042967,8.229007633587786,-1.984732824427481,-0.6564885496183206,52.7291015625,41.6396484375,-52.7056640625,
1749747154.3338525,2025-06-12 23:52:34.333,33.939167939617214,-2.0087351928710935,0.2657563842773437,9.586383447265625,8.442748091603054,-4.061068702290076,-0.4198473282442748,53.971875,41.4609375,-54.250781249999996,
1749747154.3495781,2025-06-12 23:52:34.349,33.747476562734,-2.04943662109375,0.33039982910156246,9.586383447265625,8.198473282442748,-4.106870229007634,-0.46564885496183206,52.551562499999996,40.388671875,-53.5640625,
1749747154.3644466,2025-06-12 23:52:34.364,33.891245095396414,-2.0470424194335934,0.33518823242187495,9.533711010742186,8.114503816793894,-4.015267175572519,-0.366412213740458,53.7943359375,40.5673828125,-51.675585937499996,
1749747154.3786163,2025-06-12 23:52:34.378,33.891245095396414,-2.001552587890625,0.4572925170898437,9.636661682128906,8.259541984732824,-3.984732824427481,-0.44274809160305345,52.3740234375,39.8525390625,-52.0189453125,
1749747154.3921585,2025-06-12 23:52:34.392,33.55578518585078,-2.0374656127929685,0.3112462158203125,9.550470422363281,8.221374045801527,-4.206106870229007,-0.32061068702290074,52.196484375,42.533203125,-51.847265625,38.70072876445502
1749747154.4129713,2025-06-12 23:52:34.412,33.699553718513194,-1.9919757812499999,0.30885201416015623,9.519345800781249,8.297709923664122,-3.969465648854962,-0.4732824427480916,54.326953124999996,40.74609375,-54.250781249999996,
1749747154.4271472,2025-06-12 23:52:34.427,33.939167939617214,-2.0350714111328125,0.4525041137695312,9.502586389160156,8.206106870229007,-5.786259541984733,-0.2900763358778626,53.26171875,41.4609375,-53.907421875,
1749747154.4411619,2025-06-12 23:52:34.441,33.939167939617214,-2.0183119995117185,0.44532150878906246,9.368511096191405,7.969465648854962,-5.786259541984733,-0.7175572519083969,52.3740234375,41.6396484375,-54.4224609375,
1749747154.4558084,2025-06-12 23:52:34.455,33.84332225117561,-2.01112939453125,0.4525041137695312,9.495403784179686,8.297709923664122,-4.038167938931298,-0.2595419847328244,52.7291015625,39.8525390625,-53.0490234375,
1749747154.4722416,2025-06-12 23:52:34.472,33.55578518585078,-2.039859814453125,0.3327940307617187,9.512163195800781,8.473282442748092,-4.114503816793893,-0.40458015267175573,51.663867187499996,40.2099609375,-52.7056640625,
1749747154.4860954,2025-06-12 23:52:34.486,33.55578518585078,-2.0063409912109376,0.33758243408203126,9.497797985839844,8.648854961832061,-4.366412213740458,-0.2748091603053435,51.13125,41.103515625,-53.220703125,
1749747154.507753,2025-06-12 23:52:34.507,33.747476562734,-2.0183119995117185,0.3064578125,9.502586389160156,8.312977099236642,-2.053435114503817,-0.32061068702290074,52.196484375,40.388671875,-52.87734375,
1749747154.5212634,2025-06-12 23:52:34.521,34.46631922604607,-1.879448303222656,0.30885201416015623,9.481038574218749,8.19083969465649,-3.786259541984733,-0.5343511450381679,51.13125,41.818359375,-53.220703125,
1749747154.5342507,2025-06-12 23:52:34.534,33.747476562734,-2.0183119995117185,0.3327940307617187,9.528922607421874,8.183206106870228,-2.053435114503817,-0.3511450381679389,52.0189453125,41.6396484375,-52.7056640625,
1749747154.5471802,2025-06-12 23:52:34.547,33.84332225117561,-2.0087351928710935,0.32082302246093747,9.560047229003906,8.511450381679388,-3.8702290076335877,-0.5877862595419847,52.906640625,41.818359375,-54.250781249999996,
1749747154.5597382,2025-06-12 23:52:34.559,33.747476562734,-2.0470424194335934,0.3064578125,9.502586389160156,8.083969465648854,-4.091603053435114,-0.2900763358778626,53.26171875,42.17578125,-52.533984374999996,
1749747154.573091,2025-06-12 23:52:34.573,33.891245095396414,-2.142810485839844,0.316034619140625,9.512163195800781,8.114503816793894,-3.900763358778626,-0.4122137404580153,52.551562499999996,41.103515625,-52.190625,
1749747154.5864248,2025-06-12 23:52:34.586,33.55578518585078,-2.0350714111328125,0.3232172241210937,9.488221179199218,8.396946564885496,-4.0534351145038165,-0.35877862595419846,53.616796875,41.818359375,-52.533984374999996,
1749747154.6025157,2025-06-12 23:52:34.602,33.891245095396414,-2.0302830078125,0.3495534423828125,9.504980590820312,8.16030534351145,-3.6946564885496183,-0.3053435114503817,53.616796875,42.533203125,-53.5640625,
1749747154.620531,2025-06-12 23:52:34.620,33.699553718513194,-2.013523596191406,0.30885201416015623,9.514557397460937,8.305343511450381,-5.8396946564885495,-0.2748091603053435,53.26171875,40.74609375,-51.50390625,
1749747154.6341634,2025-06-12 23:52:34.634,33.699553718513194,-2.0302830078125,0.17477672119140625,9.627084875488281,8.053435114503817,-4.152671755725191,-0.7404580152671756,55.214648437499996,42.7119140625,-53.7357421875,
1749747154.6498559,2025-06-12 23:52:34.649,33.699553718513194,-1.9895815795898437,0.30406361083984373,9.550470422363281,8.358778625954198,-3.66412213740458,-0.7175572519083969,52.551562499999996,40.74609375,-54.250781249999996,
1749747154.6651304,2025-06-12 23:52:34.665,33.84332225117561,-1.9919757812499999,0.316034619140625,9.524134204101562,8.366412213740459,-3.6030534351145036,-0.31297709923664124,53.971875,41.4609375,-54.594140625,
1749747154.68182,2025-06-12 23:52:34.681,33.55578518585078,-2.032677209472656,0.4429273071289062,9.639055883789062,8.435114503816793,-3.9770992366412212,-0.20610687022900764,52.196484375,43.60546875,-53.907421875,
1749747154.6966228,2025-06-12 23:52:34.696,33.699553718513194,-2.0278888061523435,0.16280571289062498,9.373299499511718,8.335877862595419,-3.900763358778626,-0.3969465648854962,52.7291015625,40.5673828125,-53.7357421875,
1749747154.7124648,2025-06-12 23:52:34.712,33.65163087429239,-1.9919757812499999,0.296881005859375,9.440337145996093,8.412213740458014,-3.801526717557252,-0.4198473282442748,53.0841796875,41.2822265625,-53.0490234375,
1749747154.7273695,2025-06-12 23:52:34.727,33.747476562734,-2.001552587890625,0.3136404174804687,9.521740002441407,8.320610687022901,-3.9160305343511452,-0.31297709923664124,52.7291015625,41.6396484375,-53.0490234375,
1749747154.7473445,2025-06-12 23:52:34.747,33.699553718513194,-2.0374656127929685,0.3136404174804687,9.53131680908203,8.450381679389313,-5.854961832061068,-0.48854961832061067,54.68203125,40.388671875,-53.5640625,
1749747154.7649887,2025-06-12 23:52:34.764,33.84332225117561,-2.0254946044921875,0.3112462158203125,9.469067565917967,8.396946564885496,-3.816793893129771,-0.5801526717557252,52.196484375,41.103515625,-51.160546875,
1749747154.7814472,2025-06-12 23:52:34.781,33.84332225117561,-2.003946789550781,0.354341845703125,9.586383447265625,8.312977099236642,-3.7786259541984735,-0.44274809160305345,52.551562499999996,40.388671875,-52.87734375,
1749747154.7954056,2025-06-12 23:52:34.795,33.699553718513194,-2.0063409912109376,0.316034619140625,9.574412438964844,8.51908396946565,-3.885496183206107,-0.21374045801526717,52.0189453125,41.9970703125,-53.0490234375,
1749747154.8109787,2025-06-12 23:52:34.810,33.939167939617214,-1.8722656982421875,0.296881005859375,9.471461767578125,8.412213740458014,-3.763358778625954,-0.5038167938931297,53.0841796875,40.9248046875,-54.7658203125,
1749747154.8254633,2025-06-12 23:52:34.825,33.55578518585078,-2.0254946044921875,0.4477157104492187,9.639055883789062,8.244274809160306,-3.9236641221374047,-0.32061068702290074,52.7291015625,40.9248046875,-53.392382812499996,
1749747154.8395674,2025-06-12 23:52:34.839,33.699553718513194,-2.0183119995117185,0.33039982910156246,9.514557397460937,8.312977099236642,-4.175572519083969,-0.022900763358778626,53.7943359375,41.2822265625,-52.7056640625,
1749747154.8563607,2025-06-12 23:52:34.856,33.747476562734,-1.9967641845703124,0.4381389038085937,9.507374792480467,8.442748091603054,-3.633587786259542,-0.5343511450381679,53.26171875,40.388671875,-53.220703125,
1749747154.8704433,2025-06-12 23:52:34.870,33.55578518585078,-2.013523596191406,0.4477157104492187,9.605537060546874,8.389312977099237,-3.572519083969466,-0.4961832061068702,51.84140625,41.818359375,-52.87734375,
1749747154.8847613,2025-06-12 23:52:34.884,33.699553718513194,-2.0183119995117185,0.29448680419921874,9.356540087890625,8.419847328244275,-3.9923664122137406,-0.46564885496183206,52.906640625,40.74609375,-51.50390625,
1749747154.899268,2025-06-12 23:52:34.899,33.55578518585078,-1.9800047729492187,0.44053310546874996,9.488221179199218,8.366412213740459,-2.015267175572519,-0.5267175572519084,52.0189453125,41.2822265625,-53.0490234375,
1749747154.9139256,2025-06-12 23:52:34.913,33.699553718513194,-2.0542250244140625,0.44532150878906246,9.507374792480467,8.320610687022901,-4.022900763358779,-0.48091603053435117,51.663867187499996,40.5673828125,-52.7056640625,
1749747154.9290867,2025-06-12 23:52:34.929,33.699553718513194,-2.020706201171875,0.2920926025390625,9.540893615722656,8.15267175572519,-4.00763358778626,-0.10687022900763359,51.3087890625,41.9970703125,-53.392382812499996,
1749747154.9438703,2025-06-12 23:52:34.943,33.65163087429239,-1.9536685546875,0.354341845703125,9.545682019042967,8.045801526717558,-5.8396946564885495,-0.10687022900763359,53.0841796875,41.6396484375,-54.7658203125,
1749747154.9615111,2025-06-12 23:52:34.961,33.747476562734,-1.9919757812499999,0.32561142578124996,9.533711010742186,8.259541984732824,-4.145038167938932,-0.32061068702290074,51.486328125,41.818359375,-53.5640625,
1749747154.9756572,2025-06-12 23:52:34.975,33.891245095396414,-2.003946789550781,0.3112462158203125,9.370905297851563,8.427480916030534,-3.786259541984733,-0.4351145038167939,52.3740234375,40.2099609375,-54.4224609375,
1749747154.9895186,2025-06-12 23:52:34.989,34.322550693383654,-2.023100402832031,0.34715924072265625,9.485826977539062,8.259541984732824,-4.0458015267175576,-0.4198473282442748,53.26171875,41.103515625,-53.220703125,
1749747155.0048153,2025-06-12 23:52:35.004,34.46631922604607,-2.0374656127929685,0.33039982910156246,9.524134204101562,8.061068702290076,-3.885496183206107,-0.4122137404580153,52.196484375,41.818359375,-54.250781249999996,
1749747155.0185409,2025-06-12 23:52:35.018,33.747476562734,-2.001552587890625,0.26336218261718747,9.552864624023437,8.610687022900763,-3.9923664122137406,-0.3816793893129771,51.663867187499996,40.9248046875,-52.0189453125,
1749747155.03216,2025-06-12 23:52:35.032,33.747476562734,-2.0254946044921875,0.4572925170898437,9.507374792480467,8.213740458015268,-4.114503816793893,-0.2900763358778626,53.26171875,41.103515625,-53.220703125,
1749747155.0456328,2025-06-12 23:52:35.045,33.891245095396414,-2.001552587890625,0.33758243408203126,9.399635717773437,8.244274809160306,-2.0610687022900764,-0.3893129770992366,52.3740234375,41.6396484375,-53.0490234375,
1749747155.0605476,2025-06-12 23:52:35.060,33.65163087429239,-2.0278888061523435,0.3327940307617187,9.545682019042967,8.320610687022901,-3.9923664122137406,-0.3511450381679389,51.663867187499996,40.5673828125,-54.0791015625,
1749747155.089602,2025-06-12 23:52:35.089,33.699553718513194,-1.9967641845703124,0.3184288208007812,9.4618849609375,8.030534351145038,-3.9923664122137406,-0.4198473282442748,52.196484375,40.74609375,-54.250781249999996,
1749747155.1066089,2025-06-12 23:52:35.106,33.41201665318837,-2.003946789550781,0.3136404174804687,9.533711010742186,8.32824427480916,-3.633587786259542,-0.40458015267175573,53.439257812499996,40.9248046875,-52.3623046875,
1749747155.1238978,2025-06-12 23:52:35.123,33.55578518585078,-2.0350714111328125,0.30406361083984373,9.49300958251953,8.229007633587786,-2.0610687022900764,-0.7022900763358778,52.7291015625,39.8525390625,-52.7056640625,
1749747155.138194,2025-06-12 23:52:35.138,33.65163087429239,-2.020706201171875,0.16041151123046873,9.45470235595703,8.534351145038167,-4.038167938931298,-0.4961832061068702,52.3740234375,40.5673828125,-52.0189453125,
1749747155.153159,2025-06-12 23:52:35.153,33.699553718513194,-2.0374656127929685,0.18435352783203124,9.512163195800781,8.267175572519085,-4.129770992366412,-0.1450381679389313,52.0189453125,40.9248046875,-53.392382812499996,
1749747155.1710362,2025-06-12 23:52:35.171,33.65163087429239,-2.003946789550781,0.15562310791015624,9.543287817382812,8.076335877862595,-5.770992366412214,-0.29770992366412213,53.0841796875,41.2822265625,-53.0490234375,
1749747155.1879153,2025-06-12 23:52:35.187,33.939167939617214,-2.020706201171875,0.33039982910156246,9.543287817382812,8.129770992366412,-3.9923664122137406,-0.2366412213740458,53.439257812499996,41.9970703125,-53.0490234375,
1749747155.2010546,2025-06-12 23:52:35.201,33.26824812052595,-2.013523596191406,0.4477157104492187,9.572018237304688,8.32824427480916,-4.00763358778626,-0.22900763358778625,51.84140625,41.818359375,-53.907421875,
1749747155.2145214,2025-06-12 23:52:35.214,34.46631922604607,-2.1452046874999997,0.3064578125,9.457096557617186,8.274809160305344,-5.793893129770993,-0.37404580152671757,51.3087890625,39.8525390625,-53.392382812499996,
1749747155.2281053,2025-06-12 23:52:35.228,34.514242070266874,-2.0278888061523435,0.45489831542968745,9.634267480468749,8.290076335877863,-4.091603053435114,-0.3816793893129771,52.0189453125,41.6396484375,-53.392382812499996,
1749747155.2410386,2025-06-12 23:52:35.241,33.699553718513194,-2.1212626708984375,0.17238251953125,9.5384994140625,8.259541984732824,-3.66412213740458,-0.3511450381679389,53.0841796875,40.2099609375,-52.7056640625,
1749747155.2568526,2025-06-12 23:52:35.256,33.699553718513194,-1.9991583862304687,0.3184288208007812,9.504980590820312,8.129770992366412,-4.106870229007634,-0.22900763358778625,53.0841796875,40.2099609375,-53.0490234375,
1749747155.2706442,2025-06-12 23:52:35.270,33.699553718513194,-2.0254946044921875,0.26815058593749996,9.560047229003906,8.450381679389313,-4.083969465648855,-0.31297709923664124,53.0841796875,40.5673828125,-52.7056640625,
1749747155.288259,2025-06-12 23:52:35.288,33.747476562734,-2.0829554443359375,0.30885201416015623,9.524134204101562,8.13740458015267,-4.0458015267175576,-0.48854961832061067,53.971875,41.103515625,-53.220703125,
1749747155.3025324,2025-06-12 23:52:35.302,33.747476562734,-1.8842367065429686,0.17477672119140625,9.53131680908203,8.099236641221374,-3.984732824427481,-0.2748091603053435,52.196484375,40.74609375,-53.5640625,
1749747155.3203993,2025-06-12 23:52:35.320,33.55578518585078,-1.9919757812499999,0.3016694091796875,9.452308154296874,8.48091603053435,-4.0458015267175576,-0.007633587786259542,52.7291015625,41.2822265625,-52.0189453125,
1749747155.3333504,2025-06-12 23:52:35.333,33.891245095396414,-2.01112939453125,0.16519991455078123,9.507374792480467,8.389312977099237,-3.9160305343511452,-0.2595419847328244,53.0841796875,39.8525390625,-54.0791015625,
1749747155.3493142,2025-06-12 23:52:35.349,33.65163087429239,-2.0159177978515626,0.3064578125,9.521740002441407,8.389312977099237,-4.251908396946565,-0.3816793893129771,53.616796875,40.388671875,-53.220703125,
1749747155.3672962,2025-06-12 23:52:35.367,33.747476562734,-2.0254946044921875,0.32082302246093747,9.540893615722656,8.16030534351145,-3.7022900763358777,-0.32061068702290074,53.971875,42.533203125,-54.250781249999996,
1749747155.3812594,2025-06-12 23:52:35.381,33.699553718513194,-2.0350714111328125,0.32082302246093747,9.368511096191405,8.099236641221374,-3.900763358778626,-0.3893129770992366,53.971875,41.103515625,-53.907421875,
1749747155.3986268,2025-06-12 23:52:35.398,33.699553718513194,-2.0374656127929685,0.26815058593749996,9.550470422363281,8.267175572519085,-4.221374045801527,-0.45038167938931295,52.196484375,40.03125,-54.594140625,
1749747155.417805,2025-06-12 23:52:35.417,33.939167939617214,-2.0183119995117185,0.3112462158203125,9.516951599121093,8.297709923664122,-3.816793893129771,-0.2900763358778626,52.0189453125,40.2099609375,-53.0490234375,
1749747155.431311,2025-06-12 23:52:35.431,33.891245095396414,-2.0566192260742184,0.3112462158203125,9.509768994140625,8.221374045801527,-4.251908396946565,-0.45038167938931295,54.326953124999996,40.388671875,-53.5640625,
1749747155.4444032,2025-06-12 23:52:35.444,33.26824812052595,-2.128445275878906,0.277727392578125,9.524134204101562,8.34351145038168,-4.076335877862595,-0.1984732824427481,51.3087890625,40.2099609375,-52.7056640625,
1749747155.4573548,2025-06-12 23:52:35.457,33.891245095396414,-1.9943699829101562,0.4333505004882812,9.540893615722656,8.381679389312977,-5.854961832061068,-0.29770992366412213,52.196484375,41.103515625,-53.220703125,
1749747155.4703321,2025-06-12 23:52:35.470,33.891245095396414,-2.0278888061523435,0.2825157958984375,9.5001921875,8.381679389312977,-4.00763358778626,-0.24427480916030533,51.3087890625,40.5673828125,-53.392382812499996,
1749747155.4833813,2025-06-12 23:52:35.483,33.699553718513194,-2.0159177978515626,0.32561142578124996,9.540893615722656,8.404580152671755,-3.8702290076335877,-0.16793893129770993,,,,37.29840458321541
1749747155.4962714,2025-06-12 23:52:35.496,33.699553718513194,-1.9847931762695312,0.33518823242187495,9.512163195800781,8.404580152671755,-3.9236641221374047,-0.13740458015267176,52.0189453125,40.9248046875,-52.3623046875,
1749747155.5093186,2025-06-12 23:52:35.509,33.939167939617214,-1.9919757812499999,0.2825157958984375,9.533711010742186,8.358778625954198,-4.068702290076335,-0.5038167938931297,52.551562499999996,41.818359375,-52.190625,
1749747155.524687,2025-06-12 23:52:35.524,33.891245095396414,-2.042254016113281,0.316034619140625,9.526528405761718,8.091603053435115,-2.0610687022900764,-0.13740458015267176,52.196484375,39.673828125,-52.87734375,
1749747155.5385733,2025-06-12 23:52:35.538,34.46631922604607,-1.9728221679687499,0.2920926025390625,9.576806640625,8.442748091603054,-4.00763358778626,-0.061068702290076333,53.26171875,40.74609375,-52.533984374999996,
1749747155.5541327,2025-06-12 23:52:35.554,33.84332225117561,-2.0446482177734375,0.3016694091796875,9.639055883789062,8.351145038167939,-3.7786259541984735,-0.5801526717557252,52.7291015625,40.9248046875,-52.3623046875,
1749747155.566929,2025-06-12 23:52:35.566,33.84332225117561,-2.0159177978515626,0.33518823242187495,9.545682019042967,8.335877862595419,-4.129770992366412,-0.5343511450381679,53.971875,42.890625,-53.5640625,
1749747155.5796869,2025-06-12 23:52:35.579,33.699553718513194,-1.9656395629882812,0.16759411621093748,9.409212524414063,8.34351145038168,-3.8244274809160306,-0.4351145038167939,51.663867187499996,41.2822265625,-53.392382812499996,
1749747155.5922844,2025-06-12 23:52:35.592,33.747476562734,-2.023100402832031,0.3064578125,9.536105212402344,8.419847328244275,-4.114503816793893,-0.2366412213740458,52.7291015625,40.9248046875,-51.675585937499996,
1749747155.6047118,2025-06-12 23:52:35.604,33.891245095396414,-2.039859814453125,0.34237083740234375,9.521740002441407,8.32824427480916,-4.00763358778626,-0.3969465648854962,52.551562499999996,41.818359375,-53.220703125,
1749747155.6171749,2025-06-12 23:52:35.617,33.26824812052595,-2.0087351928710935,0.30885201416015623,9.5384994140625,8.251908396946565,-4.076335877862595,-0.2595419847328244,53.0841796875,41.6396484375,-53.7357421875,
1749747155.6302948,2025-06-12 23:52:35.630,33.747476562734,-2.0159177978515626,0.29448680419921874,9.368511096191405,8.465648854961833,-3.83206106870229,-0.15267175572519084,53.26171875,40.74609375,-52.190625,
1749747155.6428134,2025-06-12 23:52:35.642,33.747476562734,-2.032677209472656,0.3136404174804687,9.543287817382812,8.351145038167939,-4.076335877862595,-0.2900763358778626,52.7291015625,41.9970703125,-53.0490234375,
1749747155.6551569,2025-06-12 23:52:35.655,33.891245095396414,-2.013523596191406,0.33039982910156246,9.576806640625,7.9541984732824424,-4.068702290076335,-0.5038167938931297,51.84140625,40.74609375,-52.533984374999996,
1749747155.6673968,2025-06-12 23:52:35.667,34.514242070266874,-2.0350714111328125,0.3232172241210937,9.37808790283203,8.267175572519085,-4.190839694656488,-0.22137404580152673,53.0841796875,42.3544921875,-52.7056640625,
1749747155.6797745,2025-06-12 23:52:35.679,33.699553718513194,-1.9991583862304687,0.354341845703125,9.524134204101562,8.183206106870228,-4.198473282442748,-0.31297709923664124,51.13125,42.533203125,-53.220703125,
1749747155.6922758,2025-06-12 23:52:35.692,33.891245095396414,-2.039859814453125,0.34237083740234375,9.481038574218749,8.13740458015267,-3.732824427480916,-0.48091603053435117,53.0841796875,40.5673828125,-51.675585937499996,
1749747155.705066,2025-06-12 23:52:35.705,33.747476562734,-2.0350714111328125,0.3184288208007812,9.358934289550781,8.358778625954198,-3.9770992366412212,-0.3816793893129771,52.7291015625,40.9248046875,-55.109179687499996,
1749747155.7190814,2025-06-12 23:52:35.719,33.31617096474676,-1.8818425048828125,0.33039982910156246,9.502586389160156,8.427480916030534,-4.0534351145038165,-0.549618320610687,52.551562499999996,41.103515625,-53.220703125,
1749747155.7373126,2025-06-12 23:52:35.737,33.891245095396414,-2.0159177978515626,0.3112462158203125,9.483432775878907,8.16793893129771,-5.854961832061068,-0.4961832061068702,51.84140625,41.818359375,-51.847265625,
1749747155.7516851,2025-06-12 23:52:35.751,33.891245095396414,-2.0063409912109376,0.34237083740234375,9.572018237304688,8.404580152671755,-2.0,-0.16793893129770993,50.9537109375,39.4951171875,-52.3623046875,
1749747155.764578,2025-06-12 23:52:35.764,33.939167939617214,-2.032677209472656,0.3327940307617187,9.526528405761718,8.335877862595419,-5.8320610687022905,-0.2595419847328244,,,,37.78837400315608
1749747155.7781098,2025-06-12 23:52:35.778,33.699553718513194,-2.0566192260742184,0.3112462158203125,9.425971936035156,8.038167938931299,-3.9923664122137406,-0.2900763358778626,53.26171875,40.03125,-51.50390625,
1749747155.7944238,2025-06-12 23:52:35.794,33.939167939617214,-2.001552587890625,0.3064578125,9.49300958251953,8.251908396946565,-3.954198473282443,-0.5190839694656488,,,,
1749747155.804522,2025-06-12 23:52:35.804,34.65801060292928,-2.0350714111328125,0.29927520751953124,9.552864624023437,8.381679389312977,-4.061068702290076,-0.3511450381679389,52.551562499999996,39.673828125,-52.87734375,
1749747155.8179586,2025-06-12 23:52:35.817,33.939167939617214,-2.0302830078125,0.3327940307617187,9.552864624023437,8.267175572519085,-4.198473282442748,-0.1984732824427481,51.486328125,41.4609375,-54.9375,
1749747155.8317273,2025-06-12 23:52:35.831,33.84332225117561,-2.0470424194335934,0.3327940307617187,9.507374792480467,8.412213740458014,-4.1603053435114505,-0.16793893129770993,54.5044921875,41.9970703125,-53.7357421875,
1749747155.8452053,2025-06-12 23:52:35.845,34.46631922604607,-2.042254016113281,0.3064578125,9.445125549316407,8.305343511450381,-3.7480916030534353,-0.3969465648854962,52.3740234375,41.9970703125,-53.7357421875,
1749747155.860178,2025-06-12 23:52:35.860,33.84332225117561,-2.003946789550781,0.30885201416015623,9.497797985839844,8.312977099236642,-4.038167938931298,-0.2595419847328244,53.0841796875,41.9970703125,-53.392382812499996,
1749747155.874938,2025-06-12 23:52:35.874,33.65163087429239,-2.0278888061523435,0.30406361083984373,9.5001921875,8.221374045801527,-5.786259541984733,-0.46564885496183206,52.7291015625,41.9970703125,-52.0189453125,
1749747155.892638,2025-06-12 23:52:35.892,33.891245095396414,-2.0374656127929685,0.3184288208007812,9.445125549316407,8.335877862595419,-3.931297709923664,-0.4351145038167939,52.906640625,40.388671875,-53.907421875,
1749747155.9121768,2025-06-12 23:52:35.912,33.891245095396414,-2.039859814453125,0.4525041137695312,9.629479077148437,8.129770992366412,-4.015267175572519,-0.35877862595419846,52.196484375,40.388671875,-52.87734375,
1749747155.925964,2025-06-12 23:52:35.925,33.747476562734,-1.9943699829101562,0.30885201416015623,9.495403784179686,8.282442748091603,-3.648854961832061,-0.42748091603053434,52.906640625,42.17578125,-51.847265625,
1749747155.9402583,2025-06-12 23:52:35.940,33.84332225117561,-2.0183119995117185,0.430956298828125,9.53131680908203,8.404580152671755,-4.0534351145038165,-0.35877862595419846,52.196484375,41.818359375,-53.5640625,
1749747155.9538207,2025-06-12 23:52:35.953,33.939167939617214,-2.032677209472656,0.316034619140625,9.610325463867188,8.0,-2.015267175572519,-0.4351145038167939,54.326953124999996,40.74609375,-52.190625,
1749747155.9678771,2025-06-12 23:52:35.967,33.84332225117561,-2.085349645996094,0.30885201416015623,9.636661682128906,8.282442748091603,-3.969465648854962,-0.2366412213740458,53.26171875,42.17578125,-54.594140625,37.63012612671474
1749747155.9888678,2025-06-12 23:52:35.988,33.939167939617214,-1.8435352783203125,0.28730419921875,9.485826977539062,8.16030534351145,-5.793893129770993,-0.40458015267175573,52.551562499999996,40.03125,-52.87734375,
1749747156.0025518,2025-06-12 23:52:36.002,33.939167939617214,-2.032677209472656,0.15322890625,9.471461767578125,8.17557251908397,-4.015267175572519,-0.31297709923664124,52.3740234375,40.9248046875,-53.0490234375,
1749747156.0164557,2025-06-12 23:52:36.016,33.699553718513194,-2.0087351928710935,0.2442085693359375,9.519345800781249,8.374045801526718,-4.236641221374046,-0.3435114503816794,52.7291015625,41.6396484375,-52.7056640625,
1749747156.030186,2025-06-12 23:52:36.030,33.699553718513194,-1.9943699829101562,0.3232172241210937,9.349357482910156,8.290076335877863,-5.7251908396946565,-0.5572519083969466,53.26171875,41.818359375,-53.5640625,
1749747156.044121,2025-06-12 23:52:36.044,33.891245095396414,-2.003946789550781,0.3064578125,9.581595043945311,8.389312977099237,-3.717557251908397,-0.07633587786259542,52.196484375,41.103515625,-51.847265625,
1749747156.0581684,2025-06-12 23:52:36.058,33.55578518585078,-2.020706201171875,0.3184288208007812,9.526528405761718,8.335877862595419,-3.877862595419847,-0.21374045801526717,51.84140625,40.03125,-52.190625,
1749747156.0724864,2025-06-12 23:52:36.072,33.26824812052595,-1.9967641845703124,0.34237083740234375,9.34696328125,8.34351145038168,-4.00763358778626,-0.33587786259541985,51.663867187499996,41.2822265625,-53.0490234375,
1749747156.089318,2025-06-12 23:52:36.089,33.84332225117561,-2.0446482177734375,0.29448680419921874,9.478644372558593,8.198473282442748,-3.7099236641221376,-0.35877862595419846,51.3087890625,41.6396484375,-54.4224609375,
1749747156.10321,2025-06-12 23:52:36.103,33.41201665318837,-2.013523596191406,0.28969840087890625,9.641450085449218,8.183206106870228,-4.137404580152672,-0.19083969465648856,52.0189453125,42.7119140625,-53.392382812499996,
1749747156.1171212,2025-06-12 23:52:36.117,33.65163087429239,-2.0566192260742184,0.16041151123046873,9.509768994140625,8.290076335877863,-4.267175572519084,-0.3969465648854962,53.616796875,41.818359375,-52.87734375,
1749747156.134429,2025-06-12 23:52:36.134,33.31617096474676,-1.9776105712890624,0.3136404174804687,9.557653027343749,8.312977099236642,-4.061068702290076,-0.4351145038167939,53.616796875,41.103515625,-52.533984374999996,
1749747156.1508017,2025-06-12 23:52:36.150,33.65163087429239,-2.0566192260742184,0.34715924072265625,9.485826977539062,8.366412213740459,-4.3816793893129775,-0.4732824427480916,53.7943359375,40.9248046875,-53.0490234375,38.29780041673525
1749747156.1702278,2025-06-12 23:52:36.170,33.65163087429239,-2.0374656127929685,0.3016694091796875,9.504980590820312,8.511450381679388,-2.0,-0.25190839694656486,52.0189453125,40.5673828125,-52.0189453125,37.714158266188456
1749747156.1893537,2025-06-12 23:52:36.189,33.65163087429239,-2.0302830078125,0.32082302246093747,9.526528405761718,8.17557251908397,-2.068702290076336,-0.4351145038167939,52.551562499999996,41.818359375,-52.533984374999996,36.8085418475676
1749747156.21061,2025-06-12 23:52:36.210,33.891245095396414,-2.020706201171875,0.2561795776367187,9.490615380859374,8.412213740458014,-3.8091603053435112,-0.3969465648854962,53.26171875,40.74609375,-53.907421875,
1749747156.2243786,2025-06-12 23:52:36.224,33.939167939617214,-2.020706201171875,0.3232172241210937,9.610325463867188,8.229007633587786,-3.618320610687023,-0.3816793893129771,52.906640625,41.103515625,-53.220703125,
1749747156.2381613,2025-06-12 23:52:36.238,33.699553718513194,-2.0254946044921875,0.33758243408203126,9.447519750976562,8.34351145038168,-5.862595419847328,-0.4732824427480916,53.7943359375,41.2822265625,-52.0189453125,
1749747156.252612,2025-06-12 23:52:36.252,33.891245095396414,-2.0183119995117185,0.43574470214843747,9.548076220703125,8.274809160305344,-4.2748091603053435,-0.31297709923664124,53.439257812499996,41.6396484375,-53.0490234375,
1749747156.2670114,2025-06-12 23:52:36.267,33.699553718513194,-2.0278888061523435,0.28730419921875,9.519345800781249,8.251908396946565,-4.099236641221374,-0.183206106870229,53.7943359375,40.9248046875,-52.0189453125,
1749747156.281985,2025-06-12 23:52:36.281,33.84332225117561,-2.0374656127929685,0.4381389038085937,9.524134204101562,8.213740458015268,-4.190839694656488,-0.5038167938931297,52.196484375,41.4609375,-53.5640625,
1749747156.2954128,2025-06-12 23:52:36.295,33.747476562734,-2.0278888061523435,0.316034619140625,9.555258825683593,8.442748091603054,-4.068702290076335,-0.4732824427480916,53.616796875,41.4609375,-52.87734375,
1749747156.3103821,2025-06-12 23:52:36.310,33.747476562734,-2.1308394775390624,0.15562310791015624,9.471461767578125,8.061068702290076,-5.8396946564885495,-0.15267175572519084,52.551562499999996,40.74609375,-53.220703125,
1749747156.3253152,2025-06-12 23:52:36.325,33.84332225117561,-2.013523596191406,0.3232172241210937,9.53131680908203,8.312977099236642,-4.190839694656488,-0.40458015267175573,51.486328125,40.388671875,-52.533984374999996,
1749747156.342083,2025-06-12 23:52:36.342,33.50786234162997,-2.04943662109375,0.3495534423828125,9.56962403564453,8.305343511450381,-4.2748091603053435,-0.3816793893129771,52.7291015625,40.2099609375,-54.7658203125,
1749747156.3550267,2025-06-12 23:52:36.355,33.31617096474676,-2.0302830078125,0.32082302246093747,9.512163195800781,8.106870229007633,-4.0534351145038165,-0.48091603053435117,52.906640625,40.03125,-53.907421875,
1749747156.367762,2025-06-12 23:52:36.367,33.84332225117561,-2.039859814453125,0.3232172241210937,9.581595043945311,8.557251908396946,-1.9770992366412214,-0.05343511450381679,53.0841796875,41.9970703125,-52.7056640625,
1749747156.3813918,2025-06-12 23:52:36.381,33.747476562734,-2.051830822753906,0.3016694091796875,9.521740002441407,8.427480916030534,-1.9618320610687023,-0.35877862595419846,53.971875,41.103515625,-52.87734375,
1749747156.3950806,2025-06-12 23:52:36.395,33.891245095396414,-2.042254016113281,0.316034619140625,9.502586389160156,8.16793893129771,-3.885496183206107,-0.5648854961832062,52.551562499999996,41.103515625,-53.5640625,
1749747156.4091897,2025-06-12 23:52:36.409,33.747476562734,-1.9967641845703124,0.3232172241210937,9.49300958251953,8.381679389312977,-3.9923664122137406,-0.37404580152671757,53.616796875,41.818359375,-53.5640625,
1749747156.4251099,2025-06-12 23:52:36.425,33.84332225117561,-1.9991583862304687,0.3327940307617187,9.53131680908203,8.320610687022901,-4.145038167938932,-0.3511450381679389,53.7943359375,40.9248046875,-53.392382812499996,
1749747156.4400542,2025-06-12 23:52:36.440,33.747476562734,-2.0278888061523435,0.32082302246093747,9.469067565917967,8.419847328244275,-2.045801526717557,-0.46564885496183206,50.776171874999996,40.388671875,-52.87734375,
1749747156.4546957,2025-06-12 23:52:36.454,33.891245095396414,-2.0278888061523435,0.32561142578124996,9.528922607421874,8.198473282442748,-3.786259541984733,-0.2366412213740458,52.551562499999996,41.103515625,-52.533984374999996,
1749747156.4693742,2025-06-12 23:52:36.469,34.08293647227963,-2.01112939453125,0.4525041137695312,9.509768994140625,8.236641221374045,-3.8244274809160306,-0.07633587786259542,52.551562499999996,40.74609375,-55.280859375,
1749747156.483485,2025-06-12 23:52:36.483,33.939167939617214,-2.0470424194335934,0.3064578125,9.504980590820312,8.312977099236642,-3.801526717557252,-0.31297709923664124,52.7291015625,41.9970703125,-53.0490234375,
1749747156.4996362,2025-06-12 23:52:36.499,33.26824812052595,-2.0302830078125,0.29448680419921874,9.495403784179686,8.419847328244275,-3.9083969465648853,-0.5190839694656488,53.439257812499996,40.9248046875,-53.7357421875,
1749747156.515434,2025-06-12 23:52:36.515,33.31617096474676,-2.0254946044921875,0.27293898925781246,9.521740002441407,8.17557251908397,-3.8091603053435112,-0.25190839694656486,52.906640625,42.17578125,-53.907421875,
1749747156.5305033,2025-06-12 23:52:36.530,33.939167939617214,-2.04943662109375,0.29448680419921874,9.6151138671875,8.419847328244275,-4.0458015267175576,-0.2595419847328244,51.84140625,42.17578125,-53.220703125,
1749747156.5468688,2025-06-12 23:52:36.546,33.891245095396414,-2.059013427734375,0.29927520751953124,9.512163195800781,8.351145038167939,-4.091603053435114,-0.6412213740458015,52.906640625,42.17578125,-53.220703125,
1749747156.5607042,2025-06-12 23:52:36.560,33.41201665318837,-2.051830822753906,0.3280056274414062,9.509768994140625,8.32824427480916,-4.106870229007634,-0.5343511450381679,51.3087890625,40.5673828125,-51.675585937499996,
1749747156.5747445,2025-06-12 23:52:36.574,33.26824812052595,-2.0374656127929685,0.35194764404296874,9.476250170898437,8.458015267175572,-3.946564885496183,-0.4580152671755725,50.9537109375,41.6396484375,-53.392382812499996,
1749747156.5888104,2025-06-12 23:52:36.588,34.61008775870848,-2.0638018310546875,0.2825157958984375,9.528922607421874,8.305343511450381,-4.229007633587786,-0.4961832061068702,51.486328125,42.17578125,-52.87734375,
1749747156.6025538,2025-06-12 23:52:36.602,33.891245095396414,-2.020706201171875,0.30885201416015623,9.368511096191405,8.290076335877863,-3.687022900763359,-0.5114503816793893,51.663867187499996,40.5673828125,-52.7056640625,
1749747156.6196856,2025-06-12 23:52:36.619,33.939167939617214,-2.023100402832031,0.3232172241210937,9.617508068847656,8.259541984732824,-3.763358778625954,-0.4122137404580153,51.13125,41.818359375,-54.250781249999996,
1749747156.6340795,2025-06-12 23:52:36.634,33.699553718513194,-1.8531120849609375,0.3112462158203125,9.469067565917967,8.091603053435115,-3.7709923664122136,-0.3816793893129771,52.7291015625,41.6396484375,-53.0490234375,36.92834625388919
1749747156.6540585,2025-06-12 23:52:36.654,33.699553718513194,-2.042254016113281,0.2825157958984375,9.514557397460937,8.290076335877863,-3.9083969465648853,-0.32061068702290074,51.13125,41.103515625,-53.907421875,
1749747156.668516,2025-06-12 23:52:36.668,33.891245095396414,-2.023100402832031,0.3280056274414062,9.483432775878907,8.511450381679388,-3.984732824427481,-0.44274809160305345,52.0189453125,43.0693359375,-52.7056640625,
1749747156.6823924,2025-06-12 23:52:36.682,33.891245095396414,-2.0087351928710935,0.28969840087890625,9.555258825683593,8.099236641221374,-4.137404580152672,-0.42748091603053434,53.439257812499996,40.9248046875,-53.0490234375,
1749747156.6964047,2025-06-12 23:52:36.696,33.26824812052595,-2.0278888061523435,0.30885201416015623,9.440337145996093,8.473282442748092,-3.7480916030534353,-0.29770992366412213,53.26171875,41.818359375,-52.87734375,
1749747156.7107313,2025-06-12 23:52:36.710,33.891245095396414,-2.0350714111328125,0.33758243408203126,9.526528405761718,7.99236641221374,-3.5267175572519083,-0.2900763358778626,53.26171875,42.17578125,-52.87734375,
1749747156.7254384,2025-06-12 23:52:36.725,33.891245095396414,-2.039859814453125,0.3112462158203125,9.390058911132812,8.351145038167939,-4.083969465648855,-0.5725190839694656,52.196484375,42.17578125,-51.160546875,
1749747156.740428,2025-06-12 23:52:36.740,33.939167939617214,-2.0278888061523435,0.277727392578125,9.579200842285156,8.49618320610687,-3.877862595419847,-0.4351145038167939,53.616796875,40.74609375,-53.5640625,
1749747156.7552857,2025-06-12 23:52:36.755,33.84332225117561,-1.9752163696289062,0.30885201416015623,9.351751684570312,8.366412213740459,-5.816793893129771,-0.3816793893129771,53.616796875,38.958984375,-52.533984374999996,
1749747156.7687109,2025-06-12 23:52:36.768,33.939167939617214,-1.9991583862304687,0.4572925170898437,9.533711010742186,8.32824427480916,-5.809160305343512,-0.40458015267175573,,,,
1749747156.7787955,2025-06-12 23:52:36.778,33.747476562734,-1.9919757812499999,0.33758243408203126,9.502586389160156,8.145038167938932,-4.022900763358779,-0.1984732824427481,52.7291015625,41.6396484375,-53.392382812499996,
1749747156.7913682,2025-06-12 23:52:36.791,33.84332225117561,-1.8531120849609375,0.33758243408203126,9.622296472167967,8.106870229007633,-5.67175572519084,-0.2824427480916031,52.196484375,41.103515625,-53.220703125,
1749747156.8041434,2025-06-12 23:52:36.804,33.939167939617214,-2.0254946044921875,0.296881005859375,9.356540087890625,8.290076335877863,-3.7938931297709924,-0.3969465648854962,53.7943359375,40.5673828125,-52.3623046875,
1749747156.8181026,2025-06-12 23:52:36.818,33.939167939617214,-2.0159177978515626,0.29448680419921874,9.358934289550781,8.572519083969466,-3.8473282442748094,-0.4580152671755725,52.7291015625,41.9970703125,-53.392382812499996,
1749747156.8306832,2025-06-12 23:52:36.830,33.84332225117561,-1.9919757812499999,0.3280056274414062,9.552864624023437,8.396946564885496,-2.1374045801526718,-0.366412213740458,53.439257812499996,41.9970703125,-53.392382812499996,
1749747156.8431883,2025-06-12 23:52:36.843,34.65801060292928,-2.0063409912109376,0.3184288208007812,9.5384994140625,8.129770992366412,-4.0,-0.4122137404580153,53.0841796875,39.8525390625,-52.3623046875,
1749747156.856467,2025-06-12 23:52:36.856,33.84332225117561,-1.9919757812499999,0.30406361083984373,9.507374792480467,8.251908396946565,-5.740458015267175,-0.1984732824427481,51.3087890625,40.9248046875,-53.0490234375,
1749747156.8691351,2025-06-12 23:52:36.869,33.84332225117561,-2.0278888061523435,0.32561142578124996,9.447519750976562,8.458015267175572,-4.015267175572519,-0.6259541984732825,,,,38.843816548041005
1749747156.8824515,2025-06-12 23:52:36.882,34.65801060292928,-2.032677209472656,0.35673604736328124,9.495403784179686,8.641221374045802,-4.099236641221374,-0.3816793893129771,51.663867187499996,41.9970703125,-53.392382812499996,
1749747156.895093,2025-06-12 23:52:36.895,34.61008775870848,-2.023100402832031,0.296881005859375,9.514557397460937,8.297709923664122,-3.877862595419847,-0.21374045801526717,53.616796875,41.103515625,-53.220703125,
1749747156.9084587,2025-06-12 23:52:36.908,34.514242070266874,-1.9967641845703124,0.3136404174804687,9.612719665527344,8.603053435114504,-4.206106870229007,-0.3969465648854962,53.971875,41.4609375,-53.5640625,
1749747156.9233031,2025-06-12 23:52:36.923,33.939167939617214,-2.013523596191406,0.3184288208007812,9.612719665527344,8.290076335877863,-4.106870229007634,-0.48091603053435117,51.84140625,41.103515625,-52.533984374999996,
1749747156.9381351,2025-06-12 23:52:36.938,33.747476562734,-2.01112939453125,0.29927520751953124,9.526528405761718,8.305343511450381,-2.030534351145038,-0.25190839694656486,52.0189453125,42.3544921875,-54.0791015625,
1749747156.952584,2025-06-12 23:52:36.952,34.70593344715009,-2.01112939453125,0.44053310546874996,9.481038574218749,7.9541984732824424,-5.816793893129771,-0.20610687022900764,52.0189453125,41.2822265625,-53.392382812499996,
1749747156.966807,2025-06-12 23:52:36.966,33.891245095396414,-1.9967641845703124,0.26336218261718747,9.591171850585937,8.145038167938932,-4.068702290076335,-0.4961832061068702,53.7943359375,41.2822265625,-53.7357421875,
1749747156.9809885,2025-06-12 23:52:36.980,34.65801060292928,-1.9943699829101562,0.2920926025390625,9.550470422363281,8.274809160305344,-4.129770992366412,-0.37404580152671757,53.7943359375,41.6396484375,-51.675585937499996,
1749747156.9973433,2025-06-12 23:52:36.997,33.891245095396414,-2.0542250244140625,0.3136404174804687,9.514557397460937,8.526717557251908,-2.0,-0.7022900763358778,53.0841796875,40.5673828125,-53.392382812499996,
1749747157.0116267,2025-06-12 23:52:37.011,34.46631922604607,-1.9967641845703124,0.32082302246093747,9.485826977539062,8.17557251908397,-4.122137404580153,-0.5190839694656488,53.0841796875,41.9970703125,-53.392382812499996,
1749747157.0258944,2025-06-12 23:52:37.025,33.50786234162997,-2.042254016113281,0.33758243408203126,9.469067565917967,8.335877862595419,-5.801526717557252,-0.4198473282442748,52.3740234375,40.9248046875,-54.0791015625,
1749747157.0400145,2025-06-12 23:52:37.040,33.891245095396414,-2.0470424194335934,0.35194764404296874,9.49300958251953,8.259541984732824,-4.122137404580153,-0.40458015267175573,52.7291015625,41.6396484375,-53.7357421875,
1749747157.0541809,2025-06-12 23:52:37.054,34.70593344715009,-2.0254946044921875,0.33039982910156246,9.512163195800781,8.16793893129771,-2.068702290076336,-0.3053435114503817,51.84140625,42.17578125,-53.220703125,
1749747157.0681064,2025-06-12 23:52:37.068,33.84332225117561,-1.9967641845703124,0.3184288208007812,9.361328491210937,8.49618320610687,-3.969465648854962,-0.2824427480916031,53.7943359375,41.6396484375,-54.4224609375,
1749747157.0849397,2025-06-12 23:52:37.084,33.84332225117561,-1.9943699829101562,0.296881005859375,9.4618849609375,8.358778625954198,-2.122137404580153,-0.5725190839694656,53.7943359375,41.6396484375,-52.0189453125,
1749747157.1005406,2025-06-12 23:52:37.100,34.65801060292928,-2.0542250244140625,0.2537853759765625,9.4618849609375,8.236641221374045,-3.8931297709923665,-0.3282442748091603,52.196484375,42.17578125,-51.847265625,
1749747157.1150022,2025-06-12 23:52:37.115,33.699553718513194,-2.0374656127929685,0.32561142578124996,9.368511096191405,8.633587786259541,-4.022900763358779,-0.35877862595419846,52.551562499999996,41.103515625,-53.5640625,
1749747157.1292703,2025-06-12 23:52:37.129,33.891245095396414,-2.068590234375,0.29448680419921874,9.358934289550781,8.335877862595419,-4.030534351145038,-0.40458015267175573,53.7943359375,40.9248046875,-53.0490234375,
1749747157.1433363,2025-06-12 23:52:37.143,33.699553718513194,-2.051830822753906,0.3447650390625,9.545682019042967,8.587786259541986,-3.854961832061069,-0.8091603053435115,53.0841796875,41.2822265625,-52.0189453125,39.15292269995489
1749747157.164802,2025-06-12 23:52:37.164,33.747476562734,-2.0159177978515626,0.3327940307617187,9.49300958251953,8.274809160305344,-4.183206106870229,-0.2366412213740458,54.1494140625,42.3544921875,-53.0490234375,
1749747157.1801066,2025-06-12 23:52:37.180,34.65801060292928,-2.01112939453125,0.43574470214843747,9.562441430664062,8.450381679389313,-4.068702290076335,-0.48091603053435117,53.439257812499996,40.9248046875,-53.0490234375,
1749747157.1955235,2025-06-12 23:52:37.195,34.61008775870848,-2.1404162841796874,0.3112462158203125,9.483432775878907,8.335877862595419,-3.83206106870229,-0.5038167938931297,52.196484375,40.388671875,-53.220703125,37.42655128348386
1749747157.215431,2025-06-12 23:52:37.215,33.84332225117561,-2.032677209472656,0.33758243408203126,9.545682019042967,8.427480916030534,-3.854961832061069,-0.2900763358778626,52.196484375,40.388671875,-53.907421875,
1749747157.2310438,2025-06-12 23:52:37.231,33.891245095396414,-1.9632453613281249,0.3280056274414062,9.651026892089844,8.297709923664122,-4.068702290076335,-0.25190839694656486,53.0841796875,41.2822265625,-52.7056640625,
1749747157.2463822,2025-06-12 23:52:37.246,33.939167939617214,-2.0063409912109376,0.3399766357421875,9.509768994140625,8.320610687022901,-5.862595419847328,-0.46564885496183206,51.84140625,41.818359375,-53.907421875,37.65834479609109
1749747157.2647567,2025-06-12 23:52:37.264,34.27462784916285,-2.0302830078125,0.3136404174804687,9.600748657226562,8.267175572519085,-5.740458015267175,-0.4122137404580153,52.196484375,42.17578125,-55.280859375,
1749747157.2787132,2025-06-12 23:52:37.278,34.65801060292928,-2.059013427734375,0.3136404174804687,9.504980590820312,8.305343511450381,-5.809160305343512,-0.3969465648854962,52.551562499999996,40.74609375,-54.594140625,
1749747157.2927938,2025-06-12 23:52:37.292,34.61008775870848,-2.0302830078125,0.33039982910156246,9.639055883789062,8.290076335877863,-2.1526717557251906,-0.35877862595419846,51.13125,41.4609375,-53.907421875,
1749747157.306956,2025-06-12 23:52:37.306,33.939167939617214,-2.0183119995117185,0.3687070556640625,9.560047229003906,8.236641221374045,-5.847328244274809,-0.4351145038167939,52.3740234375,41.9970703125,-52.3623046875,
1749747157.3217638,2025-06-12 23:52:37.321,33.31617096474676,-2.0063409912109376,0.296881005859375,9.521740002441407,8.022900763358779,-2.045801526717557,-0.3511450381679389,52.551562499999996,40.388671875,-53.907421875,37.87130567467493
1749747157.3444848,2025-06-12 23:52:37.344,33.26824812052595,-2.0087351928710935,0.32561142578124996,9.485826977539062,8.259541984732824,-3.984732824427481,-0.4732824427480916,53.439257812499996,41.6396484375,-54.4224609375,
1749747157.358607,2025-06-12 23:52:37.358,34.03501362805883,-2.0374656127929685,0.3016694091796875,9.507374792480467,8.427480916030534,-3.9923664122137406,-0.2366412213740458,51.84140625,41.103515625,-52.87734375,
1749747157.372757,2025-06-12 23:52:37.372,33.84332225117561,-2.0278888061523435,0.2657563842773437,9.471461767578125,8.0,-3.969465648854962,-0.3511450381679389,50.776171874999996,42.890625,-54.250781249999996,
1749747157.3880715,2025-06-12 23:52:37.388,33.26824812052595,-1.9895815795898437,0.3136404174804687,9.550470422363281,8.404580152671755,-3.687022900763359,-0.648854961832061,52.3740234375,40.5673828125,-53.0490234375,
1749747157.4016564,2025-06-12 23:52:37.401,34.65801060292928,-2.0063409912109376,0.3232172241210937,9.476250170898437,8.50381679389313,-5.854961832061068,-0.31297709923664124,52.0189453125,41.2822265625,-54.7658203125,
1749747157.4162452,2025-06-12 23:52:37.416,33.939167939617214,-2.042254016113281,0.32082302246093747,9.49300958251953,8.099236641221374,-4.229007633587786,-0.29770992366412213,53.616796875,41.103515625,-53.220703125,
1749747157.4321923,2025-06-12 23:52:37.432,33.747476562734,-1.879448303222656,0.32561142578124996,9.593566052246093,8.412213740458014,-5.862595419847328,-0.32061068702290074,53.0841796875,40.9248046875,-53.0490234375,
1749747157.4483714,2025-06-12 23:52:37.448,33.26824812052595,-2.114080065917969,0.3016694091796875,9.595960253906249,8.320610687022901,-4.061068702290076,-0.3893129770992366,51.486328125,41.4609375,-53.5640625,
1749747157.4621482,2025-06-12 23:52:37.462,33.747476562734,-2.04943662109375,0.4477157104492187,9.485826977539062,8.16793893129771,-3.9236641221374047,-0.5572519083969466,52.906640625,42.17578125,-53.220703125,
1749747157.4758103,2025-06-12 23:52:37.475,33.699553718513194,-2.0302830078125,0.44053310546874996,9.358934289550781,8.297709923664122,-5.824427480916031,-0.31297709923664124,52.3740234375,41.6396484375,-53.392382812499996,
1749747157.4946144,2025-06-12 23:52:37.494,33.26824812052595,-2.0183119995117185,0.316034619140625,9.471461767578125,8.458015267175572,-2.0381679389312977,-0.6259541984732825,52.3740234375,40.2099609375,-52.0189453125,
1749747157.5084403,2025-06-12 23:52:37.508,33.891245095396414,-1.9967641845703124,0.33039982910156246,9.512163195800781,8.259541984732824,-4.152671755725191,-0.09923664122137404,51.3087890625,40.9248046875,-52.0189453125,
1749747157.5238178,2025-06-12 23:52:37.523,33.41201665318837,-2.032677209472656,0.45489831542968745,9.53131680908203,8.290076335877863,-3.9236641221374047,-0.5954198473282443,52.7291015625,43.0693359375,-52.7056640625,
1749747157.5381408,2025-06-12 23:52:37.538,33.747476562734,-1.9871873779296874,0.32082302246093747,9.516951599121093,8.305343511450381,-3.954198473282443,-0.46564885496183206,52.906640625,41.103515625,-52.87734375,
1749747157.5532007,2025-06-12 23:52:37.553,34.03501362805883,-2.0278888061523435,0.15562310791015624,9.651026892089844,8.49618320610687,-4.076335877862595,-0.366412213740458,52.196484375,42.17578125,-53.220703125,
1749747157.5672562,2025-06-12 23:52:37.567,33.84332225117561,-2.001552587890625,0.44532150878906246,9.504980590820312,8.106870229007633,-4.015267175572519,-0.4961832061068702,52.7291015625,41.2822265625,-54.4224609375,
1749747157.5816038,2025-06-12 23:52:37.581,33.747476562734,-2.142810485839844,0.3280056274414062,9.540893615722656,8.541984732824428,-4.022900763358779,-0.35877862595419846,52.196484375,39.31640625,-54.594140625,
1749747157.5975268,2025-06-12 23:52:37.597,34.61008775870848,-2.001552587890625,0.3136404174804687,9.404424121093749,8.221374045801527,-2.145038167938931,-0.31297709923664124,52.551562499999996,40.74609375,-52.87734375,
1749747157.611137,2025-06-12 23:52:37.611,33.26824812052595,-1.9943699829101562,0.16759411621093748,9.507374792480467,8.511450381679388,-4.129770992366412,-0.4122137404580153,54.68203125,42.17578125,-52.87734375,
1749747157.625287,2025-06-12 23:52:37.625,34.61008775870848,-1.886630908203125,0.44532150878906246,9.4618849609375,8.305343511450381,-3.8244274809160306,-0.2824427480916031,52.3740234375,41.2822265625,-51.675585937499996,
1749747157.639086,2025-06-12 23:52:37.639,33.891245095396414,-2.0087351928710935,0.4381389038085937,9.545682019042967,8.374045801526718,-5.854961832061068,-0.5572519083969466,53.0841796875,39.4951171875,-53.0490234375,36.46683201721972
1749747157.6564872,2025-06-12 23:52:37.656,33.891245095396414,-2.051830822753906,0.30406361083984373,9.533711010742186,8.374045801526718,-4.305343511450381,-0.20610687022900764,52.551562499999996,42.533203125,-51.160546875,
1749747157.6721745,2025-06-12 23:52:37.672,34.65801060292928,-2.0302830078125,0.32561142578124996,9.526528405761718,8.122137404580153,-4.114503816793893,-0.48854961832061067,52.7291015625,40.5673828125,-52.7056640625,
1749747157.6874347,2025-06-12 23:52:37.687,33.26824812052595,-2.04943662109375,0.3232172241210937,9.631873278808593,8.045801526717558,-2.1068702290076335,-0.45038167938931295,53.616796875,42.17578125,-54.594140625,
1749747157.701477,2025-06-12 23:52:37.701,33.699553718513194,-2.01112939453125,0.3447650390625,9.509768994140625,8.183206106870228,-5.854961832061068,-0.22137404580152673,52.3740234375,39.4951171875,-51.675585937499996,
1749747157.7152932,2025-06-12 23:52:37.715,33.939167939617214,-2.1260510742187497,0.296881005859375,9.524134204101562,8.549618320610687,-4.061068702290076,-0.2366412213740458,52.906640625,42.533203125,-52.533984374999996,
1749747157.7292101,2025-06-12 23:52:37.729,33.891245095396414,-1.886630908203125,0.29448680419921874,9.512163195800781,8.297709923664122,-4.022900763358779,-0.183206106870229,52.196484375,41.818359375,-52.533984374999996,37.976633775153466
1749747157.7461677,2025-06-12 23:52:37.746,34.514242070266874,-2.0159177978515626,0.3064578125,9.519345800781249,7.969465648854962,-4.259541984732825,-0.29770992366412213,52.196484375,40.74609375,-52.87734375,
1749747157.7597394,2025-06-12 23:52:37.759,33.31617096474676,-2.142810485839844,0.33518823242187495,9.481038574218749,8.358778625954198,-4.175572519083969,-0.13740458015267176,53.0841796875,42.3544921875,-52.7056640625,38.576486717443935
1749747157.7787247,2025-06-12 23:52:37.778,33.891245095396414,-1.8650830932617186,0.3232172241210937,9.440337145996093,8.358778625954198,-3.7938931297709924,-0.0916030534351145,52.0189453125,41.2822265625,-53.7357421875,
1749747157.7915275,2025-06-12 23:52:37.791,33.31617096474676,-2.0446482177734375,0.3327940307617187,9.466673364257812,8.32824427480916,-3.9236641221374047,-0.3816793893129771,52.906640625,40.74609375,-53.5640625,
1749747157.80389,2025-06-12 23:52:37.803,33.84332225117561,-2.032677209472656,0.16519991455078123,9.495403784179686,8.15267175572519,-3.9618320610687023,-0.2900763358778626,,,,37.17325436190571
1749747157.8163848,2025-06-12 23:52:37.816,34.41839638182526,-2.0446482177734375,0.30885201416015623,9.483432775878907,8.381679389312977,-4.099236641221374,-0.5343511450381679,54.326953124999996,41.4609375,-54.9375,
1749747157.828783,2025-06-12 23:52:37.828,34.03501362805883,-2.003946789550781,0.3112462158203125,9.476250170898437,8.32824427480916,-3.6564885496183206,-0.42748091603053434,52.196484375,42.17578125,-53.907421875,
1749747157.8411436,2025-06-12 23:52:37.841,34.46631922604607,-2.0374656127929685,0.316034619140625,9.526528405761718,8.16793893129771,-1.984732824427481,-0.11450381679389313,51.84140625,40.74609375,-52.87734375,38.05780485546051
1749747157.8569067,2025-06-12 23:52:37.856,33.31617096474676,-1.9919757812499999,0.3136404174804687,9.533711010742186,8.122137404580153,-3.954198473282443,-0.05343511450381679,52.3740234375,40.9248046875,-53.392382812499996,
1749747157.8693051,2025-06-12 23:52:37.869,33.939167939617214,-1.9847931762695312,0.3136404174804687,9.528922607421874,8.32824427480916,-3.877862595419847,-0.16793893129770993,53.616796875,40.03125,-52.87734375,
1749747157.8818662,2025-06-12 23:52:37.881,33.939167939617214,-2.01112939453125,0.33518823242187495,9.473855969238281,8.595419847328245,-3.931297709923664,-0.46564885496183206,52.551562499999996,40.74609375,-51.847265625,
1749747157.8950608,2025-06-12 23:52:37.895,33.26824812052595,-1.9919757812499999,0.29927520751953124,9.449913952636718,8.625954198473282,-4.106870229007634,-0.20610687022900764,53.439257812499996,40.5673828125,-52.0189453125,
1749747157.9075942,2025-06-12 23:52:37.907,34.03501362805883,-2.0566192260742184,0.3112462158203125,9.521740002441407,8.221374045801527,-3.717557251908397,-0.183206106870229,52.7291015625,39.4951171875,-53.392382812499996,
1749747157.9207287,2025-06-12 23:52:37.920,33.84332225117561,-1.9847931762695312,0.3327940307617187,9.445125549316407,8.351145038167939,-5.748091603053435,-0.2824427480916031,52.0189453125,40.9248046875,-54.0791015625,
1749747157.9377067,2025-06-12 23:52:37.937,33.84332225117561,-1.9776105712890624,0.4525041137695312,9.514557397460937,8.007633587786259,-4.061068702290076,-0.3893129770992366,53.26171875,40.74609375,-52.87734375,
1749747157.952431,2025-06-12 23:52:37.952,34.61008775870848,-2.0302830078125,0.3327940307617187,9.636661682128906,8.16030534351145,-3.900763358778626,-0.183206106870229,52.906640625,41.103515625,-54.250781249999996,
1749747157.9666731,2025-06-12 23:52:37.966,33.31617096474676,-2.0470424194335934,0.3136404174804687,9.406818322753905,8.076335877862595,-2.0916030534351147,-0.48091603053435117,51.486328125,42.17578125,-52.533984374999996,
1749747157.9810967,2025-06-12 23:52:37.981,33.41201665318837,-2.0470424194335934,0.3064578125,9.583989245605467,8.206106870229007,-5.862595419847328,-0.007633587786259542,53.7943359375,41.6396484375,-54.0791015625,
1749747157.9985573,2025-06-12 23:52:37.998,33.26824812052595,-2.0159177978515626,0.3184288208007812,9.545682019042967,8.17557251908397,-4.038167938931298,-0.4732824427480916,51.84140625,41.818359375,-53.220703125,38.38400913945404
1749747158.017777,2025-06-12 23:52:38.017,33.26824812052595,-2.0446482177734375,0.36152445068359373,9.53131680908203,8.274809160305344,-4.015267175572519,-0.4351145038167939,53.0841796875,42.3544921875,-53.0490234375,
1749747158.0317225,2025-06-12 23:52:38.031,33.84332225117561,-2.051830822753906,0.4213794921875,9.507374792480467,8.251908396946565,-3.66412213740458,-0.3816793893129771,53.26171875,42.533203125,-53.5640625,
1749747158.0452309,2025-06-12 23:52:38.045,33.26824812052595,-2.023100402832031,0.44532150878906246,9.5384994140625,8.526717557251908,-4.0,-0.4351145038167939,53.0841796875,41.2822265625,-53.0490234375,
1749747158.0591366,2025-06-12 23:52:38.059,33.891245095396414,-2.0183119995117185,0.28969840087890625,9.488221179199218,8.435114503816793,-4.0458015267175576,-0.29770992366412213,53.971875,42.17578125,-53.220703125,
1749747158.072541,2025-06-12 23:52:38.072,33.84332225117561,-1.9823989746093749,0.32561142578124996,9.449913952636718,8.427480916030534,-3.9389312977099236,-0.3969465648854962,51.13125,41.818359375,-52.87734375,
1749747158.087852,2025-06-12 23:52:38.087,33.31617096474676,-1.867477294921875,0.3327940307617187,9.512163195800781,8.061068702290076,-1.9923664122137406,-0.6106870229007634,51.663867187499996,42.3544921875,-53.7357421875,
1749747158.1023936,2025-06-12 23:52:38.102,33.939167939617214,-2.0302830078125,0.3064578125,9.519345800781249,8.312977099236642,-4.083969465648855,-0.42748091603053434,52.196484375,40.74609375,-51.50390625,
1749747158.119157,2025-06-12 23:52:38.119,33.939167939617214,-2.032677209472656,0.3280056274414062,9.560047229003906,8.206106870229007,-3.885496183206107,-0.3969465648854962,51.84140625,41.103515625,-53.907421875,
1749747158.1330378,2025-06-12 23:52:38.133,33.939167939617214,-2.1164742675781247,0.29448680419921874,9.495403784179686,8.229007633587786,-4.1603053435114505,-0.46564885496183206,52.906640625,41.4609375,-51.847265625,
1749747158.1467302,2025-06-12 23:52:38.146,33.747476562734,-2.0374656127929685,0.296881005859375,9.524134204101562,8.0,-3.7938931297709924,-0.25190839694656486,53.26171875,39.673828125,-53.220703125,
1749747158.1610403,2025-06-12 23:52:38.161,33.939167939617214,-2.1021090576171875,0.32082302246093747,9.64623848876953,8.34351145038168,-3.9618320610687023,-0.366412213740458,52.7291015625,40.9248046875,-53.7357421875,
1749747158.1750586,2025-06-12 23:52:38.175,33.26824812052595,-2.0183119995117185,0.33758243408203126,9.483432775878907,8.572519083969466,-5.862595419847328,-0.4961832061068702,,,,36.99012764352181
1749747158.1917598,2025-06-12 23:52:38.191,33.26824812052595,-2.013523596191406,0.3184288208007812,9.469067565917967,8.358778625954198,-4.396946564885496,-0.31297709923664124,52.7291015625,42.3544921875,-53.392382812499996,
1749747158.2062933,2025-06-12 23:52:38.206,33.84332225117561,-2.0542250244140625,0.28730419921875,9.373299499511718,8.251908396946565,-4.206106870229007,-0.26717557251908397,51.13125,42.17578125,-53.907421875,
1749747158.220501,2025-06-12 23:52:38.220,33.84332225117561,-2.051830822753906,0.33039982910156246,9.502586389160156,8.450381679389313,-3.8931297709923665,-0.4961832061068702,52.196484375,42.17578125,-53.220703125,
1749747158.2369103,2025-06-12 23:52:38.236,33.891245095396414,-2.0566192260742184,0.3232172241210937,9.49300958251953,8.320610687022901,-3.801526717557252,-0.33587786259541985,51.84140625,41.103515625,-52.87734375,
1749747158.2512321,2025-06-12 23:52:38.251,34.70593344715009,-2.0446482177734375,0.4477157104492187,9.636661682128906,8.091603053435115,-3.786259541984733,-0.5267175572519084,50.9537109375,41.9970703125,-53.7357421875,
1749747158.2654483,2025-06-12 23:52:38.265,34.08293647227963,-2.039859814453125,0.17477672119140625,9.519345800781249,8.236641221374045,-3.946564885496183,-0.3053435114503817,52.7291015625,42.3544921875,-52.0189453125,
1749747158.2799785,2025-06-12 23:52:38.279,33.747476562734,-2.032677209472656,0.3016694091796875,9.504980590820312,8.34351145038168,-4.137404580152672,-0.44274809160305345,51.486328125,41.818359375,-52.190625,
1749747158.2946017,2025-06-12 23:52:38.294,33.939167939617214,-2.0183119995117185,0.30885201416015623,9.495403784179686,8.396946564885496,-4.038167938931298,-0.4961832061068702,51.84140625,40.74609375,-53.5640625,
1749747158.3090284,2025-06-12 23:52:38.309,33.31617096474676,-2.0087351928710935,0.1580173095703125,9.366116894531249,8.564885496183207,-3.7709923664122136,-0.3893129770992366,51.486328125,42.533203125,-52.190625,
1749747158.3231866,2025-06-12 23:52:38.323,33.41201665318837,-1.8507178833007811,0.33518823242187495,9.526528405761718,8.282442748091603,-4.038167938931298,-0.5114503816793893,53.439257812499996,42.3544921875,-52.7056640625,
1749747158.3385167,2025-06-12 23:52:38.338,33.41201665318837,-2.020706201171875,0.4572925170898437,9.557653027343749,8.595419847328245,-3.8396946564885495,-0.5038167938931297,51.84140625,43.248046875,-53.220703125,
1749747158.353157,2025-06-12 23:52:38.353,33.939167939617214,-2.0087351928710935,0.29448680419921874,9.481038574218749,8.16793893129771,-2.045801526717557,-0.3053435114503817,52.196484375,40.03125,-52.190625,
1749747158.3672912,2025-06-12 23:52:38.367,33.891245095396414,-1.9776105712890624,0.3232172241210937,9.540893615722656,8.206106870229007,-3.9236641221374047,-0.32061068702290074,53.0841796875,41.6396484375,-54.0791015625,
1749747158.381686,2025-06-12 23:52:38.381,33.84332225117561,-2.0063409912109376,0.30885201416015623,9.574412438964844,8.366412213740459,-1.984732824427481,-0.37404580152671757,53.0841796875,41.2822265625,-53.7357421875,
1749747158.3960419,2025-06-12 23:52:38.396,34.70593344715009,-1.8507178833007811,0.34715924072265625,9.555258825683593,8.320610687022901,-4.122137404580153,-0.26717557251908397,52.7291015625,41.2822265625,-53.0490234375,
1749747158.4102187,2025-06-12 23:52:38.410,33.26824812052595,-2.0183119995117185,0.27293898925781246,9.583989245605467,8.183206106870228,-4.175572519083969,-0.2900763358778626,53.26171875,41.818359375,-52.533984374999996,
1749747158.4245875,2025-06-12 23:52:38.424,33.939167939617214,-2.0183119995117185,0.30406361083984373,9.49300958251953,8.381679389312977,-3.9923664122137406,-0.5572519083969466,53.26171875,40.03125,-51.50390625,
1749747158.4401288,2025-06-12 23:52:38.440,33.939167939617214,-1.9991583862304687,0.33518823242187495,9.550470422363281,8.297709923664122,-3.8625954198473282,-0.4732824427480916,51.84140625,40.03125,-52.190625,
1749747158.4590037,2025-06-12 23:52:38.459,33.31617096474676,-2.051830822753906,0.4572925170898437,9.488221179199218,8.335877862595419,-4.083969465648855,-0.40458015267175573,52.0189453125,41.2822265625,-53.0490234375,
1749747158.4756014,2025-06-12 23:52:38.475,33.891245095396414,-2.032677209472656,0.15562310791015624,9.516951599121093,8.198473282442748,-4.0534351145038165,-0.6564885496183206,52.906640625,42.890625,-51.50390625,
1749747158.4897072,2025-06-12 23:52:38.489,34.70593344715009,-2.020706201171875,0.3184288208007812,9.526528405761718,8.229007633587786,-3.9770992366412212,-0.3282442748091603,52.0189453125,42.7119140625,-53.7357421875,
1749747158.5028148,2025-06-12 23:52:38.502,34.65801060292928,-2.0063409912109376,0.4572925170898437,9.528922607421874,8.374045801526718,-4.0458015267175576,-0.366412213740458,52.7291015625,40.2099609375,-52.7056640625,37.843867955485635
1749747158.5198371,2025-06-12 23:52:38.519,33.891245095396414,-2.003946789550781,0.3232172241210937,9.512163195800781,8.183206106870228,-4.0458015267175576,-0.5038167938931297,52.906640625,40.388671875,-52.87734375,
1749747158.5344818,2025-06-12 23:52:38.534,34.61008775870848,-2.003946789550781,0.430956298828125,9.516951599121093,8.198473282442748,-3.984732824427481,-0.4198473282442748,52.0189453125,40.2099609375,-53.392382812499996,
1749747158.5502672,2025-06-12 23:52:38.550,34.08293647227963,-2.042254016113281,0.3112462158203125,9.526528405761718,8.16793893129771,-4.068702290076335,-0.2900763358778626,54.1494140625,41.2822265625,-53.392382812499996,
1749747158.5664454,2025-06-12 23:52:38.566,33.891245095396414,-2.0278888061523435,0.2920926025390625,9.514557397460937,8.17557251908397,-5.8320610687022905,-0.22137404580152673,52.3740234375,41.6396484375,-52.7056640625,
1749747158.5808187,2025-06-12 23:52:38.580,33.31617096474676,-2.04943662109375,0.3016694091796875,9.509768994140625,8.442748091603054,-3.9160305343511452,-0.17557251908396945,51.84140625,41.818359375,-54.250781249999996,
1749747158.596209,2025-06-12 23:52:38.596,34.03501362805883,-1.9823989746093749,0.3064578125,9.528922607421874,8.061068702290076,-4.1679389312977095,-0.549618320610687,54.5044921875,42.3544921875,-53.0490234375,
1749747158.6110759,2025-06-12 23:52:38.611,34.65801060292928,-2.001552587890625,0.3184288208007812,9.485826977539062,8.213740458015268,-4.068702290076335,-0.3969465648854962,51.663867187499996,41.9970703125,-53.0490234375,
1749747158.6257718,2025-06-12 23:52:38.625,33.747476562734,-1.9847931762695312,0.15562310791015624,9.473855969238281,8.267175572519085,-2.0381679389312977,-0.26717557251908397,52.7291015625,42.3544921875,-54.4224609375,
1749747158.639524,2025-06-12 23:52:38.639,33.41201665318837,-2.0063409912109376,0.33758243408203126,9.528922607421874,8.244274809160306,-4.030534351145038,-0.31297709923664124,54.68203125,42.533203125,-54.250781249999996,
1749747158.6531198,2025-06-12 23:52:38.653,34.70593344715009,-2.04943662109375,0.3327940307617187,9.516951599121093,8.183206106870228,-4.0,-1.9541984732824427,51.84140625,40.03125,-52.533984374999996,38.0844594301796
1749747158.6716251,2025-06-12 23:52:38.671,33.891245095396414,-2.0087351928710935,0.32561142578124996,9.373299499511718,8.51908396946565,-1.9694656488549618,-0.4732824427480916,52.551562499999996,42.890625,-53.220703125,
1749747158.685366,2025-06-12 23:52:38.685,34.65801060292928,-2.0254946044921875,0.3016694091796875,9.473855969238281,8.244274809160306,-4.1603053435114505,-0.37404580152671757,53.439257812499996,41.6396484375,-53.0490234375,
1749747158.6980412,2025-06-12 23:52:38.698,33.939167939617214,-1.8435352783203125,0.3184288208007812,9.504980590820312,8.251908396946565,-2.030534351145038,-0.24427480916030533,52.3740234375,41.9970703125,-53.392382812499996,
1749747158.7139006,2025-06-12 23:52:38.713,33.84332225117561,-2.039859814453125,0.4333505004882812,9.526528405761718,8.526717557251908,-4.1603053435114505,-0.46564885496183206,52.3740234375,41.6396484375,-52.7056640625,
1749747158.7279458,2025-06-12 23:52:38.727,34.61008775870848,-1.9967641845703124,0.4525041137695312,9.488221179199218,8.305343511450381,-4.129770992366412,-0.40458015267175573,,,,37.321036192631304
1749747158.7406182,2025-06-12 23:52:38.740,33.26824812052595,-2.001552587890625,0.4525041137695312,9.471461767578125,8.412213740458014,-3.854961832061069,-0.2824427480916031,52.551562499999996,42.17578125,-52.87734375,
1749747158.7532666,2025-06-12 23:52:38.753,33.891245095396414,-2.0087351928710935,0.30406361083984373,9.507374792480467,8.114503816793894,-4.099236641221374,-0.44274809160305345,53.439257812499996,41.6396484375,-53.7357421875,
1749747158.7658944,2025-06-12 23:52:38.765,34.70593344715009,-2.020706201171875,0.3184288208007812,9.550470422363281,8.595419847328245,-4.106870229007634,-0.48854961832061067,52.7291015625,41.6396484375,-51.675585937499996,
1749747158.7784157,2025-06-12 23:52:38.778,34.08293647227963,-2.042254016113281,0.29927520751953124,9.533711010742186,8.15267175572519,-4.00763358778626,-0.2900763358778626,52.0189453125,39.4951171875,-53.7357421875,
1749747158.791659,2025-06-12 23:52:38.791,34.70593344715009,-2.032677209472656,0.34715924072265625,9.516951599121093,8.19083969465649,-4.0534351145038165,-0.366412213740458,52.3740234375,40.2099609375,-51.675585937499996,
1749747158.8042922,2025-06-12 23:52:38.804,33.84332225117561,-2.0638018310546875,0.3447650390625,9.567229833984374,8.312977099236642,-5.847328244274809,-0.42748091603053434,51.84140625,40.03125,-53.907421875,38.0844594301796
1749747158.8211045,2025-06-12 23:52:38.821,33.891245095396414,-2.01112939453125,0.3016694091796875,9.509768994140625,8.145038167938932,-3.9923664122137406,-0.16030534351145037,53.26171875,41.4609375,-52.190625,
1749747158.8355052,2025-06-12 23:52:38.835,33.891245095396414,-1.9895815795898437,0.30406361083984373,9.351751684570312,8.259541984732824,-4.0,-0.2900763358778626,53.0841796875,42.7119140625,-53.392382812499996,
1749747158.8501875,2025-06-12 23:52:38.850,33.26824812052595,-2.0183119995117185,0.28012159423828126,9.53131680908203,8.274809160305344,-4.0,-0.17557251908396945,52.7291015625,39.8525390625,-54.0791015625,
1749747158.8648574,2025-06-12 23:52:38.864,33.939167939617214,-1.9991583862304687,0.44532150878906246,9.519345800781249,8.206106870229007,-4.076335877862595,-0.33587786259541985,53.26171875,42.17578125,-53.5640625,
1749747158.8791327,2025-06-12 23:52:38.879,33.939167939617214,-2.032677209472656,0.3184288208007812,9.516951599121093,8.32824427480916,-4.030534351145038,-0.48854961832061067,51.3087890625,40.9248046875,-52.7056640625,
1749747158.8932393,2025-06-12 23:52:38.893,34.61008775870848,-1.9991583862304687,0.3280056274414062,9.552864624023437,8.16793893129771,-2.045801526717557,-0.33587786259541985,53.0841796875,40.5673828125,-53.0490234375,
1749747158.9090843,2025-06-12 23:52:38.909,34.08293647227963,-2.013523596191406,0.3184288208007812,9.488221179199218,8.381679389312977,-3.763358778625954,-0.3893129770992366,52.7291015625,40.9248046875,-52.3623046875,
1749747158.9234831,2025-06-12 23:52:38.923,34.514242070266874,-1.8818425048828125,0.15562310791015624,9.497797985839844,8.351145038167939,-5.862595419847328,-0.31297709923664124,52.906640625,40.388671875,-51.50390625,38.409857021409486
1749747158.9426217,2025-06-12 23:52:38.942,33.459939497409174,-2.0063409912109376,0.316034619140625,9.447519750976562,8.221374045801527,-4.290076335877862,-0.648854961832061,51.663867187499996,42.3544921875,-52.3623046875,
1749747158.9573038,2025-06-12 23:52:38.957,33.939167939617214,-2.032677209472656,0.16519991455078123,9.507374792480467,8.32824427480916,-5.824427480916031,-0.3511450381679389,54.326953124999996,41.103515625,-52.190625,
1749747158.971381,2025-06-12 23:52:38.971,34.03501362805883,-2.1404162841796874,0.316034619140625,9.502586389160156,8.312977099236642,-5.862595419847328,-0.6641221374045801,51.486328125,41.4609375,-53.907421875,
1749747158.9856899,2025-06-12 23:52:38.985,33.891245095396414,-2.020706201171875,0.3016694091796875,9.545682019042967,8.229007633587786,-4.076335877862595,-0.37404580152671757,51.663867187499996,41.9970703125,-53.392382812499996,
1749747158.9999368,2025-06-12 23:52:38.999,34.65801060292928,-2.0302830078125,0.3327940307617187,9.445125549316407,8.274809160305344,-4.137404580152672,-0.16793893129770993,51.486328125,42.17578125,-52.87734375,
1749747159.0157332,2025-06-12 23:52:39.015,34.514242070266874,-1.9943699829101562,0.2920926025390625,9.543287817382812,7.984732824427481,-3.9770992366412212,-0.17557251908396945,53.0841796875,41.2822265625,-52.7056640625,
1749747159.0302117,2025-06-12 23:52:39.030,34.46631922604607,-2.118868469238281,0.27293898925781246,9.356540087890625,8.198473282442748,-3.6946564885496183,-0.2595419847328244,52.0189453125,41.9970703125,-53.392382812499996,
1749747159.0444272,2025-06-12 23:52:39.044,33.939167939617214,-1.9943699829101562,0.3280056274414062,9.507374792480467,8.404580152671755,-3.9083969465648853,-0.1984732824427481,54.8595703125,41.6396484375,-52.3623046875,38.486241012677255
1749747159.0627964,2025-06-12 23:52:39.062,33.939167939617214,-2.001552587890625,0.3280056274414062,9.457096557617186,8.206106870229007,-3.5877862595419847,-0.3053435114503817,52.906640625,39.673828125,-53.907421875,37.29191462595457
1749747159.082561,2025-06-12 23:52:39.082,33.65163087429239,-2.042254016113281,0.3016694091796875,9.363722692871093,8.267175572519085,-3.6946564885496183,-0.4198473282442748,51.663867187499996,39.4951171875,-53.0490234375,
1749747159.096769,2025-06-12 23:52:39.096,33.26824812052595,-2.059013427734375,0.354341845703125,9.5384994140625,8.374045801526718,-4.145038167938932,-0.4122137404580153,52.0189453125,41.6396484375,-53.392382812499996,
1749747159.1108823,2025-06-12 23:52:39.110,33.41201665318837,-2.003946789550781,0.3399766357421875,9.409212524414063,8.374045801526718,-3.954198473282443,-0.33587786259541985,54.5044921875,41.6396484375,-53.7357421875,
1749747159.1250288,2025-06-12 23:52:39.125,34.65801060292928,-1.848323681640625,0.44053310546874996,9.53131680908203,8.282442748091603,-3.9923664122137406,-0.5190839694656488,53.971875,41.103515625,-54.594140625,
1749747159.1429927,2025-06-12 23:52:39.142,33.26824812052595,-2.0781670410156248,0.45010991210937495,9.619902270507811,8.526717557251908,-3.885496183206107,-0.8549618320610687,53.616796875,40.74609375,-52.87734375,
1749747159.1577842,2025-06-12 23:52:39.157,34.70593344715009,-2.0302830078125,0.3184288208007812,9.636661682128906,8.16793893129771,-3.6564885496183206,-0.3511450381679389,51.663867187499996,40.2099609375,-52.0189453125,
1749747159.176439,2025-06-12 23:52:39.176,33.747476562734,-2.01112939453125,0.33039982910156246,9.521740002441407,8.259541984732824,-2.015267175572519,-0.26717557251908397,53.439257812499996,40.9248046875,-52.3623046875,
1749747159.190829,2025-06-12 23:52:39.190,33.84332225117561,-2.0542250244140625,0.3136404174804687,9.550470422363281,8.51908396946565,-3.717557251908397,-0.48854961832061067,53.0841796875,41.2822265625,-53.0490234375,
1749747159.2047703,2025-06-12 23:52:39.204,33.31617096474676,-1.9871873779296874,0.316034619140625,9.351751684570312,8.251908396946565,-3.9083969465648853,-0.48854961832061067,51.84140625,42.890625,-53.907421875,37.1406381705651
1749747159.2228842,2025-06-12 23:52:39.222,33.26824812052595,-2.0183119995117185,0.3184288208007812,9.507374792480467,8.320610687022901,-4.145038167938932,-0.5954198473282443,53.0841796875,41.9970703125,-52.7056640625,
1749747159.2371895,2025-06-12 23:52:39.237,33.41201665318837,-2.0446482177734375,0.2705447875976562,9.370905297851563,8.13740458015267,-3.7938931297709924,0.0,53.439257812499996,43.0693359375,-54.0791015625,
1749747159.2535145,2025-06-12 23:52:39.253,34.61008775870848,-2.0278888061523435,0.30406361083984373,9.512163195800781,8.274809160305344,-3.9160305343511452,-0.2900763358778626,53.0841796875,40.5673828125,-53.7357421875,
1749747159.2679427,2025-06-12 23:52:39.267,34.61008775870848,-2.0254946044921875,0.16519991455078123,9.524134204101562,8.145038167938932,-3.7709923664122136,-0.1297709923664122,53.971875,42.890625,-52.87734375,
1749747159.2821949,2025-06-12 23:52:39.282,34.46631922604607,-2.023100402832031,0.16519991455078123,9.423577734375,8.297709923664122,-3.9923664122137406,-0.10687022900763359,51.84140625,41.4609375,-51.50390625,
1749747159.296514,2025-06-12 23:52:39.296,34.70593344715009,-1.9895815795898437,0.3232172241210937,9.53131680908203,8.427480916030534,-4.099236641221374,-0.20610687022900764,53.7943359375,39.8525390625,-52.3623046875,
1749747159.3105924,2025-06-12 23:52:39.310,34.46631922604607,-2.0278888061523435,0.1867477294921875,9.643844287109374,8.236641221374045,-5.732824427480916,-0.3969465648854962,51.663867187499996,40.9248046875,-53.392382812499996,
1749747159.3246975,2025-06-12 23:52:39.324,34.70593344715009,-1.9895815795898437,0.4525041137695312,9.512163195800781,8.290076335877863,-4.213740458015267,-0.366412213740458,53.26171875,41.818359375,-54.250781249999996,
1749747159.3386307,2025-06-12 23:52:39.338,33.939167939617214,-2.020706201171875,0.4572925170898437,9.449913952636718,8.419847328244275,-4.1603053435114505,-0.29770992366412213,52.551562499999996,41.818359375,-53.220703125,
1749747159.353239,2025-06-12 23:52:39.353,33.31617096474676,-2.0159177978515626,0.3184288208007812,9.394847314453125,7.9465648854961835,-5.702290076335878,-0.3969465648854962,52.906640625,41.103515625,-55.280859375,38.11091648720243
1749747159.3737462,2025-06-12 23:52:39.373,33.84332225117561,-2.01112939453125,0.3184288208007812,9.370905297851563,8.221374045801527,-3.900763358778626,-0.5801526717557252,52.7291015625,41.2822265625,-53.392382812499996,
1749747159.3878953,2025-06-12 23:52:39.387,34.322550693383654,-2.020706201171875,0.3327940307617187,9.591171850585937,8.129770992366412,-3.900763358778626,-0.1450381679389313,53.7943359375,41.6396484375,-52.7056640625,
1749747159.4020116,2025-06-12 23:52:39.402,33.26824812052595,-2.001552587890625,0.29927520751953124,9.509768994140625,8.282442748091603,-5.862595419847328,-0.16030534351145037,52.0189453125,41.6396484375,-54.0791015625,
1749747159.415966,2025-06-12 23:52:39.415,34.46631922604607,-2.020706201171875,0.30885201416015623,9.516951599121093,8.183206106870228,-5.816793893129771,-0.3969465648854962,53.439257812499996,40.2099609375,-50.6455078125,
1749747159.4303384,2025-06-12 23:52:39.430,33.939167939617214,-2.133233679199219,0.4572925170898437,9.485826977539062,8.274809160305344,-3.6259541984732824,-0.31297709923664124,,,,37.601696408611375
1749747159.444407,2025-06-12 23:52:39.444,33.41201665318837,-1.8602946899414061,0.316034619140625,9.488221179199218,8.091603053435115,-4.015267175572519,-0.29770992366412213,52.0189453125,42.3544921875,-51.3322265625,
1749747159.459206,2025-06-12 23:52:39.459,33.891245095396414,-2.020706201171875,0.3112462158203125,9.562441430664062,8.106870229007633,-4.091603053435114,-0.13740458015267176,54.326953124999996,42.17578125,-52.533984374999996,
1749747159.475674,2025-06-12 23:52:39.475,33.939167939617214,-2.0254946044921875,0.3184288208007812,9.588777648925781,8.221374045801527,-4.114503816793893,-0.3435114503816794,51.84140625,41.103515625,-52.87734375,37.29840458321541
1749747159.4942188,2025-06-12 23:52:39.494,33.41201665318837,-2.0661960327148434,0.3232172241210937,9.478644372558593,8.404580152671755,-3.633587786259542,-0.3816793893129771,53.439257812499996,41.2822265625,-52.3623046875,
1749747159.5091405,2025-06-12 23:52:39.509,34.46631922604607,-2.0183119995117185,0.3184288208007812,9.555258825683593,8.053435114503817,-3.9618320610687023,-0.40458015267175573,52.3740234375,41.2822265625,-52.3623046875,
1749747159.523264,2025-06-12 23:52:39.523,33.939167939617214,-2.0183119995117185,0.3136404174804687,9.545682019042967,7.9541984732824424,-4.129770992366412,-0.3282442748091603,52.551562499999996,41.103515625,-52.533984374999996,
1749747159.5376709,2025-06-12 23:52:39.537,34.08293647227963,-1.9704279663085937,0.29448680419921874,9.548076220703125,8.282442748091603,-2.030534351145038,-0.3053435114503817,52.906640625,42.533203125,-54.250781249999996,
1749747159.5520499,2025-06-12 23:52:39.552,33.891245095396414,-1.867477294921875,0.3136404174804687,9.557653027343749,8.419847328244275,-4.114503816793893,-0.13740458015267176,52.551562499999996,42.533203125,-53.220703125,
1749747159.5662286,2025-06-12 23:52:39.566,34.03501362805883,-2.0374656127929685,0.296881005859375,9.509768994140625,8.145038167938932,-5.824427480916031,-0.26717557251908397,52.7291015625,41.6396484375,-53.0490234375,38.77306707039583
1749747159.586398,2025-06-12 23:52:39.586,33.891245095396414,-2.04943662109375,0.16280571289062498,9.536105212402344,8.183206106870228,-4.0,-0.32061068702290074,52.551562499999996,40.388671875,-52.87734375,38.030950554544276
1749747159.60469,2025-06-12 23:52:39.604,33.31617096474676,-2.032677209472656,0.2753331909179687,9.409212524414063,8.236641221374045,-4.259541984732825,-0.3816793893129771,52.0189453125,39.8525390625,-54.4224609375,
1749747159.6188848,2025-06-12 23:52:39.618,33.747476562734,-2.042254016113281,0.316034619140625,9.490615380859374,8.412213740458014,-4.076335877862595,-0.7099236641221374,52.0189453125,41.6396484375,-52.7056640625,
1749747159.6335187,2025-06-12 23:52:39.633,34.61008775870848,-2.0063409912109376,0.30406361083984373,9.528922607421874,8.16793893129771,-4.183206106870229,-0.4122137404580153,51.84140625,41.4609375,-53.907421875,
1749747159.6479924,2025-06-12 23:52:39.647,34.08293647227963,-2.001552587890625,0.28490999755859375,9.557653027343749,8.32824427480916,-4.137404580152672,-0.6870229007633588,53.26171875,40.388671875,-51.847265625,
1749747159.6624024,2025-06-12 23:52:39.662,34.03501362805883,-1.9919757812499999,0.30885201416015623,9.562441430664062,8.198473282442748,-2.0076335877862594,-0.37404580152671757,53.0841796875,41.9970703125,-54.0791015625,
1749747159.6768835,2025-06-12 23:52:39.676,34.65801060292928,-2.0183119995117185,0.3064578125,9.514557397460937,8.335877862595419,-4.091603053435114,-0.37404580152671757,52.3740234375,41.2822265625,-53.0490234375,37.17325436190571
1749747159.6974697,2025-06-12 23:52:39.697,34.61008775870848,-2.032677209472656,0.33039982910156246,9.516951599121093,8.091603053435115,-4.190839694656488,-0.40458015267175573,53.7943359375,40.9248046875,-52.7056640625,
1749747159.7121093,2025-06-12 23:52:39.712,33.55578518585078,-2.0374656127929685,0.32082302246093747,9.583989245605467,8.450381679389313,-5.8320610687022905,-0.3511450381679389,52.906640625,40.388671875,-51.847265625,
1749747159.7263641,2025-06-12 23:52:39.726,33.891245095396414,-2.068590234375,0.3280056274414062,9.524134204101562,8.50381679389313,-4.061068702290076,-0.22900763358778625,52.3740234375,42.3544921875,-54.7658203125,
1749747159.7430131,2025-06-12 23:52:39.743,34.65801060292928,-2.0781670410156248,0.3016694091796875,9.603142858886718,8.083969465648854,-4.030534351145038,-0.549618320610687,53.616796875,40.74609375,-52.87734375,
1749747159.757952,2025-06-12 23:52:39.757,34.65801060292928,-2.0087351928710935,0.35673604736328124,9.557653027343749,8.122137404580153,-4.145038167938932,-0.3282442748091603,53.7943359375,41.2822265625,-52.7056640625,
1749747159.7725174,2025-06-12 23:52:39.772,33.939167939617214,-2.0829554443359375,0.29448680419921874,9.490615380859374,8.305343511450381,-2.053435114503817,-0.35877862595419846,53.439257812499996,40.5673828125,-54.4224609375,
1749747159.787601,2025-06-12 23:52:39.787,33.891245095396414,-2.0159177978515626,0.3327940307617187,9.358934289550781,8.061068702290076,-4.0,-0.33587786259541985,52.551562499999996,41.103515625,-53.220703125,39.07629463394732
1749747159.8053806,2025-06-12 23:52:39.805,33.31617096474676,-2.0638018310546875,0.3016694091796875,9.564835632324218,8.351145038167939,-4.106870229007634,-0.40458015267175573,52.906640625,41.103515625,-53.220703125,
1749747159.8221006,2025-06-12 23:52:39.822,34.70593344715009,-2.001552587890625,0.2753331909179687,9.447519750976562,8.206106870229007,-4.0,-0.5343511450381679,52.196484375,42.533203125,-51.50390625,
1749747159.8364706,2025-06-12 23:52:39.836,34.03501362805883,-2.013523596191406,0.40940848388671874,9.641450085449218,8.358778625954198,-3.816793893129771,-0.6412213740458015,53.971875,40.388671875,-52.190625,
1749747159.8506844,2025-06-12 23:52:39.850,34.65801060292928,-2.020706201171875,0.4477157104492187,9.53131680908203,8.572519083969466,-4.038167938931298,-0.3969465648854962,51.84140625,41.103515625,-51.50390625,
1749747159.8654995,2025-06-12 23:52:39.865,33.84332225117561,-1.8555062866210936,0.17477672119140625,9.560047229003906,8.366412213740459,-3.7480916030534353,-0.13740458015267176,52.551562499999996,42.17578125,-53.220703125,
1749747159.8796132,2025-06-12 23:52:39.879,34.03501362805883,-2.0278888061523435,0.3280056274414062,9.488221179199218,8.351145038167939,-4.129770992366412,-0.15267175572519084,53.439257812499996,42.3544921875,-53.7357421875,
1749747159.8936937,2025-06-12 23:52:39.893,33.891245095396414,-2.0733786376953125,0.29448680419921874,9.49300958251953,8.16030534351145,-4.2748091603053435,-0.3816793893129771,53.0841796875,42.7119140625,-53.0490234375,
1749747159.9077506,2025-06-12 23:52:39.907,33.891245095396414,-2.0063409912109376,0.3136404174804687,9.627084875488281,8.32824427480916,-4.312977099236641,-0.3053435114503817,51.663867187499996,41.6396484375,-53.392382812499996,38.05780485546051
1749747159.9271567,2025-06-12 23:52:39.927,33.31617096474676,-2.042254016113281,0.32082302246093747,9.516951599121093,8.068702290076336,-3.786259541984733,-0.46564885496183206,52.7291015625,41.6396484375,-53.7357421875,
1749747159.9416978,2025-06-12 23:52:39.941,33.26824812052595,-1.9704279663085937,0.30885201416015623,9.536105212402344,8.129770992366412,-5.847328244274809,-0.20610687022900764,52.0189453125,41.2822265625,-53.0490234375,
1749747159.9558625,2025-06-12 23:52:39.955,33.699553718513194,-2.0063409912109376,0.2753331909179687,9.495403784179686,8.396946564885496,-5.824427480916031,-0.4198473282442748,52.3740234375,40.5673828125,-52.0189453125,
1749747159.9701333,2025-06-12 23:52:39.970,34.70593344715009,-2.1356278808593747,0.35194764404296874,9.564835632324218,8.381679389312977,-4.221374045801527,-0.1984732824427481,52.551562499999996,41.103515625,-53.5640625,
1749747159.984174,2025-06-12 23:52:39.984,33.26824812052595,-2.0302830078125,0.20829554443359374,9.543287817382812,8.335877862595419,-5.847328244274809,-0.3435114503816794,52.196484375,42.533203125,-52.190625,
1749747159.998336,2025-06-12 23:52:39.998,34.65801060292928,-1.9847931762695312,0.3232172241210937,9.581595043945311,8.083969465648854,-5.862595419847328,-0.29770992366412213,53.616796875,39.673828125,-53.220703125,38.0844594301796
1749747160.0164912,2025-06-12 23:52:40.016,33.891245095396414,-2.023100402832031,0.28730419921875,9.516951599121093,8.458015267175572,-4.083969465648855,-0.5114503816793893,54.1494140625,41.2822265625,-52.7056640625,
1749747160.0308607,2025-06-12 23:52:40.030,33.891245095396414,-2.0350714111328125,0.45489831542968745,9.521740002441407,8.244274809160306,-4.106870229007634,-0.3893129770992366,53.26171875,42.17578125,-53.220703125,
1749747160.049368,2025-06-12 23:52:40.049,33.41201665318837,-2.0350714111328125,0.28730419921875,9.507374792480467,8.305343511450381,-3.6717557251908395,-0.6106870229007634,52.551562499999996,39.673828125,-52.190625,
1749747160.0660393,2025-06-12 23:52:40.066,34.03501362805883,-1.9991583862304687,0.18435352783203124,9.452308154296874,8.389312977099237,-4.015267175572519,-0.549618320610687,54.326953124999996,40.388671875,-52.87734375,
1749747160.0835872,2025-06-12 23:52:40.083,33.41201665318837,-2.0542250244140625,0.15322890625,9.37808790283203,8.198473282442748,-3.7938931297709924,-0.2900763358778626,52.7291015625,40.9248046875,-52.0189453125,
1749747160.0987995,2025-06-12 23:52:40.098,33.891245095396414,-1.8531120849609375,0.316034619140625,9.473855969238281,8.213740458015268,-3.946564885496183,-0.4351145038167939,52.906640625,40.74609375,-52.190625,36.617074055559996
1749747160.1166224,2025-06-12 23:52:40.116,33.26824812052595,-1.9871873779296874,0.2609679809570312,9.504980590820312,8.076335877862595,-5.816793893129771,-0.6335877862595419,51.13125,40.74609375,-51.50390625,
1749747160.1386998,2025-06-12 23:52:40.138,33.31617096474676,-1.8698714965820311,0.3232172241210937,9.516951599121093,8.16030534351145,-4.190839694656488,-0.32061068702290074,53.0841796875,41.6396484375,-54.0791015625,
1749747160.1521068,2025-06-12 23:52:40.152,33.891245095396414,-2.0183119995117185,0.3232172241210937,9.528922607421874,8.221374045801527,-4.106870229007634,-0.6946564885496184,52.3740234375,41.9970703125,-53.0490234375,
1749747160.164805,2025-06-12 23:52:40.164,34.17878216072124,-1.9871873779296874,0.3447650390625,9.485826977539062,8.282442748091603,-3.8473282442748094,-0.732824427480916,53.0841796875,42.3544921875,-53.0490234375,
1749747160.186868,2025-06-12 23:52:40.186,34.17878216072124,-2.032677209472656,0.32561142578124996,9.4618849609375,8.427480916030534,-4.076335877862595,-0.2595419847328244,51.3087890625,41.2822265625,-53.392382812499996,
1749747160.2020407,2025-06-12 23:52:40.202,34.03501362805883,-2.020706201171875,0.3399766357421875,9.543287817382812,8.213740458015268,-3.877862595419847,-0.6259541984732825,52.906640625,39.673828125,-53.220703125,
1749747160.2161534,2025-06-12 23:52:40.216,34.70593344715009,-2.0781670410156248,0.2920926025390625,9.545682019042967,8.16030534351145,-3.9618320610687023,-0.183206106870229,53.0841796875,39.8525390625,-52.3623046875,
1749747160.234595,2025-06-12 23:52:40.234,33.41201665318837,-2.061407629394531,0.29448680419921874,9.464279162597656,8.412213740458014,-3.885496183206107,-0.4122137404580153,51.13125,40.74609375,-53.907421875,
1749747160.2482283,2025-06-12 23:52:40.248,34.61008775870848,-2.023100402832031,0.3327940307617187,9.507374792480467,8.16030534351145,-3.8091603053435112,1.9312977099236641,52.3740234375,39.4951171875,-53.7357421875,
1749747160.261275,2025-06-12 23:52:40.261,33.939167939617214,-2.0254946044921875,0.3136404174804687,9.581595043945311,8.389312977099237,-3.7404580152671754,-0.35877862595419846,52.0189453125,41.2822265625,-52.7056640625,
1749747160.27379,2025-06-12 23:52:40.273,34.70593344715009,-2.003946789550781,0.33039982910156246,9.521740002441407,8.381679389312977,-3.969465648854962,-0.16030534351145037,,,,
1749747160.2838864,2025-06-12 23:52:40.283,33.50786234162997,-2.003946789550781,0.45010991210937495,9.56962403564453,8.564885496183207,-5.770992366412214,-0.2366412213740458,53.439257812499996,40.2099609375,-53.7357421875,
1749747160.296659,2025-06-12 23:52:40.296,34.03501362805883,-2.0278888061523435,0.16280571289062498,9.574412438964844,7.961832061068702,-3.854961832061069,-0.22137404580152673,52.7291015625,40.5673828125,-52.7056640625,
1749747160.3098009,2025-06-12 23:52:40.309,33.31617096474676,-2.020706201171875,0.181959326171875,9.524134204101562,8.030534351145038,-3.7557251908396947,-1.8931297709923665,52.7291015625,41.2822265625,-53.392382812499996,
1749747160.3229816,2025-06-12 23:52:40.322,33.26824812052595,-2.032677209472656,0.36391865234375,9.481038574218749,8.068702290076336,-2.0610687022900764,-0.3053435114503817,53.26171875,40.74609375,-51.847265625,
1749747160.3435168,2025-06-12 23:52:40.343,34.70593344715009,-2.023100402832031,0.2920926025390625,9.516951599121093,8.229007633587786,-4.030534351145038,-0.3435114503816794,53.26171875,41.4609375,-54.594140625,
1749747160.3615425,2025-06-12 23:52:40.361,34.08293647227963,-1.9656395629882812,0.277727392578125,9.550470422363281,8.213740458015268,-3.984732824427481,-0.5267175572519084,52.906640625,42.17578125,-51.847265625,
1749747160.3771386,2025-06-12 23:52:40.377,34.08293647227963,-2.001552587890625,0.16041151123046873,9.490615380859374,8.305343511450381,-2.0381679389312977,-0.5267175572519084,53.0841796875,39.1376953125,-53.392382812499996,
1749747160.390667,2025-06-12 23:52:40.390,33.891245095396414,-1.9752163696289062,0.28969840087890625,9.526528405761718,8.541984732824428,-3.969465648854962,-0.2595419847328244,52.906640625,41.4609375,-52.87734375,38.0844594301796
1749747160.4077923,2025-06-12 23:52:40.407,34.03501362805883,-2.013523596191406,0.36631285400390623,9.349357482910156,8.17557251908397,-4.190839694656488,-0.3053435114503817,52.196484375,40.74609375,-53.5640625,
1749747160.4219818,2025-06-12 23:52:40.421,33.26824812052595,-2.020706201171875,0.33518823242187495,9.552864624023437,8.183206106870228,-3.8625954198473282,-0.32061068702290074,52.3740234375,41.9970703125,-53.7357421875,
1749747160.4367425,2025-06-12 23:52:40.436,33.26824812052595,-1.85790048828125,0.35194764404296874,9.636661682128906,8.114503816793894,-3.6259541984732824,-0.1297709923664122,53.7943359375,42.7119140625,-52.7056640625,
1749747160.4507136,2025-06-12 23:52:40.450,33.26824812052595,-2.0183119995117185,0.4285620971679687,9.540893615722656,8.412213740458014,-4.0,-0.2748091603053435,52.0189453125,41.9970703125,-53.0490234375,39.15292269995489
1749747160.4679315,2025-06-12 23:52:40.467,33.891245095396414,-2.0278888061523435,0.258573779296875,9.533711010742186,8.19083969465649,-4.175572519083969,-0.21374045801526717,52.196484375,41.818359375,-50.817187499999996,
1749747160.4850993,2025-06-12 23:52:40.485,34.65801060292928,-2.0159177978515626,0.277727392578125,9.516951599121093,8.007633587786259,-2.030534351145038,-0.19083969465648856,53.0841796875,40.9248046875,-52.7056640625,
1749747160.4988487,2025-06-12 23:52:40.498,34.03501362805883,-1.9991583862304687,0.3016694091796875,9.519345800781249,8.16030534351145,-4.083969465648855,-0.31297709923664124,52.0189453125,40.9248046875,-53.0490234375,
1749747160.5125592,2025-06-12 23:52:40.512,33.84332225117561,-2.0302830078125,0.1580173095703125,9.483432775878907,8.145038167938932,-4.290076335877862,-0.5114503816793893,54.1494140625,41.2822265625,-52.7056640625,
1749747160.5259626,2025-06-12 23:52:40.525,34.65801060292928,-2.023100402832031,0.3232172241210937,9.509768994140625,8.282442748091603,-3.9923664122137406,-0.3816793893129771,53.26171875,42.533203125,-53.220703125,
1749747160.5390382,2025-06-12 23:52:40.539,33.939167939617214,-2.04943662109375,0.36631285400390623,9.5001921875,8.17557251908397,-4.0534351145038165,-0.32061068702290074,53.0841796875,42.3544921875,-52.0189453125,
1749747160.553081,2025-06-12 23:52:40.553,33.891245095396414,-2.0350714111328125,0.35673604736328124,9.471461767578125,8.450381679389313,-4.213740458015267,-1.9465648854961832,51.84140625,41.4609375,-53.907421875,
1749747160.5668168,2025-06-12 23:52:40.566,34.61008775870848,-2.0087351928710935,0.3591302490234375,9.588777648925781,7.99236641221374,-3.687022900763359,-0.1984732824427481,52.196484375,40.74609375,-52.533984374999996,
1749747160.5801804,2025-06-12 23:52:40.580,33.31617096474676,-1.9871873779296874,0.30885201416015623,9.516951599121093,8.374045801526718,-3.9770992366412212,-0.46564885496183206,51.84140625,40.388671875,-52.87734375,
1749747160.5938823,2025-06-12 23:52:40.593,34.70593344715009,-1.9895815795898437,0.2537853759765625,9.524134204101562,8.305343511450381,-4.083969465648855,-0.4580152671755725,52.3740234375,42.7119140625,-52.7056640625,
1749747160.609366,2025-06-12 23:52:40.609,33.84332225117561,-1.8459294799804686,0.26815058593749996,9.521740002441407,8.458015267175572,-3.8244274809160306,-0.3053435114503817,52.551562499999996,41.4609375,-52.87734375,
1749747160.622707,2025-06-12 23:52:40.622,34.70593344715009,-2.01112939453125,0.2705447875976562,9.521740002441407,8.229007633587786,-4.0458015267175576,-0.5419847328244275,52.906640625,40.388671875,-52.87734375,
1749747160.6362455,2025-06-12 23:52:40.636,34.514242070266874,-2.032677209472656,0.29927520751953124,9.552864624023437,8.206106870229007,-3.83206106870229,-0.5877862595419847,52.7291015625,40.9248046875,-54.7658203125,
1749747160.6497068,2025-06-12 23:52:40.649,34.65801060292928,-2.0733786376953125,0.316034619140625,9.495403784179686,8.381679389312977,-3.984732824427481,-0.44274809160305345,53.7943359375,41.6396484375,-54.0791015625,
1749747160.6633334,2025-06-12 23:52:40.663,34.322550693383654,-2.0661960327148434,0.33518823242187495,9.536105212402344,8.473282442748092,-4.297709923664122,-0.37404580152671757,52.3740234375,41.2822265625,-53.7357421875,
1749747160.6766992,2025-06-12 23:52:40.676,33.31617096474676,-2.051830822753906,0.3136404174804687,9.459490759277344,8.16030534351145,-4.152671755725191,-0.48854961832061067,52.3740234375,41.6396484375,-52.3623046875,
1749747160.6905682,2025-06-12 23:52:40.690,34.08293647227963,-2.0087351928710935,0.35194764404296874,9.433154541015625,8.213740458015268,-4.1679389312977095,-0.2748091603053435,50.5986328125,41.2822265625,-55.109179687499996,
1749747160.703897,2025-06-12 23:52:40.703,33.939167939617214,-2.0063409912109376,0.316034619140625,9.545682019042967,8.396946564885496,-4.221374045801527,-0.35877862595419846,51.663867187499996,40.9248046875,-53.392382812499996,
1749747160.7195084,2025-06-12 23:52:40.719,33.31617096474676,-1.9823989746093749,0.28969840087890625,9.361328491210937,8.221374045801527,-4.030534351145038,-0.6259541984732825,53.26171875,40.74609375,-53.907421875,
1749747160.7342174,2025-06-12 23:52:40.734,33.891245095396414,-1.9967641845703124,0.258573779296875,9.579200842285156,8.244274809160306,-4.022900763358779,-0.3893129770992366,53.439257812499996,41.9970703125,-53.0490234375,
1749747160.7489219,2025-06-12 23:52:40.748,33.31617096474676,-2.0183119995117185,0.2657563842773437,9.528922607421874,8.022900763358779,-4.076335877862595,-0.44274809160305345,52.0189453125,41.9970703125,-54.0791015625,
1749747160.7623801,2025-06-12 23:52:40.762,33.939167939617214,-2.0446482177734375,0.3112462158203125,9.536105212402344,8.374045801526718,-3.8625954198473282,-0.4198473282442748,52.0189453125,40.2099609375,-53.392382812499996,
1749747160.775017,2025-06-12 23:52:40.775,34.61008775870848,-2.013523596191406,0.33518823242187495,9.473855969238281,8.51908396946565,-4.206106870229007,-0.4961832061068702,52.906640625,41.818359375,-53.907421875,
1749747160.787714,2025-06-12 23:52:40.787,34.65801060292928,-2.051830822753906,0.3711012573242187,9.478644372558593,8.17557251908397,-3.9923664122137406,-0.3282442748091603,52.551562499999996,40.74609375,-53.907421875,
1749747160.8006961,2025-06-12 23:52:40.800,34.65801060292928,-1.8459294799804686,0.3950432739257812,9.373299499511718,8.366412213740459,-3.8396946564885495,-0.19083969465648856,53.439257812499996,41.6396484375,-52.7056640625,
1749747160.815248,2025-06-12 23:52:40.815,34.03501362805883,-2.01112939453125,0.32561142578124996,9.519345800781249,8.16793893129771,-5.816793893129771,-0.3816793893129771,53.26171875,41.103515625,-53.220703125,
1749747160.8315191,2025-06-12 23:52:40.831,34.65801060292928,-2.0087351928710935,0.2825157958984375,9.516951599121093,8.366412213740459,-1.984732824427481,-0.6335877862595419,50.776171874999996,39.673828125,-53.220703125,
1749747160.8457592,2025-06-12 23:52:40.845,34.03501362805883,-2.0278888061523435,0.4525041137695312,9.567229833984374,8.50381679389313,-5.854961832061068,-0.2748091603053435,53.616796875,40.74609375,-52.190625,
