timestamp_unix,timestamp_readable,temp_c,accel_x,accel_y,accel_z,gyro_x,gyro_y,gyro_z,mag_x,mag_y,mag_z,heading
1749737139.2446935,2025-06-12 21:05:39.244,31.6388714170186,-2.8754361938476563,0.5626373901367188,9.253589416503905,8.13740458015267,-3.717557251908397,-0.11450381679389313,73.501171875,48.966796875,-53.220703125,
1749737139.2590013,2025-06-12 21:05:39.259,31.447180040135382,-2.920926025390625,0.5363011718749999,9.306261853027344,8.068702290076336,-3.572519083969466,-0.2595419847328244,73.85625,48.966796875,-55.62421875,
1749737139.272766,2025-06-12 21:05:39.272,31.543025728576993,-3.0526071166992184,0.5793968017578125,9.3086560546875,8.244274809160306,-3.6030534351145036,-0.6564885496183206,71.37070312499999,50.0390625,-55.62421875,33.1914971654402
1749737139.290379,2025-06-12 21:05:39.290,32.16602270344745,-2.9089550170898435,0.5051765502929687,9.299079248046874,8.053435114503817,-3.7786259541984735,-0.17557251908396945,72.791015625,48.966796875,-54.594140625,
1749737139.3050923,2025-06-12 21:05:39.305,30.96795159792734,-2.882618798828125,0.5386953735351562,9.313444458007812,8.412213740458014,-5.793893129770993,-0.22137404580152673,73.14609374999999,50.0390625,-54.250781249999996,
1749737139.319491,2025-06-12 21:05:39.319,31.83056279390182,-2.8754361938476563,0.5315127685546874,9.361328491210937,8.259541984732824,-2.0229007633587788,-0.2824427480916031,72.6134765625,50.2177734375,-55.4525390625,
1749737139.3341656,2025-06-12 21:05:39.334,31.926408482343426,-2.9041666137695312,0.5363011718749999,9.289502441406249,8.198473282442748,-4.022900763358779,-0.3816793893129771,72.9685546875,48.4306640625,-54.7658203125,
1749737139.348468,2025-06-12 21:05:39.348,30.96795159792734,-3.047818713378906,0.5315127685546874,9.330203869628905,8.267175572519085,-4.1679389312977095,-0.5190839694656488,74.3888671875,50.5751953125,-54.4224609375,
1749737139.362707,2025-06-12 21:05:39.362,31.73471710546021,-2.863465185546875,0.5267243652343749,9.356540087890625,8.221374045801527,-3.572519083969466,-0.48091603053435117,75.631640625,48.609375,-55.280859375,
1749737139.3769443,2025-06-12 21:05:39.376,32.30979123610986,-2.7629087158203123,0.5267243652343749,9.354145886230468,7.984732824427481,-3.5877862595419847,-0.1297709923664122,74.211328125,49.32421875,-53.907421875,
1749737139.392579,2025-06-12 21:05:39.392,31.782639949681013,-2.913743420410156,0.5243301635742187,9.363722692871093,8.458015267175572,-3.816793893129771,-0.29770992366412213,72.080859375,49.681640625,-54.9375,
1749737139.4069715,2025-06-12 21:05:39.406,32.357714080330666,-2.923320227050781,0.5602431884765625,9.332598071289063,8.15267175572519,-3.946564885496183,-0.17557251908396945,74.3888671875,49.1455078125,-55.109179687499996,
1749737139.421351,2025-06-12 21:05:39.421,30.96795159792734,-2.882618798828125,0.5746083984375,9.356540087890625,8.19083969465649,-3.9923664122137406,-0.183206106870229,74.3888671875,49.1455078125,-55.7958984375,
1749737139.4358659,2025-06-12 21:05:39.435,30.96795159792734,-2.8107927490234372,0.5722141967773438,9.193734375,8.312977099236642,-3.7251908396946565,-0.05343511450381679,72.4359375,49.32421875,-54.594140625,
1749737139.4501514,2025-06-12 21:05:39.450,32.40563692455147,-2.8610709838867185,0.5386953735351562,9.351751684570312,8.022900763358779,-3.877862595419847,-0.29770992366412213,73.85625,48.609375,-54.9375,
1749737139.464424,2025-06-12 21:05:39.464,31.926408482343426,-2.8754361938476563,0.5626373901367188,9.334992272949219,8.106870229007633,-2.0381679389312977,-0.6946564885496184,72.9685546875,50.5751953125,-56.4826171875,
1749737139.4787335,2025-06-12 21:05:39.478,31.974331326564233,-2.901772412109375,0.5410895751953124,9.205705383300781,8.007633587786259,-3.7557251908396947,-0.06870229007633588,72.9685546875,50.5751953125,-53.392382812499996,
1749737139.4946783,2025-06-12 21:05:39.494,31.782639949681013,-2.8514941772460936,0.5267243652343749,9.334992272949219,7.916030534351145,-3.801526717557252,-0.1984732824427481,72.6134765625,50.9326171875,-55.7958984375,
1749737139.5093865,2025-06-12 21:05:39.509,31.73471710546021,-2.882618798828125,0.5482721801757812,9.3086560546875,8.34351145038168,-3.816793893129771,-0.2748091603053435,72.6134765625,50.5751953125,-55.109179687499996,
1749737139.5236666,2025-06-12 21:05:39.523,31.83056279390182,-2.8730419921875,0.565031591796875,9.33978067626953,8.267175572519085,-3.969465648854962,-0.1984732824427481,74.211328125,49.681640625,-54.594140625,
1749737139.5376987,2025-06-12 21:05:39.537,32.40563692455147,-2.8945898071289062,0.5458779785156249,9.334992272949219,8.061068702290076,-3.9236641221374047,-0.015267175572519083,71.9033203125,49.8603515625,-55.4525390625,
1749737139.5526605,2025-06-12 21:05:39.552,31.73471710546021,-2.8993782104492185,0.5458779785156249,9.320627062988281,8.221374045801527,-3.801526717557252,-0.1297709923664122,74.211328125,47.89453125,-55.62421875,
1749737139.566219,2025-06-12 21:05:39.566,31.83056279390182,-3.038241906738281,0.5770026000976562,9.325415466308593,8.335877862595419,-3.7480916030534353,-0.13740458015267176,73.6787109375,49.1455078125,-55.109179687499996,
1749737139.5794778,2025-06-12 21:05:39.579,31.782639949681013,-2.8850130004882812,0.5722141967773438,9.342174877929686,8.053435114503817,-4.099236641221374,-0.12213740458015267,73.85625,48.966796875,-53.5640625,
1749737139.59272,2025-06-12 21:05:39.592,32.30979123610986,-3.0526071166992184,0.5578489868164063,9.323021264648437,8.458015267175572,-3.633587786259542,-0.3053435114503817,72.4359375,50.396484375,-55.280859375,
1749737139.6069665,2025-06-12 21:05:39.606,31.926408482343426,-2.91134921875,0.5339069702148437,9.303867651367186,8.198473282442748,-3.7404580152671754,-0.0916030534351145,73.14609374999999,49.32421875,-53.5640625,
1749737139.6202185,2025-06-12 21:05:39.620,31.063797286368946,-2.89219560546875,0.5410895751953124,9.342174877929686,8.320610687022901,-4.015267175572519,-0.5114503816793893,74.211328125,49.32421875,-54.594140625,
1749737139.63336,2025-06-12 21:05:39.633,31.926408482343426,-2.7629087158203123,0.5458779785156249,9.294290844726563,8.19083969465649,-3.5877862595419847,-0.44274809160305345,73.85625,50.0390625,-54.250781249999996,
1749737139.6467247,2025-06-12 21:05:39.646,31.782639949681013,-2.8993782104492185,0.5722141967773438,9.356540087890625,7.938931297709924,-3.877862595419847,-0.21374045801526717,73.3236328125,49.1455078125,-55.4525390625,
1749737139.6601365,2025-06-12 21:05:39.660,31.974331326564233,-2.882618798828125,0.4908113403320312,9.495403784179686,8.15267175572519,-3.816793893129771,-0.17557251908396945,74.03378906249999,48.4306640625,-54.7658203125,
1749737139.6733742,2025-06-12 21:05:39.673,31.782639949681013,-2.8993782104492185,0.5626373901367188,9.363722692871093,8.17557251908397,-3.8625954198473282,-0.16030534351145037,73.501171875,49.32421875,-54.9375,
1749737139.6862614,2025-06-12 21:05:39.686,31.73471710546021,-2.8730419921875,0.5482721801757812,9.397241516113281,8.267175572519085,-3.6564885496183206,-0.3435114503816794,73.501171875,50.396484375,-55.967578124999996,
1749737139.6991265,2025-06-12 21:05:39.699,31.01587444214814,-2.916137622070312,0.5410895751953124,9.193734375,7.916030534351145,-3.7786259541984735,-0.2366412213740458,72.791015625,50.396484375,-54.594140625,
1749737139.7125888,2025-06-12 21:05:39.712,31.01587444214814,-2.8706477905273435,0.5291185668945312,9.313444458007812,8.236641221374045,-2.0229007633587788,-0.5877862595419847,73.6787109375,48.0732421875,-54.7658203125,
1749737139.7269573,2025-06-12 21:05:39.726,31.926408482343426,-2.844311572265625,0.5219359619140624,9.392453112792968,8.267175572519085,-3.6946564885496183,-0.15267175572519084,74.7439453125,50.2177734375,-54.7658203125,
1749737139.7398937,2025-06-12 21:05:39.739,31.974331326564233,-2.8610709838867185,0.5099649536132812,9.390058911132812,8.427480916030534,-5.854961832061068,-0.1984732824427481,71.1931640625,50.2177734375,-54.0791015625,
1749737139.7528653,2025-06-12 21:05:39.752,31.83056279390182,-2.906560815429687,0.5315127685546874,9.368511096191405,8.030534351145038,-3.648854961832061,-0.17557251908396945,74.92148437499999,51.111328125,-55.280859375,
1749737139.765622,2025-06-12 21:05:39.765,31.73471710546021,-2.85388837890625,0.5315127685546874,9.394847314453125,8.15267175572519,-3.5572519083969465,-0.22900763358778625,74.03378906249999,49.5029296875,-56.1392578125,33.73661671959357
1749737139.7820814,2025-06-12 21:05:39.782,31.974331326564233,-2.8514941772460936,0.55545478515625,9.196128576660156,8.198473282442748,-3.7557251908396947,-0.09923664122137404,71.72578125,50.0390625,-54.9375,
1749737139.7949977,2025-06-12 21:05:39.794,32.07017701500584,-2.8706477905273435,0.5363011718749999,9.332598071289063,7.99236641221374,-3.480916030534351,-0.030534351145038167,73.501171875,48.609375,-55.967578124999996,33.927942539712134
1749737139.81168,2025-06-12 21:05:39.811,31.974331326564233,-2.7653029174804686,0.5482721801757812,9.495403784179686,8.274809160305344,-3.3206106870229006,-0.1450381679389313,72.6134765625,51.2900390625,-56.1392578125,
1749737139.824432,2025-06-12 21:05:39.824,31.73471710546021,-2.9281086303710935,0.612915625,9.327809667968749,8.061068702290076,-3.648854961832061,0.0916030534351145,72.9685546875,49.1455078125,-54.7658203125,33.60610032796631
1749737139.8419256,2025-06-12 21:05:39.841,32.07017701500584,-2.93050283203125,0.59376201171875,9.490615380859374,8.221374045801527,-3.6030534351145036,-0.0916030534351145,71.9033203125,48.4306640625,-54.4224609375,
1749737139.8549082,2025-06-12 21:05:39.854,31.974331326564233,-2.9281086303710935,0.5698199951171875,9.323021264648437,8.221374045801527,-5.847328244274809,-0.5801526717557252,72.9685546875,49.5029296875,-54.7658203125,
1749737139.8680425,2025-06-12 21:05:39.868,31.974331326564233,-2.901772412109375,0.6057330200195312,9.296685046386719,7.931297709923665,-3.7786259541984735,-0.2366412213740458,74.03378906249999,49.1455078125,-54.4224609375,
1749737139.880886,2025-06-12 21:05:39.880,31.974331326564233,-2.858676782226562,0.5961562133789062,9.26316622314453,8.022900763358779,-3.50381679389313,-0.44274809160305345,73.501171875,48.609375,-54.9375,
1749737139.8936636,2025-06-12 21:05:39.893,31.83056279390182,-2.91134921875,0.5674257934570313,9.337386474609374,8.267175572519085,-3.6564885496183206,-0.2748091603053435,73.501171875,50.0390625,-56.99765625,
1749737139.9068024,2025-06-12 21:05:39.906,31.73471710546021,-2.8754361938476563,0.4644751220703125,9.294290844726563,8.053435114503817,-3.9083969465648853,-0.366412213740458,73.6787109375,49.1455078125,-54.4224609375,
1749737139.919589,2025-06-12 21:05:39.919,32.07017701500584,-2.9041666137695312,0.6057330200195312,9.330203869628905,7.9541984732824424,-3.7786259541984735,-0.08396946564885496,,,,33.225314800304744
1749737139.9323792,2025-06-12 21:05:39.932,31.73471710546021,-2.760514514160156,0.5817910034179687,9.327809667968749,8.038167938931299,-3.6030534351145036,-0.20610687022900764,71.9033203125,49.5029296875,-56.4826171875,
1749737139.946232,2025-06-12 21:05:39.946,31.782639949681013,-2.9041666137695312,0.4955997436523437,9.464279162597656,8.022900763358779,-3.5419847328244276,-0.05343511450381679,72.25839843749999,48.7880859375,-54.7658203125,33.70190878087962
1749737139.9627964,2025-06-12 21:05:39.962,31.782639949681013,-2.8850130004882812,0.5291185668945312,9.320627062988281,8.114503816793894,-3.7938931297709924,-0.44274809160305345,72.791015625,48.966796875,-54.250781249999996,
1749737139.9757247,2025-06-12 21:05:39.975,31.782639949681013,-2.8993782104492185,0.5315127685546874,9.303867651367186,8.213740458015268,-4.099236641221374,-0.366412213740458,74.03378906249999,48.7880859375,-54.7658203125,
1749737139.9885428,2025-06-12 21:05:39.988,31.974331326564233,-2.877830395507812,0.5099649536132812,9.30147344970703,8.290076335877863,-3.6412213740458017,-0.17557251908396945,73.14609374999999,49.32421875,-54.594140625,
1749737140.0013373,2025-06-12 21:05:40.001,32.07017701500584,-2.760514514160156,0.5315127685546874,9.387664709472656,8.106870229007633,-3.83206106870229,-0.5038167938931297,72.791015625,47.89453125,-53.907421875,
1749737140.0140364,2025-06-12 21:05:40.014,31.73471710546021,-2.81558115234375,0.5195417602539062,9.495403784179686,8.129770992366412,-3.9236641221374047,-0.366412213740458,73.501171875,47.89453125,-54.594140625,
1749737140.026863,2025-06-12 21:05:40.026,31.83056279390182,-2.9185318237304685,0.5219359619140624,9.356540087890625,8.267175572519085,-3.7786259541984735,-0.2748091603053435,74.211328125,49.681640625,-55.280859375,33.92887373794183
1749737140.0431437,2025-06-12 21:05:40.043,31.974331326564233,-2.9041666137695312,0.5626373901367188,9.3086560546875,8.297709923664122,-3.954198473282443,-0.22900763358778625,73.85625,48.251953125,-55.62421875,
1749737140.0571034,2025-06-12 21:05:40.057,31.974331326564233,-2.887407202148437,0.5602431884765625,9.358934289550781,8.213740458015268,-2.015267175572519,-0.03816793893129771,74.211328125,47.89453125,-54.594140625,
1749737140.0702453,2025-06-12 21:05:40.070,31.782639949681013,-2.916137622070312,0.5123591552734374,9.251195214843749,8.129770992366412,-3.687022900763359,-0.37404580152671757,,,,33.317813093691335
1749737140.0833359,2025-06-12 21:05:40.083,31.83056279390182,-2.89219560546875,0.5746083984375,9.351751684570312,8.274809160305344,-5.778625954198473,-0.2366412213740458,72.4359375,49.32421875,-55.62421875,
1749737140.0962088,2025-06-12 21:05:40.096,31.782639949681013,-2.896984008789062,0.5506663818359374,9.323021264648437,8.419847328244275,-3.717557251908397,-0.4580152671755725,74.211328125,49.32421875,-54.594140625,
1749737140.109132,2025-06-12 21:05:40.109,31.159642974810556,-2.9041666137695312,0.5770026000976562,9.406818322753905,8.083969465648854,-3.9618320610687023,-0.3893129770992366,73.501171875,49.681640625,-54.594140625,
1749737140.1218429,2025-06-12 21:05:40.121,32.16602270344745,-2.770091320800781,0.5434837768554687,9.354145886230468,8.045801526717558,-3.66412213740458,-0.3816793893129771,72.791015625,49.681640625,-55.280859375,
1749737140.1345613,2025-06-12 21:05:40.134,31.974331326564233,-2.8993782104492185,0.5434837768554687,9.370905297851563,8.297709923664122,-3.4580152671755724,-0.11450381679389313,74.92148437499999,48.609375,-55.280859375,
1749737140.1474378,2025-06-12 21:05:40.147,31.73471710546021,-2.863465185546875,0.5626373901367188,9.488221179199218,8.030534351145038,-3.4732824427480917,-0.46564885496183206,74.03378906249999,51.6474609375,-56.1392578125,
1749737140.1602857,2025-06-12 21:05:40.160,31.782639949681013,-2.9041666137695312,0.5243301635742187,9.402029919433593,7.9541984732824424,-3.66412213740458,-0.2595419847328244,71.37070312499999,48.251953125,-55.280859375,
1749737140.1741626,2025-06-12 21:05:40.174,31.974331326564233,-2.896984008789062,0.5506663818359374,9.299079248046874,8.351145038167939,-2.0229007633587788,-1.8625954198473282,71.72578125,49.681640625,-54.9375,
1749737140.18788,2025-06-12 21:05:40.187,31.926408482343426,-2.844311572265625,0.5458779785156249,9.306261853027344,8.290076335877863,-3.7022900763358777,-1.9541984732824427,74.92148437499999,50.0390625,-55.62421875,
1749737140.2014804,2025-06-12 21:05:40.201,32.07017701500584,-2.877830395507812,0.5434837768554687,9.495403784179686,8.244274809160306,-3.7251908396946565,-0.13740458015267176,74.56640625,48.609375,-56.3109375,
1749737140.2152631,2025-06-12 21:05:40.215,31.974331326564233,-2.906560815429687,0.565031591796875,9.196128576660156,8.259541984732824,-3.6106870229007635,-0.32061068702290074,74.03378906249999,49.1455078125,-54.0791015625,
1749737140.2289894,2025-06-12 21:05:40.228,31.83056279390182,-2.932897033691406,0.5530605834960938,9.428366137695312,8.335877862595419,-3.618320610687023,0.030534351145038167,73.85625,48.609375,-54.9375,
1749737140.242521,2025-06-12 21:05:40.242,31.782639949681013,-2.7629087158203123,0.5865794067382812,9.193734375,8.251908396946565,-3.6412213740458017,-0.6335877862595419,72.25839843749999,48.4306640625,-54.4224609375,
1749737140.2560763,2025-06-12 21:05:40.256,31.782639949681013,-2.9544448486328125,0.5865794067382812,9.397241516113281,8.091603053435115,-3.6030534351145036,-0.2900763358778626,73.6787109375,50.2177734375,-55.4525390625,
1749737140.2695503,2025-06-12 21:05:40.269,31.974331326564233,-2.916137622070312,0.5961562133789062,9.296685046386719,8.114503816793894,-3.3969465648854964,-0.13740458015267176,72.9685546875,48.7880859375,-55.7958984375,
1749737140.2838945,2025-06-12 21:05:40.283,32.07017701500584,-2.8754361938476563,0.584185205078125,9.334992272949219,8.007633587786259,-3.6259541984732824,-0.4198473282442748,73.501171875,50.396484375,-54.9375,
1749737140.296845,2025-06-12 21:05:40.296,31.782639949681013,-2.932897033691406,0.5698199951171875,9.241618408203124,7.977099236641221,-3.5877862595419847,-0.3969465648854962,73.85625,48.609375,-54.594140625,
1749737140.3097394,2025-06-12 21:05:40.309,31.974331326564233,-2.9544448486328125,0.5291185668945312,9.289502441406249,8.16793893129771,-3.5343511450381677,-0.1984732824427481,73.501171875,48.609375,-55.62421875,
1749737140.322637,2025-06-12 21:05:40.322,31.926408482343426,-2.8945898071289062,0.5793968017578125,9.279925634765624,7.931297709923665,-1.9770992366412214,-0.4122137404580153,72.9685546875,49.1455078125,-54.0791015625,
1749737140.3361495,2025-06-12 21:05:40.336,31.974331326564233,-2.91134921875,0.45968671875,9.303867651367186,8.17557251908397,-3.7099236641221376,-0.7022900763358778,74.3888671875,49.1455078125,-54.7658203125,
1749737140.34964,2025-06-12 21:05:40.349,31.926408482343426,-2.920926025390625,0.5722141967773438,9.344569079589844,8.076335877862595,-3.885496183206107,-0.3816793893129771,73.501171875,51.111328125,-54.594140625,
1749737140.3631768,2025-06-12 21:05:40.363,32.16602270344745,-2.8802245971679685,0.565031591796875,9.368511096191405,8.572519083969466,-3.7938931297709924,-0.17557251908396945,71.9033203125,49.1455078125,-54.7658203125,
1749737140.3769186,2025-06-12 21:05:40.376,32.07017701500584,-2.767697119140625,0.5506663818359374,9.49300958251953,8.129770992366412,-3.8396946564885495,-0.4198473282442748,72.080859375,49.32421875,-55.967578124999996,33.639003761113905
1749737140.395456,2025-06-12 21:05:40.395,31.974331326564233,-2.882618798828125,0.5339069702148437,9.330203869628905,8.251908396946565,-3.7709923664122136,-0.8320610687022901,72.4359375,50.0390625,-55.280859375,
1749737140.4086363,2025-06-12 21:05:40.408,32.16602270344745,-2.7653029174804686,0.5674257934570313,9.294290844726563,8.198473282442748,-5.854961832061068,-0.8015267175572519,73.14609374999999,50.0390625,-54.9375,
1749737140.421859,2025-06-12 21:05:40.421,31.974331326564233,-2.8730419921875,0.5219359619140624,9.30147344970703,8.145038167938932,-3.7709923664122136,-0.31297709923664124,,,,34.515435254435815
1749737140.4346893,2025-06-12 21:05:40.434,31.926408482343426,-2.901772412109375,0.5578489868164063,9.327809667968749,8.083969465648854,-1.9618320610687023,-0.3435114503816794,73.3236328125,48.4306640625,-55.7958984375,
1749737140.4473867,2025-06-12 21:05:40.447,31.974331326564233,-2.91134921875,0.4908113403320312,9.342174877929686,8.061068702290076,-3.6793893129770994,-0.22137404580152673,73.3236328125,49.8603515625,-55.4525390625,
1749737140.4602745,2025-06-12 21:05:40.460,31.974331326564233,-2.8945898071289062,0.5482721801757812,9.361328491210937,7.938931297709924,-4.068702290076335,-0.45038167938931295,73.3236328125,49.1455078125,-54.4224609375,
1749737140.473263,2025-06-12 21:05:40.473,32.16602270344745,-2.93050283203125,0.5339069702148437,9.294290844726563,8.236641221374045,-5.862595419847328,-0.24427480916030533,72.6134765625,48.4306640625,-55.109179687499996,
1749737140.486196,2025-06-12 21:05:40.486,31.782639949681013,-2.932897033691406,0.5410895751953124,9.330203869628905,7.984732824427481,-3.687022900763359,-0.2824427480916031,73.501171875,48.251953125,-54.250781249999996,
1749737140.5004923,2025-06-12 21:05:40.500,31.926408482343426,-2.952050646972656,0.5267243652343749,9.334992272949219,7.961832061068702,-3.6946564885496183,-0.33587786259541985,72.9685546875,49.1455078125,-55.4525390625,
1749737140.5154037,2025-06-12 21:05:40.515,31.926408482343426,-2.9185318237304685,0.51714755859375,9.279925634765624,8.236641221374045,-4.0458015267175576,-0.030534351145038167,73.14609374999999,49.32421875,-54.9375,
1749737140.5295458,2025-06-12 21:05:40.529,31.974331326564233,-2.923320227050781,0.4860229370117187,9.332598071289063,8.282442748091603,-4.183206106870229,-0.2366412213740458,72.25839843749999,47.7158203125,-56.825976562499996,
1749737140.5434878,2025-06-12 21:05:40.543,31.974331326564233,-2.9041666137695312,0.5051765502929687,9.334992272949219,8.083969465648854,-4.061068702290076,-0.3893129770992366,73.501171875,50.0390625,-54.9375,
1749737140.5572193,2025-06-12 21:05:40.557,32.07017701500584,-2.877830395507812,0.5770026000976562,9.296685046386719,8.244274809160306,-3.969465648854962,-0.3816793893129771,72.6134765625,48.7880859375,-54.4224609375,
1749737140.5704632,2025-06-12 21:05:40.570,31.926408482343426,-2.896984008789062,0.5865794067382812,9.313444458007812,8.374045801526718,-4.022900763358779,-0.3511450381679389,73.6787109375,48.7880859375,-54.4224609375,
1749737140.5842426,2025-06-12 21:05:40.584,31.926408482343426,-2.8993782104492185,0.59376201171875,9.337386474609374,7.916030534351145,-5.862595419847328,-0.061068702290076333,73.3236328125,49.1455078125,-54.4224609375,
1749737140.5980334,2025-06-12 21:05:40.598,31.974331326564233,-2.882618798828125,0.584185205078125,9.193734375,7.816793893129771,-3.786259541984733,-0.2366412213740458,72.4359375,49.681640625,-55.280859375,
1749737140.6130192,2025-06-12 21:05:40.613,31.926408482343426,-2.887407202148437,0.5578489868164063,9.34696328125,8.557251908396946,-3.877862595419847,-0.37404580152671757,72.4359375,50.0390625,-55.280859375,
1749737140.6275415,2025-06-12 21:05:40.627,32.07017701500584,-3.047818713378906,0.5626373901367188,9.373299499511718,8.358778625954198,-3.7786259541984735,-0.2366412213740458,72.9685546875,49.1455078125,-54.4224609375,
1749737140.641462,2025-06-12 21:05:40.641,32.30979123610986,-2.913743420410156,0.5626373901367188,9.411606726074218,7.969465648854962,-3.9770992366412212,-0.366412213740458,73.6787109375,49.8603515625,-54.4224609375,
1749737140.655084,2025-06-12 21:05:40.655,32.16602270344745,-2.925714428710937,0.5793968017578125,9.33978067626953,8.229007633587786,-4.190839694656488,-0.366412213740458,73.501171875,48.609375,-54.250781249999996,
1749737140.6685898,2025-06-12 21:05:40.668,32.16602270344745,-3.0454245117187497,0.5889736083984375,9.296685046386719,7.923664122137405,-3.732824427480916,-0.20610687022900764,72.4359375,49.681640625,-54.250781249999996,33.57301146368192
1749737140.686206,2025-06-12 21:05:40.686,31.926408482343426,-2.8802245971679685,0.5674257934570313,9.289502441406249,8.068702290076336,-2.1068702290076335,-0.3893129770992366,71.1931640625,48.4306640625,-56.1392578125,
1749737140.6998384,2025-06-12 21:05:40.699,32.26186839188906,-2.8706477905273435,0.5722141967773438,9.320627062988281,7.885496183206107,-2.030534351145038,-0.3053435114503817,73.3236328125,48.7880859375,-56.4826171875,
1749737140.7134442,2025-06-12 21:05:40.713,31.974331326564233,-2.8610709838867185,0.5195417602539062,9.37808790283203,7.977099236641221,-4.0458015267175576,-0.10687022900763359,73.14609374999999,49.681640625,-54.9375,
1749737140.7279942,2025-06-12 21:05:40.727,32.07017701500584,-2.8898014038085935,0.565031591796875,9.311050256347656,8.17557251908397,-4.00763358778626,-0.3053435114503817,73.3236328125,49.8603515625,-55.109179687499996,
1749737140.7417798,2025-06-12 21:05:40.741,32.16602270344745,-3.0550013183593747,0.5315127685546874,9.358934289550781,8.091603053435115,-4.0534351145038165,-0.48091603053435117,74.56640625,48.251953125,-55.62421875,
1749737140.755531,2025-06-12 21:05:40.755,32.07017701500584,-2.8993782104492185,0.5626373901367188,9.375693701171874,8.045801526717558,-3.717557251908397,-0.061068702290076333,73.501171875,49.681640625,-55.280859375,
1749737140.769171,2025-06-12 21:05:40.769,32.07017701500584,-2.913743420410156,0.5458779785156249,9.330203869628905,8.17557251908397,-3.9770992366412212,-0.4198473282442748,74.03378906249999,50.5751953125,-55.109179687499996,
1749737140.7822464,2025-06-12 21:05:40.782,31.926408482343426,-2.882618798828125,0.5482721801757812,9.198522778320312,7.977099236641221,-3.9770992366412212,-0.2824427480916031,73.14609374999999,47.89453125,-53.5640625,
1749737140.795121,2025-06-12 21:05:40.795,31.974331326564233,-2.868253588867187,0.5410895751953124,9.3852705078125,7.916030534351145,-5.847328244274809,-0.03816793893129771,75.2765625,48.966796875,-55.280859375,
1749737140.8079147,2025-06-12 21:05:40.807,32.07017701500584,-2.89219560546875,0.5434837768554687,9.26316622314453,8.312977099236642,-3.8396946564885495,-0.22137404580152673,71.1931640625,49.8603515625,-54.7658203125,
1749737140.8208892,2025-06-12 21:05:40.820,31.974331326564233,-2.91134921875,0.4836287353515625,9.342174877929686,9.755725190839694,-4.00763358778626,-0.25190839694656486,73.3236328125,49.5029296875,-55.109179687499996,
1749737140.8336413,2025-06-12 21:05:40.833,31.974331326564233,-2.8658593872070313,0.5578489868164063,9.37808790283203,8.213740458015268,-3.732824427480916,-0.1984732824427481,72.6134765625,49.8603515625,-54.4224609375,
1749737140.8476243,2025-06-12 21:05:40.847,31.926408482343426,-2.9089550170898435,0.5506663818359374,9.363722692871093,8.106870229007633,-1.9770992366412214,-0.20610687022900764,72.4359375,49.681640625,-55.280859375,
1749737140.860406,2025-06-12 21:05:40.860,32.26186839188906,-2.89219560546875,0.5770026000976562,9.409212524414063,8.16030534351145,-3.763358778625954,-0.35877862595419846,72.4359375,50.396484375,-56.3109375,33.544433728937655
1749737140.8767488,2025-06-12 21:05:40.876,32.118099859226646,-2.858676782226562,0.584185205078125,9.488221179199218,8.030534351145038,-3.8702290076335877,-0.16030534351145037,74.03378906249999,49.1455078125,-56.825976562499996,
1749737140.889692,2025-06-12 21:05:40.889,32.07017701500584,-2.868253588867187,0.6105214233398437,9.375693701171874,8.0,-5.824427480916031,-0.3435114503816794,71.9033203125,49.5029296875,-55.109179687499996,
1749737140.9023685,2025-06-12 21:05:40.902,31.974331326564233,-2.89219560546875,0.6057330200195312,9.342174877929686,8.114503816793894,-3.4656488549618323,-0.3282442748091603,73.501171875,49.32421875,-54.9375,
1749737140.9158633,2025-06-12 21:05:40.915,31.974331326564233,-2.85388837890625,0.584185205078125,9.476250170898437,8.15267175572519,-3.5801526717557253,-0.4732824427480916,73.14609374999999,49.681640625,-55.967578124999996,
1749737140.9294586,2025-06-12 21:05:40.929,31.974331326564233,-2.829946362304687,0.5267243652343749,9.337386474609374,8.099236641221374,-5.679389312977099,-0.183206106870229,74.03378906249999,50.5751953125,-54.0791015625,
1749737140.9430578,2025-06-12 21:05:40.943,32.07017701500584,-2.8514941772460936,0.5530605834960938,9.375693701171874,8.15267175572519,-3.6106870229007635,-0.48854961832061067,72.25839843749999,49.5029296875,-54.7658203125,
1749737140.957562,2025-06-12 21:05:40.957,31.83056279390182,-2.8562825805664063,0.5506663818359374,9.299079248046874,8.458015267175572,-3.7404580152671754,-0.183206106870229,74.56640625,48.966796875,-54.594140625,
1749737140.9710262,2025-06-12 21:05:40.971,31.39925719591458,-2.85388837890625,0.5363011718749999,9.320627062988281,8.01526717557252,-3.66412213740458,-0.183206106870229,71.9033203125,49.1455078125,-54.4224609375,
1749737140.9841795,2025-06-12 21:05:40.984,32.07017701500584,-2.916137622070312,0.5219359619140624,9.294290844726563,8.091603053435115,-3.763358778625954,-0.366412213740458,,,,
1749737140.9938939,2025-06-12 21:05:40.993,31.926408482343426,-3.047818713378906,0.5793968017578125,9.30147344970703,8.290076335877863,-3.5267175572519083,-0.25190839694656486,72.080859375,50.75390625,-55.62421875,
1749737141.0066562,2025-06-12 21:05:41.006,32.07017701500584,-2.7820623291015623,0.565031591796875,9.320627062988281,8.19083969465649,-3.427480916030534,-0.3282442748091603,72.6134765625,49.8603515625,-53.0490234375,
1749737141.020101,2025-06-12 21:05:41.020,32.07017701500584,-2.901772412109375,0.5434837768554687,9.34696328125,8.282442748091603,-3.50381679389313,-0.549618320610687,74.3888671875,49.8603515625,-55.4525390625,
1749737141.033494,2025-06-12 21:05:41.033,31.974331326564233,-2.8610709838867185,0.5195417602539062,9.313444458007812,8.183206106870228,-3.6946564885496183,-0.5267175572519084,72.9685546875,48.7880859375,-55.4525390625,
1749737141.0471365,2025-06-12 21:05:41.047,32.16602270344745,-2.8706477905273435,0.55545478515625,9.287108239746093,8.19083969465649,-4.030534351145038,-0.366412213740458,72.9685546875,49.5029296875,-54.0791015625,
1749737141.061714,2025-06-12 21:05:41.061,32.07017701500584,-2.901772412109375,0.5913678100585937,9.318232861328125,8.114503816793894,-1.9923664122137406,-0.3511450381679389,73.14609374999999,49.681640625,-56.3109375,
1749737141.0756545,2025-06-12 21:05:41.075,31.974331326564233,-2.858676782226562,0.5530605834960938,9.30147344970703,5.862595419847328,-3.9923664122137406,-0.45038167938931295,74.03378906249999,49.8603515625,-55.109179687499996,
1749737141.0892715,2025-06-12 21:05:41.089,32.118099859226646,-2.868253588867187,0.5027823486328125,9.299079248046874,8.114503816793894,-3.6946564885496183,-0.07633587786259542,72.25839843749999,49.8603515625,-56.4826171875,
1749737141.1026704,2025-06-12 21:05:41.102,31.974331326564233,-2.9041666137695312,0.51714755859375,9.320627062988281,8.19083969465649,-3.648854961832061,1.8854961832061068,71.9033203125,50.5751953125,-53.392382812499996,
1749737141.1162226,2025-06-12 21:05:41.116,32.30979123610986,-2.8802245971679685,0.5698199951171875,9.366116894531249,8.282442748091603,-4.00763358778626,-0.22900763358778625,74.03378906249999,49.1455078125,-55.4525390625,
1749737141.1297414,2025-06-12 21:05:41.129,32.07017701500584,-2.877830395507812,0.5243301635742187,9.200916979980468,8.335877862595419,-3.633587786259542,-0.25190839694656486,73.14609374999999,50.75390625,-55.280859375,
1749737141.1433122,2025-06-12 21:05:41.143,31.926408482343426,-2.760514514160156,0.5674257934570313,9.30147344970703,8.19083969465649,-1.9694656488549618,-0.007633587786259542,73.85625,49.32421875,-52.87734375,
1749737141.15676,2025-06-12 21:05:41.156,32.26186839188906,-2.868253588867187,0.5889736083984375,9.473855969238281,8.16030534351145,-3.9923664122137406,-0.26717557251908397,73.501171875,48.966796875,-54.250781249999996,
1749737141.1701918,2025-06-12 21:05:41.170,32.118099859226646,-2.9185318237304685,0.5267243652343749,9.320627062988281,8.236641221374045,-5.854961832061068,-0.25190839694656486,72.6134765625,49.5029296875,-56.1392578125,
1749737141.1850035,2025-06-12 21:05:41.185,31.974331326564233,-3.0597897216796874,0.565031591796875,9.387664709472656,8.198473282442748,-4.022900763358779,-0.3053435114503817,,,,33.511468256575284
1749737141.1986427,2025-06-12 21:05:41.198,31.974331326564233,-2.858676782226562,0.5770026000976562,9.193734375,8.183206106870228,-4.152671755725191,-0.22137404580152673,73.3236328125,49.5029296875,-54.4224609375,
1749737141.212179,2025-06-12 21:05:41.212,31.83056279390182,-2.896984008789062,0.5315127685546874,9.260772021484375,8.099236641221374,-3.885496183206107,-0.48854961832061067,73.14609374999999,49.32421875,-54.594140625,
1749737141.2256892,2025-06-12 21:05:41.225,31.926408482343426,-2.906560815429687,0.5770026000976562,9.303867651367186,8.145038167938932,-3.8625954198473282,-0.5114503816793893,73.501171875,48.609375,-54.9375,
1749737141.2393222,2025-06-12 21:05:41.239,31.974331326564233,-2.89219560546875,0.5363011718749999,9.303867651367186,8.091603053435115,-2.045801526717557,-0.48091603053435117,73.3236328125,50.5751953125,-55.109179687499996,
1749737141.2529154,2025-06-12 21:05:41.252,31.974331326564233,-3.0502129150390624,0.5506663818359374,9.366116894531249,8.49618320610687,-2.030534351145038,-0.29770992366412213,72.6134765625,49.1455078125,-55.109179687499996,
1749737141.2665374,2025-06-12 21:05:41.266,31.974331326564233,-2.863465185546875,0.5674257934570313,9.318232861328125,8.312977099236642,-3.8473282442748094,-0.22137404580152673,74.3888671875,49.5029296875,-55.7958984375,
1749737141.280237,2025-06-12 21:05:41.280,31.974331326564233,-2.9281086303710935,0.5410895751953124,9.244012609863281,8.34351145038168,-4.030534351145038,-0.20610687022900764,72.25839843749999,48.7880859375,-56.825976562499996,
1749737141.2948234,2025-06-12 21:05:41.294,32.07017701500584,-2.8945898071289062,0.5506663818359374,9.313444458007812,8.19083969465649,-1.9923664122137406,-0.2595419847328244,73.6787109375,50.2177734375,-54.0791015625,
1749737141.3087676,2025-06-12 21:05:41.308,31.974331326564233,-2.849099975585937,0.5578489868164063,9.282319836425781,7.824427480916031,-3.8931297709923665,-0.06870229007633588,73.14609374999999,50.0390625,-53.220703125,
1749737141.3222895,2025-06-12 21:05:41.322,32.30979123610986,-2.8993782104492185,0.5315127685546874,9.311050256347656,8.15267175572519,-2.030534351145038,-0.25190839694656486,71.37070312499999,50.396484375,-55.967578124999996,
1749737141.3357942,2025-06-12 21:05:41.335,31.974331326564233,-2.89219560546875,0.5339069702148437,9.334992272949219,7.908396946564886,-4.015267175572519,-0.32061068702290074,,,,34.34529762319471
1749737141.3493104,2025-06-12 21:05:41.349,32.118099859226646,-2.8945898071289062,0.5746083984375,9.368511096191405,7.99236641221374,-3.8473282442748094,-0.4122137404580153,73.3236328125,49.5029296875,-53.7357421875,
1749737141.3627477,2025-06-12 21:05:41.362,32.30979123610986,-2.85388837890625,0.5458779785156249,9.330203869628905,8.15267175572519,-1.9770992366412214,-0.13740458015267176,73.501171875,50.0390625,-55.280859375,
1749737141.3761735,2025-06-12 21:05:41.376,31.974331326564233,-2.91134921875,0.55545478515625,9.342174877929686,8.122137404580153,-3.9618320610687023,-1.916030534351145,73.14609374999999,49.681640625,-53.5640625,
1749737141.3898396,2025-06-12 21:05:41.389,32.26186839188906,-2.8945898071289062,0.5746083984375,9.411606726074218,8.229007633587786,-4.0,-0.31297709923664124,72.4359375,48.966796875,-55.280859375,
1749737141.4042137,2025-06-12 21:05:41.404,32.118099859226646,-2.8562825805664063,0.5482721801757812,9.356540087890625,8.091603053435115,-3.8473282442748094,-0.2748091603053435,72.080859375,49.32421875,-55.967578124999996,
1749737141.4179628,2025-06-12 21:05:41.417,31.974331326564233,-2.8419173706054686,0.5578489868164063,9.354145886230468,8.374045801526718,-5.854961832061068,-0.2824427480916031,71.5482421875,49.5029296875,-54.7658203125,
1749737141.4316258,2025-06-12 21:05:41.431,32.30979123610986,-2.8562825805664063,0.5626373901367188,9.421183532714844,8.488549618320612,-3.946564885496183,-0.2748091603053435,72.9685546875,50.2177734375,-54.7658203125,
1749737141.44517,2025-06-12 21:05:41.445,32.118099859226646,-2.877830395507812,0.5386953735351562,9.387664709472656,8.305343511450381,-3.9770992366412212,-0.21374045801526717,73.501171875,50.0390625,-54.250781249999996,
1749737141.4586601,2025-06-12 21:05:41.458,32.30979123610986,-2.8706477905273435,0.5482721801757812,9.361328491210937,8.16030534351145,-3.8091603053435112,-0.22900763358778625,73.6787109375,50.2177734375,-54.0791015625,
1749737141.4721475,2025-06-12 21:05:41.472,31.974331326564233,-2.8898014038085935,0.5147533569335937,9.34696328125,8.099236641221374,-4.076335877862595,-0.1984732824427481,74.3888671875,50.9326171875,-55.109179687499996,34.78490954916895
1749737141.4896238,2025-06-12 21:05:41.489,32.30979123610986,-2.849099975585937,0.51714755859375,9.397241516113281,8.274809160305344,-5.702290076335878,-0.04580152671755725,74.03378906249999,49.5029296875,-56.1392578125,
1749737141.5033224,2025-06-12 21:05:41.503,32.07017701500584,-2.887407202148437,0.5746083984375,9.375693701171874,9.679389312977099,-2.0610687022900764,-0.1297709923664122,72.9685546875,48.0732421875,-54.7658203125,
1749737141.5176675,2025-06-12 21:05:41.517,32.07017701500584,-2.89219560546875,0.5123591552734374,9.368511096191405,8.206106870229007,-3.954198473282443,-0.3435114503816794,73.14609374999999,48.966796875,-55.62421875,
1749737141.5313942,2025-06-12 21:05:41.531,32.26186839188906,-2.8514941772460936,0.5386953735351562,9.485826977539062,7.893129770992366,-3.66412213740458,-0.11450381679389313,73.6787109375,48.7880859375,-55.109179687499996,
1749737141.5450132,2025-06-12 21:05:41.545,32.16602270344745,-2.8730419921875,0.5985504150390625,9.325415466308593,8.229007633587786,-1.984732824427481,-0.2595419847328244,73.85625,51.111328125,-55.967578124999996,
1749737141.5585158,2025-06-12 21:05:41.558,31.974331326564233,-2.849099975585937,0.5698199951171875,9.327809667968749,8.19083969465649,-4.183206106870229,-0.3282442748091603,73.6787109375,49.5029296875,-55.7958984375,
1749737141.571948,2025-06-12 21:05:41.571,32.07017701500584,-2.9041666137695312,0.5698199951171875,9.320627062988281,8.320610687022901,-3.816793893129771,-0.35877862595419846,73.14609374999999,49.681640625,-54.9375,
1749737141.5854998,2025-06-12 21:05:41.585,32.16602270344745,-2.868253588867187,0.5770026000976562,9.332598071289063,8.083969465648854,-3.763358778625954,-0.2366412213740458,74.3888671875,48.4306640625,-55.7958984375,
1749737141.5991085,2025-06-12 21:05:41.599,32.07017701500584,-2.8850130004882812,0.5315127685546874,9.193734375,8.229007633587786,-3.66412213740458,-0.5038167938931297,73.85625,50.75390625,-55.280859375,
1749737141.6127243,2025-06-12 21:05:41.612,31.974331326564233,-2.9089550170898435,0.5434837768554687,9.284714038085937,8.053435114503817,-3.7251908396946565,-0.03816793893129771,73.6787109375,48.4306640625,-54.7658203125,
1749737141.6271646,2025-06-12 21:05:41.627,32.16602270344745,-2.9089550170898435,0.5530605834960938,9.241618408203124,8.022900763358779,-3.8396946564885495,-0.183206106870229,72.25839843749999,49.8603515625,-56.1392578125,
1749737141.6409743,2025-06-12 21:05:41.640,31.974331326564233,-2.8850130004882812,0.5817910034179687,9.282319836425781,8.053435114503817,-3.8244274809160306,-0.15267175572519084,72.791015625,50.396484375,-55.280859375,
1749737141.654548,2025-06-12 21:05:41.654,32.07017701500584,-2.93050283203125,0.5793968017578125,9.337386474609374,7.984732824427481,-3.7557251908396947,-0.16030534351145037,73.501171875,48.609375,-54.594140625,
1749737141.6681767,2025-06-12 21:05:41.668,32.07017701500584,-2.887407202148437,0.5410895751953124,9.267954626464844,8.206106870229007,-3.633587786259542,-0.29770992366412213,72.9685546875,48.7880859375,-55.4525390625,
1749737141.6818132,2025-06-12 21:05:41.681,32.07017701500584,-2.913743420410156,0.5434837768554687,9.34696328125,8.183206106870228,-3.8931297709923665,-0.35877862595419846,72.4359375,48.966796875,-54.250781249999996,
1749737141.6954298,2025-06-12 21:05:41.695,32.118099859226646,-2.9041666137695312,0.5195417602539062,9.3086560546875,7.9465648854961835,-2.0,-0.1297709923664122,73.6787109375,48.4306640625,-55.109179687499996,
1749737141.7090192,2025-06-12 21:05:41.709,32.118099859226646,-2.858676782226562,0.5195417602539062,9.210493786621093,8.351145038167939,-3.6259541984732824,1.9083969465648856,73.85625,47.89453125,-54.594140625,
1749737141.722618,2025-06-12 21:05:41.722,32.30979123610986,-2.8898014038085935,0.5410895751953124,9.358934289550781,8.251908396946565,-4.068702290076335,-0.2900763358778626,73.85625,50.0390625,-54.594140625,
1749737141.7355013,2025-06-12 21:05:41.735,32.07017701500584,-2.8898014038085935,0.5123591552734374,9.423577734375,8.091603053435115,-3.854961832061069,-0.19083969465648856,72.4359375,50.0390625,-55.280859375,
1749737141.7500782,2025-06-12 21:05:41.750,31.974331326564233,-2.882618798828125,0.5219359619140624,9.430760339355468,7.916030534351145,-3.5114503816793894,-0.3435114503816794,73.85625,49.681640625,-55.62421875,
1749737141.7636616,2025-06-12 21:05:41.763,32.16602270344745,-2.8730419921875,0.5027823486328125,9.4618849609375,8.16030534351145,-3.49618320610687,-0.1450381679389313,74.211328125,50.0390625,-53.5640625,33.35139214797054
1749737141.781051,2025-06-12 21:05:41.781,32.30979123610986,-2.8514941772460936,0.5099649536132812,9.349357482910156,8.076335877862595,-3.801526717557252,-0.13740458015267176,72.791015625,51.111328125,-54.594140625,
1749737141.795091,2025-06-12 21:05:41.795,32.30979123610986,-2.8562825805664063,0.5913678100585937,9.282319836425781,8.145038167938932,-3.6793893129770994,1.8931297709923665,72.791015625,48.966796875,-55.280859375,
1749737141.8086858,2025-06-12 21:05:41.808,32.07017701500584,-2.8419173706054686,0.5578489868164063,9.34696328125,8.473282442748092,-3.6717557251908395,-0.1984732824427481,72.080859375,48.609375,-55.62421875,
1749737141.822198,2025-06-12 21:05:41.822,32.16602270344745,-2.8730419921875,0.5889736083984375,9.33978067626953,7.984732824427481,-3.5572519083969465,-1.8854961832061068,73.14609374999999,48.966796875,-54.9375,
1749737141.8358614,2025-06-12 21:05:41.835,32.07017701500584,-2.901772412109375,0.49320554199218747,9.33978067626953,8.236641221374045,-3.7709923664122136,-0.04580152671755725,74.56640625,49.681640625,-55.967578124999996,
1749737141.8503218,2025-06-12 21:05:41.850,32.07017701500584,-2.7653029174804686,0.565031591796875,9.258377819824219,8.114503816793894,-3.7709923664122136,-0.022900763358778626,73.501171875,50.396484375,-55.967578124999996,
1749737141.8641338,2025-06-12 21:05:41.864,31.926408482343426,-2.925714428710937,0.5363011718749999,9.303867651367186,8.32824427480916,-3.618320610687023,-0.21374045801526717,73.6787109375,50.5751953125,-55.4525390625,33.70426044886034
1749737141.8815112,2025-06-12 21:05:41.881,31.974331326564233,-2.91134921875,0.5147533569335937,9.291896643066405,8.061068702290076,-1.9618320610687023,1.8702290076335877,73.3236328125,49.8603515625,-55.4525390625,
1749737141.8950837,2025-06-12 21:05:41.895,32.118099859226646,-2.8993782104492185,0.5339069702148437,9.373299499511718,8.038167938931299,-3.9083969465648853,0.2748091603053435,73.85625,47.89453125,-56.3109375,
1749737141.908818,2025-06-12 21:05:41.908,32.26186839188906,-2.942473840332031,0.49799394531249996,9.315838659667968,7.9541984732824424,-1.9694656488549618,0.183206106870229,73.501171875,49.32421875,-54.594140625,
1749737141.9223564,2025-06-12 21:05:41.922,31.926408482343426,-2.8658593872070313,0.5339069702148437,9.318232861328125,8.007633587786259,-4.022900763358779,0.12213740458015267,74.56640625,49.32421875,-54.9375,
1749737141.9358351,2025-06-12 21:05:41.935,32.16602270344745,-2.877830395507812,0.5027823486328125,9.337386474609374,8.244274809160306,-4.038167938931298,0.15267175572519084,72.9685546875,48.7880859375,-53.7357421875,
1749737141.9494054,2025-06-12 21:05:41.949,32.45355976877228,-2.8993782104492185,0.5458779785156249,9.289502441406249,8.106870229007633,-3.7404580152671754,0.3282442748091603,73.14609374999999,49.681640625,-55.62421875,
1749737141.9641185,2025-06-12 21:05:41.964,32.30979123610986,-2.77727392578125,0.51714755859375,9.306261853027344,8.213740458015268,-3.9770992366412212,0.2900763358778626,74.211328125,48.609375,-53.907421875,
1749737141.9778602,2025-06-12 21:05:41.977,32.30979123610986,-2.8514941772460936,0.5674257934570313,9.397241516113281,8.083969465648854,-3.9160305343511452,0.04580152671755725,72.9685546875,49.8603515625,-56.1392578125,
1749737141.9914773,2025-06-12 21:05:41.991,32.16602270344745,-2.868253588867187,0.5626373901367188,9.373299499511718,7.977099236641221,-3.50381679389313,0.3282442748091603,73.501171875,50.396484375,-54.9375,
1749737142.0053577,2025-06-12 21:05:42.005,31.926408482343426,-2.959233251953125,0.5817910034179687,9.392453112792968,9.748091603053435,-3.4656488549618323,0.1984732824427481,72.791015625,48.609375,-54.250781249999996,
1749737142.0193474,2025-06-12 21:05:42.019,31.974331326564233,-2.8203695556640622,0.51714755859375,9.334992272949219,7.961832061068702,-5.702290076335878,-0.07633587786259542,75.2765625,49.681640625,-54.594140625,
1749737142.0329726,2025-06-12 21:05:42.032,32.16602270344745,-2.85388837890625,0.6177040283203125,9.349357482910156,7.702290076335878,-3.7404580152671754,0.05343511450381679,74.03378906249999,49.8603515625,-53.7357421875,
1749737142.0465608,2025-06-12 21:05:42.046,32.26186839188906,-2.834734765625,0.5746083984375,9.414000927734374,7.984732824427481,-3.4122137404580153,0.31297709923664124,72.6134765625,49.8603515625,-54.7658203125,
1749737142.0601182,2025-06-12 21:05:42.060,32.07017701500584,-2.863465185546875,0.5578489868164063,9.399635717773437,8.0,-3.2061068702290076,0.22137404580152673,73.85625,49.32421875,-55.280859375,
1749737142.0744524,2025-06-12 21:05:42.074,32.07017701500584,-2.81558115234375,0.5674257934570313,9.253589416503905,8.076335877862595,-5.7251908396946565,0.17557251908396945,74.211328125,49.681640625,-54.9375,
1749737142.0883825,2025-06-12 21:05:42.088,32.16602270344745,-2.839523168945312,0.47644613037109373,9.397241516113281,8.053435114503817,-3.381679389312977,1.9465648854961832,72.791015625,50.0390625,-53.907421875,
1749737142.102042,2025-06-12 21:05:42.102,32.07017701500584,-2.8802245971679685,0.55545478515625,9.320627062988281,5.885496183206107,-3.282442748091603,0.04580152671755725,73.3236328125,49.5029296875,-56.1392578125,
1749737142.1155503,2025-06-12 21:05:42.115,32.26186839188906,-2.8993782104492185,0.5243301635742187,9.397241516113281,8.01526717557252,-3.2519083969465647,-0.10687022900763359,74.03378906249999,50.2177734375,-55.109179687499996,33.568681773194825
1749737142.1329505,2025-06-12 21:05:42.132,31.974331326564233,-2.808398547363281,0.51714755859375,9.449913952636718,8.450381679389313,-3.1374045801526718,0.4198473282442748,73.6787109375,50.2177734375,-54.7658203125,
1749737142.1465557,2025-06-12 21:05:42.146,32.16602270344745,-2.8850130004882812,0.4572925170898437,9.466673364257812,8.381679389312977,-3.0229007633587788,-1.9541984732824427,73.85625,49.681640625,-54.594140625,
1749737142.1603801,2025-06-12 21:05:42.160,32.118099859226646,-2.834734765625,0.4381389038085937,9.512163195800781,8.549618320610687,-3.183206106870229,0.29770992366412213,72.791015625,50.0390625,-54.594140625,
1749737142.17397,2025-06-12 21:05:42.173,32.26186839188906,-2.863465185546875,0.5865794067382812,9.526528405761718,8.465648854961833,-2.8931297709923665,-0.22900763358778625,74.56640625,49.681640625,-53.907421875,
1749737142.1884215,2025-06-12 21:05:42.188,32.16602270344745,-2.8107927490234372,0.5434837768554687,9.605537060546874,8.030534351145038,-2.4580152671755724,-0.061068702290076333,72.25839843749999,50.9326171875,-55.7958984375,
1749737142.2022238,2025-06-12 21:05:42.202,32.26186839188906,-2.779668127441406,0.5243301635742187,9.545682019042967,7.67175572519084,-0.13740458015267176,0.13740458015267176,74.3888671875,50.2177734375,-56.1392578125,
1749737142.2159052,2025-06-12 21:05:42.215,32.26186839188906,-2.849099975585937,0.46686932373046874,9.466673364257812,5.916030534351145,-2.33587786259542,0.2595419847328244,72.791015625,48.966796875,-55.62421875,33.47831821037554
1749737142.2332103,2025-06-12 21:05:42.233,32.118099859226646,-2.7916391357421872,0.5267243652343749,9.634267480468749,7.732824427480916,-1.6717557251908397,-0.2366412213740458,73.14609374999999,47.89453125,-53.5640625,
1749737142.2466826,2025-06-12 21:05:42.246,31.926408482343426,-2.786850732421875,0.5578489868164063,9.524134204101562,7.740458015267175,-1.0610687022900764,0.32061068702290074,73.85625,49.32421875,-54.250781249999996,
1749737142.2601671,2025-06-12 21:05:42.260,32.07017701500584,-2.8227637573242186,0.5746083984375,9.686939916992188,8.076335877862595,-1.4045801526717556,0.366412213740458,73.6787109375,50.5751953125,-56.4826171875,
1749737142.2736728,2025-06-12 21:05:42.273,32.16602270344745,-2.7820623291015623,0.47165772705078124,9.794678991699218,8.045801526717558,-1.1221374045801527,0.4351145038167939,72.791015625,49.681640625,-54.9375,
1749737142.2871182,2025-06-12 21:05:42.287,32.30979123610986,-2.7653029174804686,0.6536170532226562,9.588777648925781,8.221374045801527,-0.6106870229007634,0.4351145038167939,71.72578125,48.966796875,-54.594140625,
1749737142.3020084,2025-06-12 21:05:42.302,32.30979123610986,-2.8107927490234372,0.6727706665039062,9.387664709472656,7.984732824427481,-0.8091603053435115,-0.05343511450381679,74.7439453125,48.4306640625,-54.7658203125,
1749737142.315563,2025-06-12 21:05:42.315,32.16602270344745,-2.9041666137695312,0.55545478515625,9.394847314453125,8.022900763358779,-0.40458015267175573,0.06870229007633588,72.9685546875,49.1455078125,-55.109179687499996,
1749737142.3293076,2025-06-12 21:05:42.329,32.26186839188906,-2.779668127441406,0.6177040283203125,9.351751684570312,7.595419847328245,-0.2595419847328244,0.37404580152671757,72.6134765625,49.5029296875,-55.7958984375,
1749737142.343032,2025-06-12 21:05:42.343,32.16602270344745,-2.7916391357421872,0.8020575561523438,9.320627062988281,7.587786259541985,-1.4427480916030535,-0.25190839694656486,73.85625,47.89453125,-54.9375,
1749737142.356693,2025-06-12 21:05:42.356,31.974331326564233,-2.7533319091796873,0.8667010009765624,9.22485899658203,6.9541984732824424,-0.31297709923664124,-0.40458015267175573,73.501171875,50.0390625,-55.280859375,
1749737142.3703673,2025-06-12 21:05:42.370,32.30979123610986,-2.8227637573242186,0.6823474731445313,9.627084875488281,7.312977099236641,-0.5190839694656488,-0.6183206106870229,,,,34.40640163868896
1749737142.3846433,2025-06-12 21:05:42.384,31.878485638122623,-2.89219560546875,0.6607996582031249,9.435548742675781,8.030534351145038,-0.6870229007633588,-0.8091603053435115,73.14609374999999,50.0390625,-54.594140625,
1749737142.3989139,2025-06-12 21:05:42.398,32.16602270344745,-2.8203695556640622,0.5746083984375,9.567229833984374,8.221374045801527,-0.15267175572519084,-0.6412213740458015,74.03378906249999,49.1455078125,-55.7958984375,
1749737142.4127984,2025-06-12 21:05:42.412,31.926408482343426,-2.849099975585937,0.5315127685546874,9.516951599121093,7.961832061068702,-0.4732824427480916,-0.29770992366412213,73.14609374999999,49.32421875,-54.594140625,
1749737142.4266343,2025-06-12 21:05:42.426,32.16602270344745,-3.0023288818359375,0.4429273071289062,9.548076220703125,8.549618320610687,0.6412213740458015,-0.46564885496183206,73.6787109375,50.2177734375,-54.4224609375,33.1914971654402
1749737142.444014,2025-06-12 21:05:42.444,32.16602270344745,-2.839523168945312,0.8020575561523438,9.390058911132812,7.862595419847328,0.6717557251908397,-0.8396946564885496,72.9685546875,49.8603515625,-54.4224609375,
1749737142.4574897,2025-06-12 21:05:42.457,31.73471710546021,-3.0526071166992184,0.5985504150390625,9.483432775878907,7.648854961832061,0.17557251908396945,-0.6793893129770993,72.4359375,48.966796875,-54.250781249999996,
1749737142.471056,2025-06-12 21:05:42.471,32.16602270344745,-2.980781066894531,0.6775590698242188,9.418789331054686,7.641221374045801,0.6870229007633588,-0.8854961832061069,73.14609374999999,48.966796875,-57.341015625,
1749737142.4846702,2025-06-12 21:05:42.484,32.16602270344745,-2.920926025390625,0.48123453369140623,9.253589416503905,8.13740458015267,0.6641221374045801,-0.7786259541984732,73.14609374999999,50.0390625,-54.250781249999996,
1749737142.4983094,2025-06-12 21:05:42.498,32.16602270344745,-2.9664158569335934,0.41898529052734373,9.394847314453125,8.267175572519085,-0.07633587786259542,-0.8778625954198473,73.501171875,48.966796875,-53.220703125,
1749737142.512788,2025-06-12 21:05:42.512,31.974331326564233,-2.9281086303710935,0.30885201416015623,9.497797985839844,8.702290076335878,3.786259541984733,-1.0076335877862594,71.015625,48.251953125,-55.280859375,
1749737142.5265226,2025-06-12 21:05:42.526,32.07017701500584,-3.076549133300781,0.63206923828125,9.236830004882812,8.969465648854962,0.5877862595419847,-0.8854961832061069,74.211328125,48.966796875,-55.62421875,33.76739830789067
1749737142.5443985,2025-06-12 21:05:42.544,32.26186839188906,-3.124433166503906,0.5602431884765625,9.229647399902344,8.679389312977099,0.4732824427480916,-0.8320610687022901,75.0990234375,48.0732421875,-53.392382812499996,
1749737142.5576234,2025-06-12 21:05:42.557,31.974331326564233,-3.0238766967773434,0.6081272216796875,9.272743029785156,8.213740458015268,0.03816793893129771,-1.0610687022900764,73.6787109375,49.5029296875,-53.7357421875,33.411458251257514
1749737142.5748146,2025-06-12 21:05:42.574,32.30979123610986,-3.047818713378906,0.5578489868164063,9.02135185546875,7.396946564885496,0.7557251908396947,-1.16793893129771,73.3236328125,49.1455078125,-54.4224609375,
1749737142.5884957,2025-06-12 21:05:42.588,31.83056279390182,-3.095702746582031,0.201112939453125,9.165003955078124,7.473282442748092,0.06870229007633588,-1.0763358778625953,73.85625,48.251953125,-54.9375,
1749737142.6018813,2025-06-12 21:05:42.601,32.07017701500584,-2.9544448486328125,0.6200982299804687,9.131485131835937,8.297709923664122,-0.5114503816793893,-0.8244274809160306,73.6787109375,51.2900390625,-55.4525390625,
1749737142.6154425,2025-06-12 21:05:42.615,32.07017701500584,-3.0214824951171875,0.49320554199218747,9.289502441406249,8.770992366412214,-1.0687022900763359,-0.6564885496183206,73.6787109375,47.3583984375,-54.4224609375,
1749737142.63025,2025-06-12 21:05:42.630,32.30979123610986,-3.0262708984374997,0.7254431030273437,9.576806640625,8.320610687022901,-0.25190839694656486,-0.8091603053435115,72.6134765625,48.0732421875,-53.7357421875,
1749737142.64388,2025-06-12 21:05:42.643,32.07017701500584,-3.0837317382812497,0.7230489013671875,9.382876306152344,7.961832061068702,0.32061068702290074,-0.7709923664122137,72.25839843749999,49.1455078125,-54.4224609375,
1749737142.6574366,2025-06-12 21:05:42.657,31.974331326564233,-2.935291235351562,0.7541735229492187,9.074024291992187,7.0,-0.7557251908396947,-1.1755725190839694,73.501171875,48.609375,-53.5640625,
1749737142.670944,2025-06-12 21:05:42.670,32.16602270344745,-2.959233251953125,0.4644751220703125,9.054870678710937,8.618320610687023,-1.015267175572519,-0.5877862595419847,72.6134765625,50.2177734375,-54.0791015625,
1749737142.6843956,2025-06-12 21:05:42.684,32.26186839188906,-3.0358477050781247,0.6679822631835937,8.896853369140624,7.877862595419847,-1.6793893129770991,-1.1603053435114503,72.4359375,49.32421875,-53.907421875,
1749737142.6977308,2025-06-12 21:05:42.697,32.118099859226646,-2.999934680175781,0.46686932373046874,9.162609753417968,7.129770992366412,-0.1984732824427481,-0.648854961832061,71.9033203125,49.1455078125,-55.7958984375,34.3144882957904
1749737142.715058,2025-06-12 21:05:42.715,32.07017701500584,-2.8514941772460936,0.603338818359375,9.04050546875,6.633587786259542,-3.122137404580153,-0.7404580152671756,73.85625,47.1796875,-54.250781249999996,
1749737142.7286618,2025-06-12 21:05:42.728,31.83056279390182,-2.779668127441406,0.6512228515624999,9.167398156738281,6.6106870229007635,-0.44274809160305345,-0.6946564885496184,72.6134765625,48.7880859375,-55.109179687499996,
1749737142.7433305,2025-06-12 21:05:42.743,32.16602270344745,-3.1579519897460937,0.63206923828125,8.872911352539061,6.916030534351145,-2.1603053435114505,-0.7862595419847328,72.6134765625,49.8603515625,-55.109179687499996,
1749737142.757361,2025-06-12 21:05:42.757,31.782639949681013,-3.0238766967773434,0.44053310546874996,9.03332286376953,7.145038167938932,-3.2748091603053435,-0.3816793893129771,72.25839843749999,48.7880859375,-56.1392578125,
1749737142.771085,2025-06-12 21:05:42.771,32.26186839188906,-2.8514941772460936,0.5219359619140624,8.808267907714843,6.969465648854962,-2.183206106870229,-0.32061068702290074,73.6787109375,49.1455078125,-55.7958984375,
1749737142.7849712,2025-06-12 21:05:42.784,31.974331326564233,-3.0071172851562498,0.4070142822265625,9.267954626464844,6.3893129770992365,-2.2442748091603053,-0.4351145038167939,73.14609374999999,48.966796875,-55.280859375,
1749737142.7986283,2025-06-12 21:05:42.798,32.16602270344745,-3.0047230834960934,0.5051765502929687,9.114725720214842,6.1603053435114505,-2.5572519083969465,1.8778625954198473,71.72578125,49.681640625,-54.594140625,
1749737142.8124025,2025-06-12 21:05:42.812,31.83056279390182,-3.019088293457031,0.38307226562499996,9.176974963378905,6.977099236641221,-3.786259541984733,0.1297709923664122,72.4359375,48.251953125,-54.250781249999996,
1749737142.8259952,2025-06-12 21:05:42.825,32.30979123610986,-2.789244934082031,0.5793968017578125,9.303867651367186,6.2748091603053435,-3.7480916030534353,0.17557251908396945,71.9033203125,48.7880859375,-55.109179687499996,
1749737142.8398135,2025-06-12 21:05:42.839,32.357714080330666,-2.8227637573242186,0.4381389038085937,9.064447485351561,6.702290076335878,-3.3282442748091605,1.8931297709923665,73.14609374999999,47.89453125,-54.9375,
1749737142.8548605,2025-06-12 21:05:42.854,32.07017701500584,-2.8562825805664063,0.3136404174804687,9.337386474609374,5.091603053435114,-3.5114503816793894,0.183206106870229,73.14609374999999,48.966796875,-55.967578124999996,
1749737142.8684707,2025-06-12 21:05:42.868,32.30979123610986,-2.806004345703125,0.55545478515625,9.296685046386719,4.183206106870229,-4.297709923664122,0.04580152671755725,72.6134765625,48.7880859375,-55.109179687499996,34.666823051009096
1749737142.8857167,2025-06-12 21:05:42.885,32.16602270344745,-2.829946362304687,0.3136404174804687,9.265560424804686,6.740458015267175,-3.2748091603053435,0.12213740458015267,73.3236328125,50.2177734375,-56.4826171875,
1749737142.899372,2025-06-12 21:05:42.899,31.974331326564233,-2.817975354003906,0.3591302490234375,9.397241516113281,7.282442748091603,-4.1603053435114505,0.26717557251908397,72.6134765625,49.8603515625,-55.109179687499996,
1749737142.9131186,2025-06-12 21:05:42.913,32.07017701500584,-2.7724855224609373,0.6823474731445313,9.4618849609375,6.3893129770992365,-5.824427480916031,0.5572519083969466,73.501171875,48.966796875,-54.9375,
1749737142.9268484,2025-06-12 21:05:42.926,32.30979123610986,-2.626439221191406,0.5339069702148437,9.090783703613281,4.198473282442748,-4.587786259541985,0.6793893129770993,73.14609374999999,48.966796875,-55.967578124999996,
1749737142.9404001,2025-06-12 21:05:42.940,32.16602270344745,-2.81558115234375,0.4740519287109375,9.162609753417968,4.786259541984733,-4.633587786259542,0.4580152671755725,72.080859375,47.89453125,-55.967578124999996,
1749737142.9540327,2025-06-12 21:05:42.954,31.83056279390182,-2.664746447753906,0.01915361328125,9.572018237304688,6.412213740458015,-4.190839694656488,0.5572519083969466,72.25839843749999,49.1455078125,-54.4224609375,
1749737142.9686584,2025-06-12 21:05:42.968,32.45355976877228,-2.806004345703125,0.5722141967773438,9.56962403564453,8.587786259541986,-4.603053435114504,-0.19083969465648856,72.25839843749999,49.5029296875,-54.4224609375,33.70426044886034
1749737142.986117,2025-06-12 21:05:42.986,31.782639949681013,-2.760514514160156,0.36391865234375,10.022128149414062,8.49618320610687,-4.251908396946565,0.7022900763358778,72.4359375,49.681640625,-55.62421875,
1749737142.999926,2025-06-12 21:05:42.999,32.16602270344745,-2.703053674316406,0.97683427734375,9.706093530273437,5.603053435114504,-4.587786259541985,-0.015267175572519083,72.6134765625,50.5751953125,-55.109179687499996,
1749737143.0134969,2025-06-12 21:05:43.013,32.30979123610986,-2.5043349365234375,0.44532150878906246,9.81862100830078,3.954198473282443,-3.9923664122137406,-0.015267175572519083,72.791015625,49.681640625,-53.5640625,
1749737143.0270658,2025-06-12 21:05:43.027,32.07017701500584,-2.729389892578125,0.4333505004882812,9.938331091308592,7.480916030534351,-4.3893129770992365,-0.7022900763358778,72.791015625,49.681640625,-54.9375,
1749737143.0406358,2025-06-12 21:05:43.040,32.118099859226646,-2.454056701660156,0.15562310791015624,9.421183532714844,11.099236641221374,-3.618320610687023,-0.46564885496183206,72.4359375,48.609375,-53.907421875,
1749737143.0540688,2025-06-12 21:05:43.054,31.974331326564233,-2.5474305664062498,0.36391865234375,9.907206469726562,10.145038167938932,-3.4656488549618323,-0.9847328244274809,73.6787109375,49.5029296875,-55.7958984375,
1749737143.0676587,2025-06-12 21:05:43.067,32.118099859226646,-2.501940734863281,0.4860229370117187,9.105148913574219,7.633587786259542,-3.2061068702290076,-0.44274809160305345,72.9685546875,48.7880859375,-55.7958984375,
1749737143.0823317,2025-06-12 21:05:43.082,32.26186839188906,-2.224213342285156,0.1149216796875,9.143456140136719,8.0,-3.2290076335877864,-0.7251908396946565,74.92148437499999,49.681640625,-55.967578124999996,
1749737143.0962176,2025-06-12 21:05:43.096,32.16602270344745,-2.2768857788085937,0.4333505004882812,9.428366137695312,8.099236641221374,-3.1068702290076335,-1.1068702290076335,74.3888671875,49.1455078125,-55.4525390625,
1749737143.1096127,2025-06-12 21:05:43.109,32.07017701500584,-2.511517541503906,-0.3016694091796875,9.53131680908203,12.0,-3.1603053435114505,-0.5343511450381679,73.6787109375,48.7880859375,-55.4525390625,
1749737143.122425,2025-06-12 21:05:43.122,32.30979123610986,-2.3582886352539063,1.158793603515625,9.409212524414063,9.923664122137405,-3.450381679389313,-1.3511450381679388,72.25839843749999,48.7880859375,-54.7658203125,
1749737143.1352804,2025-06-12 21:05:43.135,31.974331326564233,-2.39420166015625,0.5746083984375,10.070012182617187,9.786259541984732,-2.984732824427481,-1.3053435114503817,72.6134765625,49.1455078125,-55.4525390625,
1749737143.148027,2025-06-12 21:05:43.148,32.07017701500584,-2.501940734863281,1.3766659545898436,9.682151513671874,7.152671755725191,-2.900763358778626,-2.0381679389312977,73.3236328125,49.8603515625,-54.0791015625,
1749737143.1607049,2025-06-12 21:05:43.160,32.16602270344745,-2.8562825805664063,0.5722141967773438,10.034099157714843,8.992366412213741,-2.4885496183206106,-1.8473282442748091,72.6134765625,48.7880859375,-55.109179687499996,34.85716297064892
1749737143.177187,2025-06-12 21:05:43.177,31.974331326564233,-2.4013842651367185,1.3431471313476562,10.029310754394531,7.969465648854962,-2.8091603053435112,-3.4122137404580153,72.080859375,49.32421875,-55.62421875,
1749737143.1914263,2025-06-12 21:05:43.191,32.16602270344745,-2.39420166015625,0.8475473876953125,9.212887988281249,8.534351145038167,-2.2213740458015265,-2.9389312977099236,73.6787109375,48.4306640625,-54.0791015625,
1749737143.2050722,2025-06-12 21:05:43.205,31.974331326564233,-2.5665841796874997,1.1635820068359375,9.397241516113281,5.694656488549619,-4.702290076335878,-3.2290076335877864,73.501171875,46.822265625,-53.5640625,
1749737143.218163,2025-06-12 21:05:43.218,31.974331326564233,-2.0254946044921875,0.047884033203124995,9.121908325195312,9.0,-2.145038167938931,-2.4122137404580153,72.6134765625,50.5751953125,-53.7357421875,
1749737143.2316515,2025-06-12 21:05:43.231,32.26186839188906,-2.109291662597656,0.6512228515624999,8.683769421386717,9.404580152671755,-4.564885496183206,-2.633587786259542,72.25839843749999,47.3583984375,-55.109179687499996,
1749737143.2453473,2025-06-12 21:05:43.245,32.118099859226646,-1.9536685546875,0.6536170532226562,8.836998327636719,10.183206106870228,-4.206106870229007,-2.1526717557251906,72.6134765625,48.4306640625,-55.4525390625,
1749737143.2587948,2025-06-12 21:05:43.258,32.16602270344745,-1.9105729248046874,1.1827356201171875,8.619125976562499,8.389312977099237,-3.4198473282442747,-2.7786259541984735,73.6787109375,48.4306640625,-54.7658203125,
1749737143.2723079,2025-06-12 21:05:43.272,31.926408482343426,-2.2744915771484373,0.8690952026367187,9.076418493652342,6.862595419847328,-4.732824427480916,-3.351145038167939,72.791015625,48.966796875,-56.3109375,
1749737143.2857773,2025-06-12 21:05:43.285,32.118099859226646,-2.1883003173828124,1.1468225952148436,9.02135185546875,6.0,-5.0,-3.8091603053435112,73.3236328125,48.4306640625,-56.1392578125,
1749737143.3005505,2025-06-12 21:05:43.300,32.30979123610986,-2.3965958618164063,0.3950432739257812,9.129090930175781,4.8320610687022905,-6.648854961832061,-4.290076335877862,73.6787109375,49.1455078125,-54.0791015625,
1749737143.3144305,2025-06-12 21:05:43.314,32.118099859226646,-2.2864625854492187,0.6584054565429687,9.289502441406249,2.5343511450381677,-5.580152671755725,-3.564885496183206,,,,34.3144882957904
1749737143.3279243,2025-06-12 21:05:43.327,32.16602270344745,-2.291250988769531,-0.19393033447265623,9.236830004882812,3.0763358778625953,-5.312977099236641,-3.3206106870229006,71.9033203125,48.7880859375,-55.109179687499996,
1749737143.3415077,2025-06-12 21:05:43.341,32.118099859226646,-2.360682836914062,-0.23702596435546874,9.603142858886718,7.114503816793893,-6.198473282442748,-2.435114503816794,73.14609374999999,46.822265625,-55.62421875,
1749737143.3550286,2025-06-12 21:05:43.355,31.974331326564233,-2.597708801269531,-0.5793968017578125,9.847351428222655,9.427480916030534,-2.0,-1.5419847328244274,73.14609374999999,47.89453125,-55.62421875,
1749737143.3684728,2025-06-12 21:05:43.368,32.07017701500584,-3.0071172851562498,1.0175357055664063,9.868899243164062,7.8320610687022905,-7.938931297709924,-1.099236641221374,74.03378906249999,47.0009765625,-55.4525390625,
1749737143.382132,2025-06-12 21:05:43.382,32.07017701500584,-2.2744915771484373,1.1468225952148436,9.560047229003906,2.3206106870229006,-5.847328244274809,-1.3053435114503817,74.7439453125,48.0732421875,-54.0791015625,
1749737143.395587,2025-06-12 21:05:43.395,32.118099859226646,-2.521094348144531,0.9576806640625,9.641450085449218,0.8931297709923665,-5.877862595419847,-2.435114503816794,73.501171875,48.251953125,-55.280859375,
1749737143.4103396,2025-06-12 21:05:43.410,31.974331326564233,-2.3918074584960936,-0.7541735229492187,10.120290417480469,4.580152671755725,-4.8396946564885495,-2.480916030534351,72.6134765625,47.0009765625,-55.109179687499996,33.60610032796631
1749737143.42768,2025-06-12 21:05:43.427,31.974331326564233,-2.6815058593749996,-0.05746083984375,10.120290417480469,7.7251908396946565,-5.106870229007634,-0.9770992366412213,73.14609374999999,47.89453125,-55.62421875,
1749737143.4404807,2025-06-12 21:05:43.440,31.73471710546021,-2.04943662109375,0.1388636962890625,9.318232861328125,5.625954198473282,-4.290076335877862,0.46564885496183206,74.03378906249999,47.7158203125,-54.7658203125,
1749737143.4531872,2025-06-12 21:05:43.453,32.07017701500584,-2.612074011230469,-0.5410895751953124,9.2320416015625,5.557251908396947,-3.183206106870229,0.09923664122137404,73.3236328125,48.7880859375,-55.4525390625,
1749737143.4658828,2025-06-12 21:05:43.465,32.16602270344745,-2.863465185546875,-0.6560112548828124,9.172186560058593,9.458015267175572,-2.2290076335877864,3.8625954198473282,72.791015625,47.89453125,-55.967578124999996,
1749737143.478557,2025-06-12 21:05:43.478,31.974331326564233,-3.4955344238281247,0.3854664672851562,10.189722265624999,9.083969465648854,-4.251908396946565,0.7709923664122137,74.211328125,48.251953125,-53.907421875,
1749737143.4914737,2025-06-12 21:05:43.491,32.16602270344745,-2.798821740722656,0.10773907470703124,9.708487731933593,6.8320610687022905,-1.3740458015267176,1.3435114503816794,72.791015625,47.89453125,-55.62421875,
1749737143.5050373,2025-06-12 21:05:43.505,32.118099859226646,-3.1747114013671873,0.5482721801757812,9.789890588378906,3.2595419847328246,-4.419847328244275,0.37404580152671757,,,,33.86426241722747
1749737143.5184197,2025-06-12 21:05:43.518,32.16602270344745,-2.750937707519531,-0.16998831787109375,10.09395419921875,3.5572519083969465,-5.343511450381679,0.6793893129770993,72.25839843749999,48.0732421875,-55.7958984375,
1749737143.5329208,2025-06-12 21:05:43.532,32.30979123610986,-2.858676782226562,-0.51714755859375,8.930372192382812,4.587786259541985,-4.9465648854961835,1.5114503816793894,73.3236328125,49.1455078125,-55.7958984375,
1749737143.5466497,2025-06-12 21:05:43.546,32.357714080330666,-2.6503812377929687,-0.9169792358398436,8.774749084472656,9.0,-7.0458015267175576,2.954198473282443,73.3236328125,48.0732421875,-55.4525390625,
1749737143.560774,2025-06-12 21:05:43.560,31.974331326564233,-2.418143676757812,-0.7110778930664062,8.863334545898438,11.969465648854962,-4.893129770992366,5.572519083969466,72.791015625,48.609375,-55.280859375,
1749737143.5736601,2025-06-12 21:05:43.573,32.07017701500584,-2.748543505859375,-0.02154781494140625,9.351751684570312,13.664122137404581,-5.129770992366412,3.885496183206107,72.9685546875,50.5751953125,-54.4224609375,
1749737143.5864315,2025-06-12 21:05:43.586,32.357714080330666,-2.549824768066406,0.0047884033203125,9.030928662109375,11.610687022900763,-6.534351145038168,3.519083969465649,74.211328125,47.537109375,-55.62421875,
1749737143.5998468,2025-06-12 21:05:43.599,32.07017701500584,-2.4349030883789062,1.3527239379882812,9.555258825683593,11.404580152671755,-2.9923664122137406,2.564885496183206,73.14609374999999,48.251953125,-55.967578124999996,
1749737143.6134253,2025-06-12 21:05:43.613,32.26186839188906,-3.277662072753906,2.104503259277344,9.325415466308593,3.2213740458015265,-3.0610687022900764,-0.9389312977099237,73.14609374999999,48.966796875,-54.9375,
1749737143.6270046,2025-06-12 21:05:43.627,32.16602270344745,-4.292803576660156,0.7757213378906249,9.251195214843749,5.305343511450381,-8.511450381679388,-1.4045801526717556,73.501171875,47.537109375,-55.280859375,
1749737143.6417735,2025-06-12 21:05:43.641,32.07017701500584,-2.308010400390625,1.1085153686523437,9.22485899658203,2.854961832061069,-3.877862595419847,-0.8091603053435115,72.9685546875,49.1455078125,-56.825976562499996,
1749737143.6556273,2025-06-12 21:05:43.655,32.357714080330666,-3.699041564941406,-0.45489831542968745,9.715670336914062,9.580152671755725,-2.816793893129771,0.015267175572519083,,,,34.666823051009096
1749737143.6692414,2025-06-12 21:05:43.669,32.16602270344745,-3.5290532470703124,1.1109095703125,9.5001921875,10.16030534351145,-7.519083969465649,3.435114503816794,72.9685546875,50.2177734375,-54.4224609375,
1749737143.6828058,2025-06-12 21:05:43.682,32.118099859226646,-3.440467785644531,0.10773907470703124,8.59997236328125,11.992366412213741,-6.427480916030534,0.015267175572519083,74.3888671875,48.4306640625,-54.4224609375,
1749737143.6965468,2025-06-12 21:05:43.696,32.30979123610986,-3.095702746582031,0.5363011718749999,9.062053283691405,11.595419847328245,-8.236641221374045,1.9541984732824427,73.501171875,48.609375,-56.3109375,
1749737143.710047,2025-06-12 21:05:43.710,32.07017701500584,-2.1811177124023438,0.8092401611328125,8.865728747558594,8.938931297709924,-8.931297709923664,-0.4198473282442748,74.211328125,49.681640625,-55.62421875,
1749737143.7236094,2025-06-12 21:05:43.723,32.16602270344745,-2.4205378784179685,1.1611878051757811,9.631873278808593,6.374045801526718,-6.717557251908397,0.183206106870229,73.14609374999999,50.396484375,-57.684374999999996,
1749737143.737126,2025-06-12 21:05:43.737,32.16602270344745,-2.8706477905273435,1.0869675537109373,9.375693701171874,3.7099236641221376,-6.358778625954199,0.2900763358778626,73.14609374999999,50.0390625,-56.99765625,
1749737143.7505572,2025-06-12 21:05:43.750,32.16602270344745,-3.1196447631835937,0.9313444458007812,8.980650427246093,0.24427480916030533,-6.557251908396947,0.2900763358778626,73.501171875,47.89453125,-55.62421875,34.22101376848342
1749737143.7698736,2025-06-12 21:05:43.769,32.30979123610986,-2.5474305664062498,-0.3447650390625,8.47786807861328,5.595419847328245,-10.763358778625955,0.6641221374045801,72.6134765625,49.1455078125,-56.4826171875,
1749737143.7834408,2025-06-12 21:05:43.783,32.30979123610986,-2.5067291381835934,-0.24899697265624998,8.741230261230468,5.427480916030534,-7.984732824427481,3.8091603053435112,73.3236328125,48.0732421875,-55.4525390625,
1749737143.797174,2025-06-12 21:05:43.797,32.16602270344745,-2.0446482177734375,-0.06464344482421874,9.105148913574219,6.580152671755725,-6.717557251908397,2.0916030534351147,72.9685546875,49.1455078125,-56.4826171875,
1749737143.8107982,2025-06-12 21:05:43.810,32.07017701500584,-2.2768857788085937,0.11731588134765625,9.988609326171874,5.206106870229007,-8.748091603053435,4.5038167938931295,74.3888671875,49.1455078125,-55.7958984375,
1749737143.8243961,2025-06-12 21:05:43.824,32.07017701500584,-2.1787235107421874,-0.08379705810546874,8.169016064453125,7.450381679389313,-7.984732824427481,4.190839694656488,74.3888671875,50.9326171875,-55.109179687499996,
1749737143.8378665,2025-06-12 21:05:43.837,32.16602270344745,-2.4564509033203126,1.1516109985351561,10.915165368652342,7.4961832061068705,-7.534351145038168,3.6564885496183206,72.9685546875,49.8603515625,-55.7958984375,
1749737143.85137,2025-06-12 21:05:43.851,32.16602270344745,-2.2481553588867187,0.0047884033203125,10.766724865722656,4.877862595419847,-2.3969465648854964,4.091603053435114,73.3236328125,50.5751953125,-57.1693359375,
1749737143.8657506,2025-06-12 21:05:43.865,31.974331326564233,-2.418143676757812,-0.13407529296874998,10.364498986816406,3.213740458015267,-5.473282442748092,4.427480916030534,74.03378906249999,52.0048828125,-55.7958984375,
1749737143.8795574,2025-06-12 21:05:43.879,32.118099859226646,-2.3965958618164063,-0.5482721801757812,11.037269653320312,1.1145038167938932,-4.99236641221374,5.114503816793893,72.6134765625,47.7158203125,-56.4826171875,
1749737143.8931549,2025-06-12 21:05:43.893,32.45355976877228,-2.7820623291015623,-1.1611878051757811,10.560823522949217,6.412213740458015,-5.099236641221374,6.511450381679389,72.9685546875,48.4306640625,-55.109179687499996,
1749737143.906766,2025-06-12 21:05:43.906,32.26186839188906,-2.9544448486328125,0.12689268798828124,10.888829150390624,5.1603053435114505,-3.618320610687023,6.7251908396946565,,,,34.666823051009096
1749737143.9203866,2025-06-12 21:05:43.920,32.16602270344745,-3.5769372802734374,0.2561795776367187,9.682151513671874,6.801526717557252,-0.6946564885496184,7.190839694656488,71.1931640625,50.5751953125,-54.7658203125,
1749737143.9340804,2025-06-12 21:05:43.934,32.26186839188906,-2.5450363647460934,0.19632453613281248,9.018957653808593,4.969465648854962,-4.290076335877862,7.786259541984733,72.6134765625,51.2900390625,-55.4525390625,
1749737143.9475515,2025-06-12 21:05:43.947,32.30979123610986,-2.959233251953125,0.33518823242187495,9.488221179199218,6.755725190839694,-4.977099236641221,6.351145038167939,71.72578125,50.396484375,-55.62421875,
1749737143.9610143,2025-06-12 21:05:43.961,32.16602270344745,-2.4564509033203126,1.0175357055664063,8.755595471191405,2.3587786259541983,-0.2595419847328244,4.564885496183206,74.211328125,49.681640625,-54.9375,
1749737143.9745147,2025-06-12 21:05:43.974,32.16602270344745,-3.375824340820312,-0.143652099609375,9.0021982421875,4.251908396946565,-2.1603053435114505,4.916030534351145,72.791015625,49.32421875,-55.280859375,
1749737143.9895582,2025-06-12 21:05:43.989,32.30979123610986,-2.8036101440429686,1.2785036865234374,8.901641772460938,4.0534351145038165,-4.877862595419847,5.00763358778626,73.85625,49.32421875,-55.280859375,
1749737144.0030696,2025-06-12 21:05:44.003,32.26186839188906,-2.4684219116210935,-0.737414111328125,8.444349255371094,7.709923664122138,-4.106870229007634,4.6183206106870225,73.3236328125,49.8603515625,-56.825976562499996,34.666823051009096
1749737144.0204942,2025-06-12 21:05:44.020,32.30979123610986,-2.5761609863281247,-0.36631285400390623,9.428366137695312,9.961832061068701,-5.419847328244275,7.67175572519084,72.791015625,49.681640625,-57.341015625,
1749737144.0339677,2025-06-12 21:05:44.033,32.30979123610986,-3.383006945800781,0.689530078125,9.026140258789061,11.610687022900763,-2.9236641221374047,6.076335877862595,73.6787109375,50.5751953125,-56.4826171875,
1749737144.0474238,2025-06-12 21:05:44.047,32.16602270344745,-2.693476867675781,1.0295067138671874,8.681375219726561,9.687022900763358,-2.4427480916030535,4.022900763358779,,,,34.60678031980774
1749737144.060913,2025-06-12 21:05:44.060,32.16602270344745,-3.191470812988281,-0.0526724365234375,9.82580361328125,11.129770992366412,-7.305343511450381,4.312977099236641,72.080859375,48.966796875,-55.62421875,
1749737144.0744798,2025-06-12 21:05:44.074,32.45355976877228,-3.2034418212890623,1.9800047729492187,9.718064538574218,3.4198473282442747,-9.557251908396946,3.66412213740458,72.25839843749999,51.2900390625,-56.4826171875,
1749737144.0879133,2025-06-12 21:05:44.087,32.30979123610986,-1.8291700683593748,0.16998831787109375,9.222464794921875,9.427480916030534,-8.778625954198473,2.2900763358778624,73.3236328125,50.5751953125,-54.7658203125,
1749737144.102692,2025-06-12 21:05:44.102,32.30979123610986,-2.6384102294921874,0.2920926025390625,9.49300958251953,8.045801526717558,-4.267175572519084,2.816793893129771,72.9685546875,50.2177734375,-57.1693359375,
1749737144.1162071,2025-06-12 21:05:44.116,32.16602270344745,-3.5098996337890624,-0.833182177734375,9.674968908691406,12.877862595419847,-2.7099236641221376,4.366412213740458,71.9033203125,49.5029296875,-57.1693359375,
1749737144.129766,2025-06-12 21:05:44.129,32.30979123610986,-2.8730419921875,0.7829039428710937,8.741230261230468,11.404580152671755,-2.763358778625954,3.4122137404580153,73.3236328125,52.0048828125,-56.825976562499996,
1749737144.1432705,2025-06-12 21:05:44.143,32.16602270344745,-2.4205378784179685,1.7381904052734374,9.236830004882812,7.99236641221374,-4.603053435114504,1.916030534351145,72.6134765625,50.5751953125,-55.7958984375,
1749737144.1567287,2025-06-12 21:05:44.156,32.16602270344745,-3.318363500976562,0.5267243652343749,9.366116894531249,7.534351145038168,-9.748091603053435,0.648854961832061,74.03378906249999,51.2900390625,-57.1693359375,
1749737144.1702306,2025-06-12 21:05:44.170,32.16602270344745,-3.0142998901367184,0.9074024291992187,8.781931689453124,8.068702290076336,-4.511450381679389,0.8015267175572519,74.03378906249999,52.0048828125,-56.4826171875,
1749737144.1836808,2025-06-12 21:05:44.183,32.26186839188906,-2.3678654418945313,0.9217676391601562,9.593566052246093,7.419847328244275,-6.175572519083969,0.9923664122137404,72.080859375,49.681640625,-55.967578124999996,
1749737144.1972187,2025-06-12 21:05:44.197,32.07017701500584,-2.4516625,0.7757213378906249,8.901641772460938,9.221374045801527,-5.290076335877862,0.0916030534351145,72.4359375,50.0390625,-57.341015625,
1749737144.212061,2025-06-12 21:05:44.212,32.118099859226646,-4.211400720214844,-0.1197100830078125,9.471461767578125,7.221374045801527,-2.312977099236641,0.5572519083969466,71.37070312499999,48.609375,-56.3109375,
1749737144.2256343,2025-06-12 21:05:44.225,31.974331326564233,-1.687912170410156,1.1468225952148436,10.249577307128906,9.801526717557252,-13.01526717557252,0.2748091603053435,72.6134765625,51.2900390625,-55.7958984375,
1749737144.239106,2025-06-12 21:05:44.239,32.16602270344745,-1.9488801513671874,1.9584569580078124,9.636661682128906,6.129770992366412,-5.458015267175573,-0.8244274809160306,72.791015625,49.32421875,-55.62421875,
1749737144.2526722,2025-06-12 21:05:44.252,32.30979123610986,-3.768473413085937,0.7565677246093749,10.577582934570312,7.900763358778626,-3.236641221374046,-1.534351145038168,72.6134765625,51.2900390625,-56.1392578125,
1749737144.2661119,2025-06-12 21:05:44.266,32.118099859226646,-3.782838623046875,1.4963760375976562,9.619902270507811,3.7709923664122136,1.1603053435114503,-3.0229007633587788,72.791015625,51.826171875,-55.62421875,
1749737144.2795606,2025-06-12 21:05:44.279,32.16602270344745,-3.246537451171875,0.45489831542968745,8.571241943359375,6.366412213740458,-7.152671755725191,-2.435114503816794,73.501171875,51.111328125,-56.99765625,
1749737144.2928622,2025-06-12 21:05:44.292,32.118099859226646,-2.370259643554687,0.5722141967773438,9.629479077148437,5.267175572519084,-11.977099236641221,-1.8396946564885497,72.9685546875,51.2900390625,-57.1693359375,
1749737144.3065758,2025-06-12 21:05:44.306,31.974331326564233,-2.212242333984375,-0.8020575561523438,9.904812268066406,9.335877862595419,-0.07633587786259542,-0.8015267175572519,72.4359375,49.681640625,-56.654296875,
1749737144.3216712,2025-06-12 21:05:44.321,32.16602270344745,-3.380612744140625,0.4165910888671875,9.157821350097656,9.664122137404581,1.7938931297709924,-0.7862595419847328,72.791015625,50.0390625,-56.3109375,
1749737144.334729,2025-06-12 21:05:44.334,32.26186839188906,-3.5051112304687497,0.2346317626953125,9.449913952636718,9.900763358778626,-4.5038167938931295,-0.33587786259541985,71.9033203125,49.1455078125,-56.4826171875,
1749737144.347922,2025-06-12 21:05:44.347,32.26186839188906,-3.0142998901367184,0.27293898925781246,9.840168823242188,8.610687022900763,-5.312977099236641,-1.5114503816793894,72.6134765625,51.2900390625,-55.7958984375,
1749737144.3609328,2025-06-12 21:05:44.360,32.357714080330666,-3.0526071166992184,0.6488286499023437,8.951920007324219,6.801526717557252,-7.740458015267175,-1.9083969465648856,73.14609374999999,50.396484375,-57.341015625,
1749737144.3739328,2025-06-12 21:05:44.373,32.07017701500584,-1.8938135131835936,0.5267243652343749,9.081206896972656,4.175572519083969,-6.099236641221374,-2.198473282442748,73.6787109375,50.2177734375,-57.1693359375,
1749737144.387396,2025-06-12 21:05:44.387,32.30979123610986,-2.109291662597656,0.15083470458984374,8.566453540039062,5.32824427480916,-4.061068702290076,-2.3893129770992365,74.3888671875,49.5029296875,-56.825976562499996,
1749737144.3994153,2025-06-12 21:05:44.399,32.118099859226646,-2.6431986328124997,-1.3192051147460937,8.511386901855468,8.259541984732824,-5.9541984732824424,-0.9923664122137404,,,,
1749737144.4090273,2025-06-12 21:05:44.409,32.30979123610986,-2.4756045166015626,-1.2928688964843749,9.294290844726563,13.290076335877863,-2.564885496183206,0.26717557251908397,74.3888671875,51.6474609375,-55.4525390625,
1749737144.4211457,2025-06-12 21:05:44.421,32.16602270344745,-2.1811177124023438,0.23223756103515625,9.208099584960937,13.145038167938932,-0.4198473282442748,0.4122137404580153,71.72578125,50.75390625,-56.3109375,
1749737144.4337354,2025-06-12 21:05:44.433,32.30979123610986,-2.2481553588867187,0.055066638183593745,9.011775048828124,14.900763358778626,-0.42748091603053434,-0.2366412213740458,73.3236328125,49.8603515625,-57.8560546875,
1749737144.4458354,2025-06-12 21:05:44.445,32.16602270344745,-2.8945898071289062,1.3287819213867187,9.952696301269532,12.19083969465649,-5.931297709923665,-1.4122137404580153,71.1931640625,50.5751953125,-55.4525390625,
1749737144.4579637,2025-06-12 21:05:44.457,32.16602270344745,-3.0813375366210938,0.9888052856445312,9.502586389160156,9.251908396946565,-2.3435114503816794,-2.3740458015267176,72.080859375,52.18359375,-57.684374999999996,
1749737144.4701233,2025-06-12 21:05:44.470,32.26186839188906,-3.622427111816406,1.886630908203125,8.863334545898438,8.17557251908397,1.4580152671755726,-4.32824427480916,,,,34.81402269797162
1749737144.4823263,2025-06-12 21:05:44.482,32.30979123610986,-3.5889082885742187,-0.181959326171875,8.645462194824217,7.961832061068702,-10.908396946564885,-2.267175572519084,72.791015625,50.396484375,-56.3109375,
1749737144.494473,2025-06-12 21:05:44.494,32.30979123610986,-3.356670727539062,-0.16998831787109375,9.217676391601563,14.404580152671755,-2.282442748091603,-3.2900763358778624,74.56640625,48.609375,-55.967578124999996,
1749737144.506565,2025-06-12 21:05:44.506,32.30979123610986,-3.1699229980468746,0.27293898925781246,9.409212524414063,9.946564885496183,-5.343511450381679,-2.8091603053435112,73.3236328125,49.5029296875,-56.4826171875,
1749737144.518628,2025-06-12 21:05:44.518,31.974331326564233,-3.2441432495117186,-1.0414777221679687,8.820238916015624,16.53435114503817,-1.7404580152671756,-3.4122137404580153,73.14609374999999,48.966796875,-55.967578124999996,
1749737144.5312335,2025-06-12 21:05:44.531,32.07017701500584,-2.0183119995117185,1.0031704956054688,8.343792785644531,16.076335877862597,-8.251908396946565,-4.931297709923665,72.791015625,51.46875,-56.3109375,
1749737144.5448186,2025-06-12 21:05:44.544,31.926408482343426,-2.1691467041015624,-0.2705447875976562,8.633491186523438,16.6793893129771,-8.732824427480915,-4.916030534351145,74.03378906249999,49.5029296875,-55.109179687499996,
1749737144.558673,2025-06-12 21:05:44.558,32.07017701500584,-2.023100402832031,0.7326257080078125,9.555258825683593,14.030534351145038,-9.145038167938932,-4.641221374045801,72.4359375,50.396484375,-56.3109375,
1749737144.5722637,2025-06-12 21:05:44.572,32.16602270344745,-1.879448303222656,0.11013327636718749,9.143456140136719,11.664122137404581,-3.7251908396946565,-4.641221374045801,72.6134765625,52.0048828125,-54.7658203125,
1749737144.5858355,2025-06-12 21:05:44.585,32.30979123610986,-2.2577321655273437,-0.737414111328125,9.1554271484375,14.923664122137405,-6.374045801526718,-3.885496183206107,72.9685546875,49.1455078125,-55.109179687499996,
1749737144.6011932,2025-06-12 21:05:44.601,32.357714080330666,-1.7262193969726563,-0.3758896606445312,8.650250598144531,16.885496183206108,-3.1297709923664123,-3.282442748091603,73.3236328125,50.2177734375,-54.4224609375,
1749737144.6150804,2025-06-12 21:05:44.615,32.07017701500584,-2.0350714111328125,-0.229843359375,9.373299499511718,18.290076335877863,-4.809160305343512,-2.49618320610687,72.791015625,50.0390625,-55.280859375,
1749737144.6287022,2025-06-12 21:05:44.628,32.30979123610986,-1.915361328125,0.948103857421875,9.890447058105469,15.687022900763358,-0.17557251908396945,-3.4580152671755724,71.72578125,49.681640625,-54.9375,
1749737144.6422133,2025-06-12 21:05:44.642,32.30979123610986,-1.695094775390625,0.9816226806640624,9.291896643066405,13.419847328244275,-3.404580152671756,-4.419847328244275,73.6787109375,50.5751953125,-55.109179687499996,
1749737144.6559606,2025-06-12 21:05:44.655,32.30979123610986,-2.3247698120117186,2.0470424194335934,10.778695874023438,10.442748091603054,-2.572519083969466,-5.534351145038168,72.25839843749999,50.9326171875,-55.4525390625,
1749737144.6694546,2025-06-12 21:05:44.669,32.30979123610986,-2.080561242675781,1.9656395629882812,10.426748229980468,3.595419847328244,4.862595419847328,-6.938931297709924,72.4359375,51.111328125,-56.654296875,
1749737144.682854,2025-06-12 21:05:44.682,32.93278821098032,-2.384624853515625,-0.43574470214843747,9.368511096191405,8.450381679389313,1.748091603053435,-3.9160305343511452,71.37070312499999,49.32421875,-56.3109375,
1749737144.6964154,2025-06-12 21:05:44.696,32.26186839188906,-3.3327287109375,1.8842367065429686,10.867281335449219,2.7557251908396947,0.5419847328244275,-7.786259541984733,71.5482421875,49.1455078125,-54.7658203125,
1749737144.711415,2025-06-12 21:05:44.711,32.30979123610986,-1.8722656982421875,-0.9792284790039062,9.643844287109374,6.534351145038168,1.7099236641221374,-4.061068702290076,73.501171875,48.609375,-55.967578124999996,
1749737144.7252753,2025-06-12 21:05:44.725,32.07017701500584,-3.8379052612304685,1.254561669921875,10.675745202636719,9.076335877862595,-1.3206106870229009,-3.3740458015267176,74.211328125,50.75390625,-54.9375,
1749737144.7386765,2025-06-12 21:05:44.738,32.16602270344745,-2.7844565307617186,-0.09337386474609374,11.080365283203124,7.580152671755725,3.381679389312977,-2.6030534351145036,73.3236328125,49.5029296875,-53.0490234375,
1749737144.7522924,2025-06-12 21:05:44.752,32.16602270344745,-3.0693665283203124,0.7805097412109374,9.746794958496093,8.274809160305344,7.290076335877862,-2.854961832061069,71.015625,49.32421875,-54.250781249999996,
1749737144.766296,2025-06-12 21:05:44.766,32.30979123610986,-4.043806604003906,-0.9840168823242187,10.213664282226562,8.557251908396946,-1.0610687022900764,-1.534351145038168,72.6134765625,48.0732421875,-56.1392578125,33.088904540779
1749737144.783923,2025-06-12 21:05:44.783,32.07017701500584,-3.2513258544921873,2.3295582153320313,10.230423693847655,3.564885496183206,0.4961832061068702,-2.6030534351145036,74.03378906249999,47.7158203125,-55.7958984375,
1749737144.797464,2025-06-12 21:05:44.797,31.73471710546021,-2.094926452636719,1.0007762939453124,8.099584216308592,-1.16793893129771,-1.2366412213740459,-3.5877862595419847,72.6134765625,50.2177734375,-56.4826171875,
1749737144.8120012,2025-06-12 21:05:44.812,32.45355976877228,-5.260061047363281,2.521094348144531,10.793061083984375,0.10687022900763359,1.465648854961832,-2.1068702290076335,73.501171875,48.966796875,-54.250781249999996,
1749737144.8270183,2025-06-12 21:05:44.827,32.16602270344745,-0.8667010009765624,0.3687070556640625,8.231265307617187,-2.9389312977099236,-14.80916030534351,-4.580152671755725,74.7439453125,49.1455078125,-55.4525390625,
1749737144.841005,2025-06-12 21:05:44.841,32.26186839188906,-1.8531120849609375,-1.1109095703125,9.006986645507812,1.3511450381679388,-14.412213740458014,-0.6412213740458015,,,,33.9623373665092
1749737144.8561158,2025-06-12 21:05:44.856,32.16602270344745,-3.299209887695312,-0.0047884033203125,8.55448253173828,2.1908396946564888,4.763358778625954,0.9007633587786259,72.6134765625,49.1455078125,-56.1392578125,
1749737144.87117,2025-06-12 21:05:44.871,32.16602270344745,-1.9512743530273435,0.47644613037109373,8.827421520996094,5.091603053435114,-5.374045801526718,0.6335877862595419,72.6134765625,49.8603515625,-55.4525390625,
1749737144.8856893,2025-06-12 21:05:44.885,32.118099859226646,-2.9281086303710935,1.3862427612304686,10.070012182617187,5.206106870229007,3.0763358778625953,-1.0763358778625953,73.6787109375,50.5751953125,-55.7958984375,
1749737144.9002519,2025-06-12 21:05:44.900,32.16602270344745,-3.248931652832031,0.4908113403320312,10.007762939453125,3.0763358778625953,1.7328244274809161,-0.5267175572519084,74.211328125,50.0390625,-56.654296875,
1749737144.9146593,2025-06-12 21:05:44.914,32.45355976877228,-3.1124621582031247,0.5195417602539062,9.320627062988281,-2.900763358778626,-3.6030534351145036,-1.3053435114503817,72.25839843749999,48.4306640625,-56.825976562499996,
1749737144.9302635,2025-06-12 21:05:44.930,31.974331326564233,-3.1196447631835937,-0.6488286499023437,9.02135185546875,1.0,1.5267175572519085,0.32061068702290074,72.9685546875,50.9326171875,-55.4525390625,
1749737144.9445841,2025-06-12 21:05:44.944,32.16602270344745,-3.660734338378906,-0.6488286499023437,10.105925207519531,-1.083969465648855,7.801526717557252,0.6335877862595419,72.6134765625,49.5029296875,-56.4826171875,
1749737144.9589708,2025-06-12 21:05:44.958,32.30979123610986,-3.4715924072265625,-0.38307226562499996,8.580818749999999,6.404580152671755,-9.198473282442748,2.030534351145038,74.03378906249999,49.8603515625,-56.1392578125,
1749737144.97322,2025-06-12 21:05:44.973,32.16602270344745,-3.0597897216796874,0.7900865478515624,9.64623848876953,1.6641221374045803,-1.2366412213740459,1.7709923664122138,71.9033203125,48.7880859375,-57.8560546875,
1749737144.987494,2025-06-12 21:05:44.987,32.30979123610986,-4.254496350097656,-0.296881005859375,10.01733974609375,1.5190839694656488,-0.25190839694656486,0.7862595419847328,73.6787109375,49.1455078125,-55.7958984375,
1749737145.0022006,2025-06-12 21:05:45.002,32.357714080330666,-3.6583401367187496,-0.46686932373046874,9.363722692871093,4.748091603053435,-3.83206106870229,3.7099236641221376,71.015625,49.32421875,-54.9375,
1749737145.0164769,2025-06-12 21:05:45.016,32.30979123610986,-2.592920397949219,0.3016694091796875,8.863334545898438,1.0305343511450382,-7.206106870229007,2.0076335877862594,72.080859375,49.32421875,-55.62421875,
1749737145.0306897,2025-06-12 21:05:45.030,32.16602270344745,-3.1220389648437497,-2.906560815429687,8.221688500976562,6.33587786259542,-0.8778625954198473,5.694656488549619,74.03378906249999,48.4306640625,-55.4525390625,
1749737145.0465727,2025-06-12 21:05:45.046,32.30979123610986,-2.8371289672851563,0.46686932373046874,9.179369165039063,11.687022900763358,-5.3893129770992365,4.129770992366412,72.080859375,49.681640625,-55.967578124999996,
1749737145.0610332,2025-06-12 21:05:45.061,32.16602270344745,-2.8898014038085935,-0.15562310791015624,7.75721337890625,5.816793893129771,-0.5572519083969466,3.4580152671755724,73.14609374999999,50.75390625,-56.99765625,
1749737145.075377,2025-06-12 21:05:45.075,32.357714080330666,-2.7748797241210936,-0.40462008056640625,8.166621862792969,10.564885496183207,-3.2595419847328246,2.4427480916030535,73.14609374999999,50.396484375,-56.3109375,
1749737145.0895925,2025-06-12 21:05:45.089,32.16602270344745,-2.9544448486328125,1.1420341918945311,8.98304462890625,0.9847328244274809,-5.320610687022901,2.1374045801526718,73.14609374999999,48.609375,-56.99765625,
1749737145.1039464,2025-06-12 21:05:45.103,32.26186839188906,-1.7381904052734374,-1.3359645263671873,9.282319836425781,10.740458015267176,-9.412213740458014,5.251908396946565,72.25839843749999,49.8603515625,-57.5126953125,
1749737145.1182346,2025-06-12 21:05:45.118,32.357714080330666,-2.834734765625,0.411802685546875,8.432378247070313,9.755725190839694,0.12213740458015267,3.16793893129771,72.9685546875,49.8603515625,-56.4826171875,
1749737145.132439,2025-06-12 21:05:45.132,32.45355976877228,-3.5625720703124997,-0.3016694091796875,9.8449572265625,10.01526717557252,-8.900763358778626,2.145038167938931,72.25839843749999,50.2177734375,-56.825976562499996,
1749737145.1475952,2025-06-12 21:05:45.147,32.16602270344745,-2.2098481323242187,-0.36391865234375,10.970232006835937,8.564885496183207,7.572519083969466,3.045801526717557,72.25839843749999,49.8603515625,-55.4525390625,
1749737145.1621974,2025-06-12 21:05:45.162,31.926408482343426,-4.872200378417968,0.09576806640624999,8.738836059570312,5.541984732824427,3.7251908396946565,0.40458015267175573,71.72578125,52.18359375,-55.967578124999996,
1749737145.176432,2025-06-12 21:05:45.176,32.16602270344745,-5.137956762695312,-1.5370774658203123,8.619125976562499,10.48091603053435,-15.694656488549619,2.1526717557251906,73.6787109375,48.4306640625,-56.1392578125,
1749737145.1906905,2025-06-12 21:05:45.190,32.118099859226646,-2.5570073730468748,2.2553379638671873,9.945513696289062,6.801526717557252,-12.183206106870228,0.015267175572519083,73.14609374999999,48.609375,-57.341015625,
1749737145.2050176,2025-06-12 21:05:45.205,32.30979123610986,-2.9472622436523435,-0.7661445312499999,8.75320126953125,9.32824427480916,1.282442748091603,0.9694656488549618,71.5482421875,49.5029296875,-55.4525390625,
1749737145.2193062,2025-06-12 21:05:45.219,32.16602270344745,-4.163516687011718,0.8068459594726562,9.751583361816406,11.580152671755725,-7.0,-1.6030534351145038,72.791015625,49.681640625,-56.99765625,
1749737145.2335486,2025-06-12 21:05:45.233,32.30979123610986,-3.2249896362304686,1.37906015625,8.98304462890625,2.2748091603053435,-14.48091603053435,-1.6717557251908397,72.6134765625,48.4306640625,-55.7958984375,
1749737145.247872,2025-06-12 21:05:45.247,32.26186839188906,-2.7916391357421872,0.2657563842773437,9.79946739501953,4.221374045801527,-3.1603053435114505,0.5343511450381679,72.791015625,49.681640625,-55.280859375,
1749737145.2627382,2025-06-12 21:05:45.262,32.30979123610986,-3.7229835815429686,-0.8355763793945312,9.964667309570311,9.725190839694656,-8.86259541984733,3.16793893129771,73.85625,49.681640625,-57.341015625,
1749737145.276973,2025-06-12 21:05:45.276,32.16602270344745,-1.1324573852539062,1.1540052001953125,8.741230261230468,5.320610687022901,-5.33587786259542,3.4427480916030535,73.6787109375,50.5751953125,-56.825976562499996,
1749737145.2911541,2025-06-12 21:05:45.291,32.26186839188906,-2.2936451904296873,-0.47644613037109373,8.425195642089843,10.213740458015268,-4.419847328244275,1.213740458015267,72.4359375,50.75390625,-55.967578124999996,
1749737145.305525,2025-06-12 21:05:45.305,32.07017701500584,-2.5737667846679684,1.5753846923828123,9.248801013183593,7.748091603053435,-7.259541984732825,-1.0229007633587786,74.03378906249999,50.2177734375,-55.7958984375,
1749737145.3198702,2025-06-12 21:05:45.319,32.16602270344745,-1.848323681640625,0.6967126831054687,8.518569506835936,5.656488549618321,-2.564885496183206,-0.40458015267175573,73.85625,51.111328125,-54.9375,
1749737145.3340821,2025-06-12 21:05:45.334,32.118099859226646,-2.288856787109375,0.6775590698242188,9.234435803222656,0.5954198473282443,-9.145038167938932,-1.7709923664122138,72.6134765625,49.8603515625,-56.4826171875,
1749737145.3483233,2025-06-12 21:05:45.348,32.30979123610986,-2.3582886352539063,-1.0079588989257813,9.006986645507812,7.1679389312977095,-3.49618320610687,0.366412213740458,73.501171875,48.609375,-55.62421875,34.63688613367771
1749737145.3666282,2025-06-12 21:05:45.366,32.45355976877228,-2.185906115722656,-0.0143652099609375,8.250418920898436,5.122137404580153,-5.190839694656488,0.2748091603053435,72.25839843749999,50.5751953125,-57.5126953125,
1749737145.3817618,2025-06-12 21:05:45.381,31.974331326564233,-4.0988732421875,-0.354341845703125,9.777919580078125,9.320610687022901,-3.145038167938931,2.213740458015267,72.25839843749999,49.5029296875,-55.7958984375,
1749737145.396038,2025-06-12 21:05:45.396,32.16602270344745,-2.7461493041992187,0.9050082275390624,9.952696301269532,2.3053435114503817,-3.687022900763359,3.7404580152671754,71.72578125,48.966796875,-58.027734374999994,
1749737145.4103062,2025-06-12 21:05:45.410,32.07017701500584,-2.636016027832031,0.70868369140625,9.17458076171875,4.458015267175573,-1.5725190839694656,0.9083969465648855,71.9033203125,49.8603515625,-56.1392578125,
1749737145.4245548,2025-06-12 21:05:45.424,32.118099859226646,-2.73896669921875,0.22026655273437498,9.622296472167967,1.984732824427481,-2.068702290076336,0.5801526717557252,72.791015625,50.396484375,-56.3109375,
1749737145.4386816,2025-06-12 21:05:45.438,31.974331326564233,-3.0047230834960934,-0.354341845703125,9.514557397460937,2.7557251908396947,-2.8091603053435112,0.15267175572519084,72.9685546875,50.5751953125,-56.825976562499996,35.04662613020706
1749737145.4569488,2025-06-12 21:05:45.456,32.16602270344745,-2.0302830078125,-0.05985504150390625,8.734047656249999,4.351145038167939,-3.3435114503816794,2.045801526717557,72.791015625,51.46875,-57.341015625,
1749737145.470993,2025-06-12 21:05:45.470,31.974331326564233,-3.284844677734375,-0.3184288208007812,9.45470235595703,5.801526717557252,-0.35877862595419846,2.717557251908397,72.791015625,51.111328125,-56.3109375,
1749737145.485961,2025-06-12 21:05:45.485,32.16602270344745,-2.166752502441406,-1.139639990234375,9.866505041503906,10.763358778625955,-2.946564885496183,3.427480916030534,71.9033203125,49.8603515625,-55.7958984375,
1749737145.5003922,2025-06-12 21:05:45.500,32.26186839188906,-3.421314172363281,1.6328455322265625,10.819397302246093,4.809160305343512,-4.687022900763359,3.2900763358778624,72.080859375,50.0390625,-57.341015625,
1749737145.5146065,2025-06-12 21:05:45.514,32.16602270344745,-2.1619640991210938,-0.8355763793945312,9.258377819824219,9.564885496183207,-5.0,3.33587786259542,72.6134765625,49.1455078125,-55.109179687499996,
1749737145.5289457,2025-06-12 21:05:45.528,31.878485638122623,-2.8898014038085935,0.8954314208984374,9.938331091308592,6.312977099236641,-0.4732824427480916,2.0610687022900764,73.6787109375,49.5029296875,-55.7958984375,34.988995465111074
1749737145.547659,2025-06-12 21:05:45.547,32.30979123610986,-3.6822821533203123,-0.27293898925781246,10.989385620117186,7.244274809160306,-3.5877862595419847,1.3435114503816794,72.791015625,50.75390625,-57.341015625,
1749737145.5620508,2025-06-12 21:05:45.562,32.30979123610986,-2.473210314941406,0.21308394775390624,9.950302099609374,2.236641221374046,0.9847328244274809,0.4961832061068702,70.8380859375,49.5029296875,-56.1392578125,
1749737145.5761743,2025-06-12 21:05:45.576,32.07017701500584,-4.094084838867187,-0.2920926025390625,9.196128576660156,8.763358778625955,-6.778625954198473,1.7251908396946565,72.4359375,49.32421875,-55.62421875,
1749737145.5904503,2025-06-12 21:05:45.590,32.16602270344745,-2.767697119140625,-0.47644613037109373,10.196904870605469,6.534351145038168,0.25190839694656486,2.3053435114503817,72.4359375,50.75390625,-57.341015625,
1749737145.6057813,2025-06-12 21:05:45.605,32.30979123610986,-2.952050646972656,-0.8643067993164062,7.6470801025390625,16.14503816793893,-2.2748091603053435,3.450381679389313,72.080859375,51.111328125,-57.341015625,
1749737145.6200528,2025-06-12 21:05:45.620,32.30979123610986,-2.501940734863281,0.3902548706054687,8.793902697753905,8.603053435114504,-9.435114503816793,2.618320610687023,73.3236328125,50.2177734375,-56.825976562499996,
1749737145.6344392,2025-06-12 21:05:45.634,32.16602270344745,-2.9041666137695312,-1.4604630126953124,8.394071020507813,17.977099236641223,-0.11450381679389313,2.984732824427481,73.3236328125,50.5751953125,-57.1693359375,
1749737145.6486816,2025-06-12 21:05:45.648,31.974331326564233,-2.729389892578125,1.8243816650390623,7.888894470214844,9.755725190839694,-7.137404580152672,-0.3282442748091603,72.9685546875,49.1455078125,-57.5126953125,
1749737145.6628382,2025-06-12 21:05:45.662,32.16602270344745,-3.5673604736328124,-0.7805097412109374,9.054870678710937,12.213740458015268,-8.282442748091603,1.1221374045801527,74.03378906249999,50.9326171875,-57.8560546875,
1749737145.676863,2025-06-12 21:05:45.676,32.07017701500584,-2.4516625,1.0079588989257813,9.052476477050782,8.748091603053435,-0.9007633587786259,1.4580152671755726,72.791015625,50.0390625,-57.684374999999996,
1749737145.691315,2025-06-12 21:05:45.691,32.16602270344745,-3.0454245117187497,-0.4070142822265625,8.104372619628906,10.98473282442748,-8.717557251908397,-0.007633587786259542,71.1931640625,49.1455078125,-57.1693359375,
1749737145.7062938,2025-06-12 21:05:45.706,32.16602270344745,-2.6479870361328124,-0.1197100830078125,10.20887587890625,16.068702290076335,-1.9770992366412214,0.4961832061068702,73.501171875,50.396484375,-56.99765625,
1749737145.7207587,2025-06-12 21:05:45.720,32.16602270344745,-3.327940307617187,0.2705447875976562,8.609549169921875,10.854961832061068,-13.51908396946565,-2.6946564885496183,71.72578125,49.681640625,-56.3109375,
1749737145.7349732,2025-06-12 21:05:45.734,32.30979123610986,-3.0550013183593747,0.0909796630859375,10.958260998535156,15.007633587786259,-8.16793893129771,-1.6106870229007633,74.56640625,50.396484375,-56.3109375,
1749737145.7493565,2025-06-12 21:05:45.749,32.357714080330666,-2.959233251953125,0.5099649536132812,9.478644372558593,10.778625954198473,0.5190839694656488,-1.3893129770992367,73.3236328125,49.8603515625,-56.4826171875,
1749737145.7635865,2025-06-12 21:05:45.763,32.16602270344745,-1.9895815795898437,0.2561795776367187,9.457096557617186,15.664122137404581,-14.030534351145038,1.3053435114503817,72.791015625,49.681640625,-56.3109375,
1749737145.7776234,2025-06-12 21:05:45.777,31.974331326564233,-1.8148048583984373,1.3838485595703125,9.696516723632811,10.82442748091603,-9.236641221374045,-0.12213740458015267,74.56640625,51.111328125,-55.62421875,
1749737145.7919858,2025-06-12 21:05:45.791,32.30979123610986,-3.019088293457031,-0.4477157104492187,8.923189587402343,23.206106870229007,-2.618320610687023,0.5267175572519084,71.5482421875,50.5751953125,-56.825976562499996,
1749737145.8064525,2025-06-12 21:05:45.806,32.16602270344745,-1.8219874633789062,1.7812860351562498,8.882488159179687,11.01526717557252,7.427480916030534,-4.465648854961832,71.5482421875,49.8603515625,-56.4826171875,
1749737145.821642,2025-06-12 21:05:45.821,32.30979123610986,-3.7038299682617186,-0.3064578125,10.256759912109374,19.442748091603054,-7.67175572519084,-2.816793893129771,72.4359375,50.396484375,-55.62421875,
1749737145.8360622,2025-06-12 21:05:45.836,32.07017701500584,-2.224213342285156,2.0254946044921875,8.985438830566405,9.435114503816793,-6.198473282442748,-2.0,72.25839843749999,50.9326171875,-57.5126953125,
1749737145.8504307,2025-06-12 21:05:45.850,32.07017701500584,-1.5466542724609373,-0.7733271362304687,8.626308581542968,17.00763358778626,-3.427480916030534,-5.8320610687022905,71.5482421875,50.2177734375,-55.7958984375,34.82782953417204
1749737145.868513,2025-06-12 21:05:45.868,32.26186839188906,-1.9823989746093749,0.4165910888671875,9.102754711914063,13.312977099236642,-2.7786259541984735,-4.511450381679389,71.5482421875,51.6474609375,-56.1392578125,
1749737145.8826685,2025-06-12 21:05:45.882,32.30979123610986,-2.817975354003906,0.3064578125,9.627084875488281,16.641221374045802,-0.6412213740458015,-2.3206106870229006,72.25839843749999,51.2900390625,-55.7958984375,
1749737145.8968494,2025-06-12 21:05:45.896,32.30979123610986,-2.6384102294921874,1.189918225097656,10.579977136230468,11.366412213740459,4.6183206106870225,-5.038167938931298,74.03378906249999,50.5751953125,-56.4826171875,
1749737145.9112663,2025-06-12 21:05:45.911,31.974331326564233,-2.408566870117187,0.46686932373046874,9.406818322753905,13.366412213740459,-0.5114503816793893,-5.129770992366412,72.791015625,48.966796875,-54.594140625,
1749737145.9256,2025-06-12 21:05:45.925,32.16602270344745,-3.0789433349609374,0.5315127685546874,9.789890588378906,15.335877862595419,7.801526717557252,-2.854961832061069,72.4359375,47.537109375,-56.654296875,
1749737145.9407747,2025-06-12 21:05:45.940,32.07017701500584,-4.388571643066406,1.936909143066406,10.673351000976561,6.969465648854962,-0.9694656488549618,-4.687022900763359,72.9685546875,52.3623046875,-55.4525390625,34.34529762319471
1749737145.9591238,2025-06-12 21:05:45.959,32.45355976877228,-3.5625720703124997,0.8690952026367187,10.096348400878906,14.534351145038167,-4.0534351145038165,-4.557251908396947,73.3236328125,49.1455078125,-55.109179687499996,
1749737145.9735603,2025-06-12 21:05:45.973,31.974331326564233,-3.361459130859375,2.8227637573242186,9.490615380859374,-0.06870229007633588,1.5954198473282444,-3.9618320610687023,73.501171875,50.0390625,-56.3109375,
1749737145.9877732,2025-06-12 21:05:45.987,32.16602270344745,-5.4899044067382805,-0.3280056274414062,9.287108239746093,7.1603053435114505,10.679389312977099,-5.717557251908397,72.791015625,50.0390625,-57.684374999999996,
1749737146.001866,2025-06-12 21:05:46.001,32.16602270344745,-3.2704794677734372,3.0358477050781247,9.519345800781249,-0.06870229007633588,-8.099236641221374,-6.977099236641221,72.4359375,50.396484375,-54.594140625,
1749737146.0161378,2025-06-12 21:05:46.016,32.16602270344745,-2.068590234375,-0.1197100830078125,9.718064538574218,2.595419847328244,-4.603053435114504,-4.473282442748092,74.211328125,50.396484375,-56.99765625,
1749737146.0303118,2025-06-12 21:05:46.030,32.26186839188906,-3.21780703125,1.0702081420898437,8.757989672851561,5.4961832061068705,6.679389312977099,-3.2595419847328246,71.9033203125,48.7880859375,-55.4525390625,33.99276130581268
1749737146.0492947,2025-06-12 21:05:46.049,32.16602270344745,-3.2561142578125,0.6560112548828124,8.817844714355468,-3.030534351145038,-6.519083969465649,-5.656488549618321,72.6134765625,50.5751953125,-56.1392578125,
1749737146.0634992,2025-06-12 21:05:46.063,32.16602270344745,-3.1364041748046874,-0.105344873046875,8.75320126953125,2.6564885496183206,-0.7404580152671756,-3.015267175572519,71.72578125,48.609375,-55.967578124999996,
1749737146.0776463,2025-06-12 21:05:46.077,32.16602270344745,-3.77326181640625,1.2330138549804688,7.654262707519531,-2.4427480916030535,4.419847328244275,-2.3206106870229006,72.6134765625,48.0732421875,-56.825976562499996,
1749737146.091873,2025-06-12 21:05:46.091,31.974331326564233,-3.5098996337890624,-1.8435352783203125,8.540117321777343,-1.2213740458015268,10.977099236641221,-1.6488549618320612,71.1931640625,49.8603515625,-57.8560546875,
1749737146.1061287,2025-06-12 21:05:46.106,32.26186839188906,-3.9600095458984375,1.714248388671875,9.770736975097655,-1.381679389312977,-2.4732824427480917,-1.5801526717557253,72.9685546875,49.1455078125,-56.825976562499996,
1749737146.1203985,2025-06-12 21:05:46.120,32.26186839188906,-2.1547814941406247,-0.5195417602539062,7.860164050292968,-7.816793893129771,2.549618320610687,-1.9618320610687023,72.6134765625,48.4306640625,-56.1392578125,
1749737146.1346645,2025-06-12 21:05:46.134,32.16602270344745,-3.430890979003906,0.13646949462890623,10.496180078124999,1.3129770992366412,-5.908396946564886,-1.4045801526717556,72.4359375,50.75390625,-55.967578124999996,
1749737146.1490097,2025-06-12 21:05:46.149,32.30979123610986,-2.3774422485351563,-0.15562310791015624,11.532869396972655,-9.641221374045802,3.5419847328244276,0.8931297709923665,71.9033203125,49.8603515625,-56.825976562499996,
1749737146.1640694,2025-06-12 21:05:46.164,32.30979123610986,-2.4756045166015626,-0.7589619262695312,8.951920007324219,3.2900763358778624,1.5877862595419847,0.06870229007633588,73.6787109375,49.5029296875,-58.1994140625,
1749737146.1783807,2025-06-12 21:05:46.178,32.16602270344745,-2.8850130004882812,-0.023942016601562498,10.232817895507813,-2.3893129770992365,-1.4274809160305344,3.3206106870229006,72.4359375,49.32421875,-56.99765625,
1749737146.1926522,2025-06-12 21:05:46.192,31.926408482343426,-4.256890551757812,-1.7956512451171873,10.824185705566405,5.633587786259542,2.450381679389313,3.7938931297709924,72.25839843749999,49.5029296875,-56.1392578125,
1749737146.206941,2025-06-12 21:05:46.206,32.16602270344745,-3.2513258544921873,1.0797849487304687,9.662997900390625,1.0381679389312977,-5.33587786259542,2.5877862595419847,72.6134765625,49.5029296875,-55.109179687499996,
1749737146.221244,2025-06-12 21:05:46.221,32.07017701500584,-3.1507693847656246,-1.0103531005859374,9.334992272949219,-1.6030534351145038,-1.7709923664122138,1.4732824427480915,73.501171875,49.32421875,-57.684374999999996,
1749737146.2358062,2025-06-12 21:05:46.235,32.357714080330666,-4.189852905273438,-1.9129671264648436,9.986215124511718,6.66412213740458,-3.6946564885496183,4.068702290076335,73.14609374999999,50.396484375,-56.99765625,
1749737146.2501047,2025-06-12 21:05:46.250,32.357714080330666,-2.5234885498046875,-0.4525041137695312,8.528146313476562,3.183206106870229,1.6564885496183206,2.282442748091603,71.5482421875,51.2900390625,-57.1693359375,
1749737146.2644422,2025-06-12 21:05:46.264,32.16602270344745,-3.7205893798828122,-1.9967641845703124,8.851363537597656,7.900763358778626,1.7251908396946565,4.137404580152672,73.3236328125,50.9326171875,-57.1693359375,
1749737146.2795439,2025-06-12 21:05:46.279,32.16602270344745,-3.4524387939453125,-1.2593500732421874,9.947907897949218,13.648854961832061,-1.9770992366412214,6.541984732824427,72.6134765625,50.5751953125,-56.4826171875,
1749737146.2937715,2025-06-12 21:05:46.293,32.26186839188906,-2.959233251953125,0.4261678955078125,6.756437084960937,8.511450381679388,0.7251908396946565,2.1755725190839694,72.4359375,50.396484375,-56.99765625,
1749737146.3080642,2025-06-12 21:05:46.308,32.26186839188906,-3.5122938354492184,-0.8547299926757812,8.59997236328125,12.297709923664122,-7.022900763358779,3.5267175572519083,73.6787109375,49.5029296875,-57.5126953125,
1749737146.3224745,2025-06-12 21:05:46.322,31.974331326564233,-3.028665100097656,-0.21787235107421873,8.71489404296875,14.526717557251908,-5.374045801526718,4.282442748091603,73.14609374999999,50.75390625,-56.654296875,34.57650419281397
1749737146.3405898,2025-06-12 21:05:46.340,32.357714080330666,-2.090138049316406,-0.6296750366210937,9.22485899658203,10.98473282442748,3.7404580152671754,3.648854961832061,71.1931640625,49.8603515625,-57.1693359375,
1749737146.3546834,2025-06-12 21:05:46.354,32.16602270344745,-4.144363073730468,-0.22505495605468748,9.777919580078125,13.16793893129771,-9.763358778625955,1.0687022900763359,73.3236328125,48.4306640625,-56.825976562499996,
1749737146.3689826,2025-06-12 21:05:46.368,32.16602270344745,-3.785232824707031,0.7398083129882812,9.296685046386719,13.381679389312977,-9.83969465648855,0.1984732824427481,71.72578125,50.0390625,-55.967578124999996,
1749737146.3849022,2025-06-12 21:05:46.384,32.16602270344745,-2.5522189697265625,1.5825672973632812,10.970232006835937,6.778625954198473,5.404580152671755,-1.183206106870229,73.501171875,50.75390625,-57.684374999999996,
1749737146.399336,2025-06-12 21:05:46.399,32.30979123610986,-3.9695863525390624,-0.6919242797851562,9.351751684570312,13.320610687022901,-2.1526717557251906,-0.5190839694656488,73.3236328125,49.8603515625,-57.5126953125,
1749737146.4136443,2025-06-12 21:05:46.413,32.45355976877228,-3.153163586425781,1.3958195678710936,10.146626635742187,12.297709923664122,-15.961832061068701,-1.213740458015267,72.080859375,50.396484375,-56.99765625,
1749737146.42804,2025-06-12 21:05:46.428,32.357714080330666,-4.8314989501953125,-1.599326708984375,9.169792358398437,12.946564885496183,3.3740458015267176,-1.0763358778625953,74.211328125,51.111328125,-56.99765625,
1749737146.4421659,2025-06-12 21:05:46.442,32.16602270344745,-4.4819455078125,-0.5027823486328125,8.86812294921875,21.221374045801525,-6.3816793893129775,0.40458015267175573,71.9033203125,50.2177734375,-56.4826171875,
1749737146.4562833,2025-06-12 21:05:46.456,32.16602270344745,-3.2249896362304686,1.2138602416992186,10.611101757812499,13.114503816793894,-9.954198473282442,1.702290076335878,72.080859375,48.966796875,-57.341015625,
1749737146.4703553,2025-06-12 21:05:46.470,32.16602270344745,-2.645592834472656,-0.411802685546875,8.494627490234375,14.267175572519085,-10.129770992366412,0.916030534351145,73.501171875,49.681640625,-57.684374999999996,
1749737146.4845707,2025-06-12 21:05:46.484,32.16602270344745,-3.418919970703125,1.0103531005859374,8.75320126953125,15.526717557251908,-9.763358778625955,1.8854961832061068,73.3236328125,49.1455078125,-56.825976562499996,
1749737146.4995744,2025-06-12 21:05:46.499,31.974331326564233,-2.6695348510742187,0.011971008300781249,9.418789331054686,13.82442748091603,-3.8473282442748094,0.6183206106870229,72.4359375,50.396484375,-56.3109375,
1749737146.5138612,2025-06-12 21:05:46.513,32.30979123610986,-2.6240450195312497,-0.16519991455078123,8.12113203125,10.969465648854962,-4.083969465648855,0.15267175572519084,73.14609374999999,50.0390625,-55.62421875,
1749737146.528083,2025-06-12 21:05:46.528,32.30979123610986,-3.5506010620117183,0.5051765502929687,9.828197814941406,11.244274809160306,-8.091603053435115,0.8778625954198473,72.4359375,49.681640625,-56.3109375,
1749737146.542765,2025-06-12 21:05:46.542,32.26186839188906,-2.346317626953125,0.4740519287109375,9.248801013183593,11.473282442748092,-2.2748091603053435,0.11450381679389313,73.14609374999999,49.32421875,-55.967578124999996,
1749737146.5570717,2025-06-12 21:05:46.557,32.26186839188906,-3.593696691894531,0.3280056274414062,8.853757739257812,9.65648854961832,-3.8702290076335877,-0.2824427480916031,74.3888671875,48.7880859375,-56.4826171875,
1749737146.5713017,2025-06-12 21:05:46.571,32.357714080330666,-3.124433166503906,0.2753331909179687,9.718064538574218,9.80916030534351,-6.374045801526718,1.1068702290076335,72.791015625,50.0390625,-56.654296875,
1749737146.585523,2025-06-12 21:05:46.585,32.16602270344745,-2.5761609863281247,0.28730419921875,8.920795385742187,13.053435114503817,0.2900763358778626,0.35877862595419846,73.85625,50.0390625,-56.99765625,
1749737146.5998557,2025-06-12 21:05:46.599,32.30979123610986,-3.7517140014648436,0.6177040283203125,8.875305554199219,10.587786259541986,-7.977099236641221,1.8244274809160306,72.4359375,48.609375,-56.654296875,
1749737146.615108,2025-06-12 21:05:46.615,32.16602270344745,-3.7612908081054686,0.10773907470703124,9.897629663085937,15.473282442748092,-4.66412213740458,1.1603053435114503,72.9685546875,52.0048828125,-57.8560546875,
1749737146.629574,2025-06-12 21:05:46.629,32.26186839188906,-3.782838623046875,1.3551181396484375,8.889670764160156,11.198473282442748,1.3358778625954197,-0.4122137404580153,72.25839843749999,48.4306640625,-56.825976562499996,
1749737146.643669,2025-06-12 21:05:46.643,32.16602270344745,-3.5601778686523438,0.316034619140625,7.898471276855468,9.954198473282442,-8.366412213740459,-0.22137404580152673,73.6787109375,48.7880859375,-56.1392578125,34.475604501664655
1749737146.6617541,2025-06-12 21:05:46.661,32.26186839188906,-3.706224169921875,1.4820108276367188,9.064447485351561,9.022900763358779,-7.1603053435114505,0.1450381679389313,72.4359375,49.681640625,-55.280859375,
1749737146.675873,2025-06-12 21:05:46.675,32.357714080330666,-2.683900061035156,0.0143652099609375,8.532934716796875,10.465648854961833,-5.251908396946565,-1.6030534351145038,72.791015625,50.396484375,-55.280859375,
1749737146.6898856,2025-06-12 21:05:46.689,32.30979123610986,-2.5139117431640625,0.7158662963867187,7.931990100097655,10.412213740458014,-7.038167938931298,-0.5343511450381679,73.501171875,51.111328125,-55.280859375,
1749737146.7038705,2025-06-12 21:05:46.703,31.878485638122623,-3.679887951660156,0.22744915771484372,9.890447058105469,11.305343511450381,-5.885496183206107,-0.648854961832061,71.9033203125,49.1455078125,-56.1392578125,
1749737146.7205489,2025-06-12 21:05:46.720,32.45355976877228,-2.2481553588867187,0.44053310546874996,10.046070166015625,8.755725190839694,2.3206106870229006,0.08396946564885496,72.25839843749999,49.8603515625,-55.4525390625,
1749737146.735978,2025-06-12 21:05:46.735,32.26186839188906,-3.801992236328125,0.40222587890625,8.353369592285155,7.358778625954199,-9.320610687022901,-1.1450381679389312,72.080859375,50.0390625,-54.9375,
1749737146.7518306,2025-06-12 21:05:46.751,32.118099859226646,-2.9568390502929685,0.39743747558593745,9.871293444824218,6.916030534351145,-4.938931297709924,-1.1450381679389312,74.03378906249999,50.5751953125,-55.4525390625,
1749737146.7646158,2025-06-12 21:05:46.764,32.26186839188906,-2.710236279296875,0.5219359619140624,9.562441430664062,8.694656488549619,-2.9770992366412212,-1.0381679389312977,72.791015625,51.46875,-55.62421875,34.43669914997285
1749737146.781927,2025-06-12 21:05:46.781,32.16602270344745,-2.3415292236328122,0.0047884033203125,10.184933862304687,6.427480916030534,-2.0763358778625953,-0.16793893129770993,71.9033203125,50.2177734375,-56.4826171875,
1749737146.7955613,2025-06-12 21:05:46.795,32.30979123610986,-3.2249896362304686,0.1149216796875,10.611101757812499,12.251908396946565,-7.0,-1.2442748091603053,72.25839843749999,49.5029296875,-56.1392578125,
1749737146.8090267,2025-06-12 21:05:46.809,31.974331326564233,-3.181894006347656,0.9983820922851562,10.187328063964843,5.977099236641221,-1.2900763358778626,-2.045801526717557,74.03378906249999,50.5751953125,-57.1693359375,
1749737146.8241472,2025-06-12 21:05:46.824,32.30979123610986,-2.243366955566406,0.9337386474609375,9.390058911132812,7.099236641221374,-7.961832061068702,-0.061068702290076333,72.25839843749999,50.2177734375,-55.7958984375,
1749737146.8373961,2025-06-12 21:05:46.837,32.26186839188906,-2.0925322509765625,0.17477672119140625,9.586383447265625,5.534351145038168,-7.923664122137405,-1.8625954198473282,74.211328125,48.251953125,-55.62421875,
1749737146.8503397,2025-06-12 21:05:46.850,32.16602270344745,-2.2768857788085937,0.1484405029296875,8.951920007324219,7.8320610687022905,-4.702290076335878,-1.0305343511450382,71.37070312499999,48.966796875,-56.99765625,
1749737146.863556,2025-06-12 21:05:46.863,32.07017701500584,-2.4444798950195312,0.36391865234375,8.980650427246093,7.748091603053435,1.83206106870229,-1.9236641221374047,72.6134765625,51.2900390625,-55.7958984375,
1749737146.876354,2025-06-12 21:05:46.876,32.26186839188906,-3.9815573608398434,-0.9337386474609375,9.981426721191406,9.65648854961832,-0.4961832061068702,-0.12213740458015267,73.14609374999999,50.396484375,-56.99765625,
1749737146.8891416,2025-06-12 21:05:46.889,32.26186839188906,-3.5913024902343746,-0.679953271484375,9.421183532714844,12.877862595419847,-1.2748091603053435,0.8244274809160306,,,,
1749737146.8988194,2025-06-12 21:05:46.898,31.974331326564233,-1.3766659545898436,0.35673604736328124,9.5384994140625,11.389312977099237,-5.8320610687022905,-0.5114503816793893,73.3236328125,49.5029296875,-56.1392578125,
1749737146.9116514,2025-06-12 21:05:46.911,31.83056279390182,-2.920926025390625,0.82360537109375,9.8449572265625,9.13740458015267,-7.67175572519084,-0.42748091603053434,73.3236328125,49.5029296875,-56.1392578125,
