timestamp_unix,timestamp_readable,temp_c,accel_x,accel_y,accel_z,gyro_x,gyro_y,gyro_z,mag_x,mag_y,mag_z,heading
1749736580.3775554,2025-06-12 20:56:20.377,31.83056279390182,-0.28490999755859375,1.886630908203125,8.432378247070313,-3.633587786259542,2.381679389312977,-2.480916030534351,71.5482421875,50.9326171875,-60.259570312499996,
1749736580.3922975,2025-06-12 20:56:20.392,31.6388714170186,-7.52737001953125,2.032677209472656,13.02445703125,19.6793893129771,19.9618320610687,2.427480916030534,72.080859375,51.46875,-59.0578125,
1749736580.4054248,2025-06-12 20:56:20.405,31.73471710546021,-0.5578489868164063,3.536235852050781,11.774683764648437,4.66412213740458,-5.198473282442748,-2.6564885496183206,74.211328125,52.8984375,-59.0578125,
1749736580.4182675,2025-06-12 20:56:20.418,32.07017701500584,-6.655880615234374,-0.5051765502929687,-1.3814543579101561,5.435114503816794,0.732824427480916,-3.183206106870229,73.85625,54.685546875,-59.744531249999994,
1749736580.4317508,2025-06-12 20:56:20.431,32.40563692455147,-5.097255334472656,-5.044582897949218,11.319785449218749,30.076335877862597,-5.809160305343512,9.473282442748092,71.9033203125,52.3623046875,-60.9462890625,
1749736580.4457886,2025-06-12 20:56:20.445,30.96795159792734,-9.258377819824219,3.4931402221679684,8.054094384765625,7.091603053435114,47.732824427480914,5.00763358778626,73.3236328125,53.0771484375,-59.9162109375,
1749736580.4602191,2025-06-12 20:56:20.460,31.974331326564233,3.1220389648437497,3.6248213134765623,9.220070593261719,1.1221374045801527,-27.358778625954198,-9.702290076335878,73.85625,51.826171875,-60.087890625,
1749736580.4740665,2025-06-12 20:56:20.474,30.96795159792734,6.0333881835937495,-1.4030021728515625,13.318943835449218,15.01526717557252,-75.90076335877863,2.83206106870229,73.14609374999999,52.541015625,-60.774609375,
1749736580.4878953,2025-06-12 20:56:20.487,31.83056279390182,-6.643909606933593,-1.927332336425781,7.539341027832031,26.82442748091603,76.19083969465649,2.030534351145038,71.37070312499999,54.328125,-59.401171874999996,
1749736580.5016394,2025-06-12 20:56:20.501,31.73471710546021,2.418143676757812,-0.63206923828125,18.84655691833496,1.900763358778626,39.36641221374046,-3.2442748091603053,73.501171875,53.255859375,-59.0578125,
1749736580.5168464,2025-06-12 20:56:20.516,31.83056279390182,-12.327744348144531,1.139639990234375,2.403778466796875,21.603053435114504,-3.427480916030534,-2.3435114503816794,74.56640625,51.46875,-59.744531249999994,
1749736580.5307064,2025-06-12 20:56:20.530,31.782639949681013,5.080495922851562,2.9927520751953125,5.875370874023437,-3.1755725190839694,2.312977099236641,3.282442748091603,72.25839843749999,52.3623046875,-60.259570312499996,
1749736580.5449173,2025-06-12 20:56:20.544,31.782639949681013,-16.871939099121093,-6.593631372070312,10.369287390136718,21.0381679389313,31.702290076335878,0.0916030534351145,73.6787109375,51.2900390625,-60.602929687499994,
1749736580.5588632,2025-06-12 20:56:20.558,31.782639949681013,8.300697155761718,5.221753820800781,8.882488159179687,16.72519083969466,-32.12213740458015,-1.1221374045801527,72.9685546875,53.4345703125,-60.602929687499994,
1749736580.572479,2025-06-12 20:56:20.572,31.926408482343426,4.3430818115234375,-3.5290532470703124,1.47482822265625,13.13740458015267,27.893129770992367,-9.282442748091603,72.4359375,52.8984375,-61.117968749999996,
1749736580.5860958,2025-06-12 20:56:20.586,31.974331326564233,-9.95987890625,-0.296881005859375,19.517531933593748,3.3587786259541983,-62.969465648854964,-1.984732824427481,72.791015625,53.61328125,-59.401171874999996,35.55841140226311
1749736580.6038358,2025-06-12 20:56:20.603,31.01587444214814,-14.57589970703125,0.22026655273437498,-3.028665100097656,5.488549618320611,12.083969465648854,-16.14503816793893,73.501171875,54.328125,-59.744531249999994,
1749736580.6175685,2025-06-12 20:56:20.617,31.926408482343426,5.6215854980468745,0.9457096557617187,6.4284314575195305,-5.801526717557252,11.221374045801527,-2.801526717557252,71.9033203125,52.3623046875,-60.9462890625,
1749736580.6335173,2025-06-12 20:56:20.633,31.974331326564233,-13.723563916015625,-1.5490484741210937,11.2240173828125,17.9618320610687,-16.549618320610687,10.183206106870228,74.211328125,51.46875,-61.461328124999994,
1749736580.6476836,2025-06-12 20:56:20.647,31.73471710546021,11.022904443359375,4.563348364257812,14.38436357421875,6.801526717557252,62.69465648854962,4.8396946564885495,72.080859375,53.61328125,-59.401171874999996,
1749736580.6614504,2025-06-12 20:56:20.661,31.782639949681013,-13.692439294433592,-4.395754248046875,7.151480358886718,19.0,-20.82442748091603,-3.9236641221374047,72.9685546875,52.7197265625,-61.6330078125,
1749736580.6750388,2025-06-12 20:56:20.675,31.590948572797796,4.975151049804687,0.055066638183593745,14.405911389160156,22.64885496183206,-1.7328244274809161,13.404580152671755,71.1931640625,53.0771484375,-60.259570312499996,
1749736580.6888084,2025-06-12 20:56:20.688,32.357714080330666,-18.96925975341797,2.070984436035156,-2.834734765625,5.740458015267175,50.42748091603053,-0.916030534351145,72.25839843749999,53.4345703125,-60.259570312499996,
1749736580.7022483,2025-06-12 20:56:20.702,31.782639949681013,2.310404602050781,-4.6351744140625,19.13445966796875,20.65648854961832,23.72519083969466,0.15267175572519084,74.7439453125,50.5751953125,-59.5728515625,
1749736580.715707,2025-06-12 20:56:20.715,31.926408482343426,-6.794744311523437,0.062249243164062495,9.64623848876953,5.030534351145038,94.58015267175573,4.732824427480916,72.791015625,53.255859375,-61.461328124999994,
1749736580.729309,2025-06-12 20:56:20.729,32.40563692455147,-2.0087351928710935,3.9624037475585934,3.6200329101562496,7.893129770992366,-43.66412213740458,2.900763358778626,72.6134765625,51.2900390625,-60.259570312499996,
1749736580.7445238,2025-06-12 20:56:20.744,31.974331326564233,-7.742848168945312,-5.645527514648437,15.095441467285156,26.82442748091603,55.30534351145038,0.9465648854961832,72.25839843749999,51.6474609375,-59.2294921875,
1749736580.7583325,2025-06-12 20:56:20.758,32.357714080330666,-10.31661495361328,2.427720483398437,6.672640026855468,18.549618320610687,26.557251908396946,9.366412213740459,72.080859375,53.970703125,-59.744531249999994,
1749736580.7719371,2025-06-12 20:56:20.771,31.83056279390182,5.923254907226562,3.660734338378906,8.736441857910156,6.206106870229007,-56.969465648854964,-1.3587786259541985,72.791015625,53.255859375,-60.774609375,
1749736580.7854602,2025-06-12 20:56:20.785,32.357714080330666,3.976768957519531,-8.252813122558594,11.188104357910156,15.48091603053435,14.572519083969466,4.877862595419847,72.6134765625,52.7197265625,-60.9462890625,
1749736580.7992811,2025-06-12 20:56:20.799,31.926408482343426,-11.92551846923828,4.084508032226562,5.738901379394531,16.282442748091604,72.58015267175573,-11.32824427480916,72.4359375,52.8984375,-61.461328124999994,
1749736580.8129506,2025-06-12 20:56:20.812,31.73471710546021,-4.972756848144531,-5.540182641601562,-3.957615344238281,6.145038167938932,-82.32824427480917,-6.435114503816794,72.9685546875,53.0771484375,-60.9462890625,
1749736580.8265278,2025-06-12 20:56:20.826,32.40563692455147,5.556942053222656,-1.867477294921875,19.61270144958496,19.46564885496183,51.541984732824424,-3.145038167938931,72.9685546875,51.2900390625,-60.259570312499996,
1749736580.8402371,2025-06-12 20:56:20.840,31.83056279390182,-10.874463940429687,4.6639048339843745,8.145074047851562,9.13740458015267,18.213740458015266,7.244274809160306,72.4359375,52.541015625,-58.714453125,
1749736580.8551211,2025-06-12 20:56:20.855,31.926408482343426,-0.2657563842773437,0.3854664672851562,7.989450939941406,-0.07633587786259542,-10.412213740458014,-0.9083969465648855,73.14609374999999,53.61328125,-60.43125,
1749736580.8689308,2025-06-12 20:56:20.868,32.357714080330666,1.4221557861328125,0.46686932373046874,11.267113012695312,14.129770992366412,-49.76335877862596,5.748091603053435,72.25839843749999,51.6474609375,-61.2896484375,
1749736580.882527,2025-06-12 20:56:20.882,31.926408482343426,-10.347739575195313,3.0621839233398433,2.133233679199219,18.9618320610687,36.213740458015266,5.824427480916031,72.080859375,52.8984375,-59.0578125,
1749736580.8961189,2025-06-12 20:56:20.896,31.83056279390182,-4.295197778320312,-0.4165910888671875,2.281674182128906,6.6183206106870225,-24.770992366412212,-0.8854961832061069,73.3236328125,52.7197265625,-59.5728515625,
1749736580.9096084,2025-06-12 20:56:20.909,31.73471710546021,1.7836802368164062,-7.053318090820312,15.784971545410155,23.31297709923664,-33.64885496183206,14.305343511450381,73.14609374999999,52.18359375,-58.714453125,
1749736580.9230876,2025-06-12 20:56:20.923,31.83056279390182,6.53138212890625,2.2673089721679687,7.934384301757812,11.312977099236642,-27.251908396946565,5.702290076335878,73.14609374999999,53.970703125,-60.774609375,
1749736580.936638,2025-06-12 20:56:20.936,31.974331326564233,-3.19865341796875,3.878606689453125,6.0525417968749995,3.2900763358778624,-16.64885496183206,-5.259541984732825,73.6787109375,53.0771484375,-60.602929687499994,
1749736580.9502792,2025-06-12 20:56:20.950,31.83056279390182,-7.979874133300781,0.6248866333007812,13.711592907714843,8.702290076335878,-80.25954198473282,0.5725190839694656,72.9685546875,52.0048828125,-59.2294921875,
1749736580.9658675,2025-06-12 20:56:20.965,31.73471710546021,3.0837317382812497,3.778050219726562,9.150638745117186,16.946564885496183,28.015267175572518,8.045801526717558,74.03378906249999,55.2216796875,-59.9162109375,
1749736580.9796572,2025-06-12 20:56:20.979,31.782639949681013,1.0366893188476562,3.9887399658203124,16.64448994140625,-0.37404580152671757,-23.66412213740458,-3.1755725190839694,73.3236328125,52.7197265625,-59.9162109375,
1749736580.9932642,2025-06-12 20:56:20.993,31.73471710546021,1.0414777221679687,0.5817910034179687,13.88636962890625,19.198473282442748,22.358778625954198,-4.251908396946565,73.6787109375,51.2900390625,-60.259570312499996,
1749736581.0068972,2025-06-12 20:56:21.006,32.357714080330666,-5.487510205078125,2.001552587890625,8.25520732421875,0.3893129770992366,33.17557251908397,-5.366412213740458,72.4359375,52.18359375,-60.774609375,
1749736581.0204725,2025-06-12 20:56:21.020,31.782639949681013,-8.916006982421875,-1.1061211669921875,11.240776794433593,8.374045801526718,-25.709923664122137,-0.1297709923664122,72.9685546875,52.0048828125,-59.9162109375,
1749736581.0339742,2025-06-12 20:56:21.033,31.782639949681013,0.06943184814453125,-1.0893617553710937,13.388375683593749,6.1679389312977095,58.900763358778626,-1.8854961832061068,72.6134765625,51.6474609375,-60.259570312499996,
1749736581.0474203,2025-06-12 20:56:21.047,31.01587444214814,-7.931990100097655,4.13718046875,0.7637503295898437,5.015267175572519,16.00763358778626,11.961832061068701,72.791015625,53.255859375,-60.087890625,
1749736581.0609725,2025-06-12 20:56:21.060,31.926408482343426,8.212111694335936,2.5737667846679684,15.619771630859374,4.8396946564885495,-6.183206106870229,-5.022900763358779,72.791015625,51.826171875,-58.714453125,
1749736581.0756545,2025-06-12 20:56:21.075,31.926408482343426,-5.655104321289063,3.0502129150390624,19.54865655517578,23.290076335877863,117.2824427480916,-0.2366412213740458,72.6134765625,51.6474609375,-60.9462890625,
1749736581.0892437,2025-06-12 20:56:21.089,31.782639949681013,-4.129997863769531,6.8976949829101555,7.781155395507812,1.83206106870229,-37.87786259541985,17.702290076335878,73.3236328125,52.7197265625,-59.9162109375,
1749736581.1028976,2025-06-12 20:56:21.102,32.357714080330666,-5.983109948730468,-4.900930798339844,15.87116280517578,-2.4427480916030535,45.083969465648856,2.0,71.72578125,52.541015625,-60.43125,
1749736581.116379,2025-06-12 20:56:21.116,31.73471710546021,-8.532934716796875,-1.3383587280273437,12.993332409667968,27.641221374045802,54.6793893129771,-12.312977099236642,73.14609374999999,51.826171875,-59.744531249999994,
1749736581.129999,2025-06-12 20:56:21.129,31.73471710546021,2.93050283203125,-2.109291662597656,1.426944189453125,-4.67175572519084,-98.03053435114504,7.251908396946565,72.25839843749999,53.4345703125,-60.259570312499996,
1749736581.1435506,2025-06-12 20:56:21.143,31.926408482343426,4.2329485351562495,-2.2002713256835937,16.53675086669922,-0.17557251908396945,40.30534351145038,-1.4351145038167938,73.501171875,52.541015625,-60.43125,
1749736581.1571088,2025-06-12 20:56:21.157,31.926408482343426,-17.666814050292967,-2.003946789550781,2.0254946044921875,17.366412213740457,50.51908396946565,3.595419847328244,72.6134765625,52.7197265625,-61.6330078125,
1749736581.1706693,2025-06-12 20:56:21.170,32.40563692455147,2.1356278808593747,3.3446997192382812,7.943961108398437,-1.6946564885496183,-14.038167938931299,0.04580152671755725,72.25839843749999,54.1494140625,-61.2896484375,
1749736581.1852784,2025-06-12 20:56:21.185,31.83056279390182,-6.928819604492187,3.0262708984374997,14.183250634765624,14.083969465648854,-80.70992366412214,3.099236641221374,70.660546875,51.111328125,-60.087890625,
1749736581.1993313,2025-06-12 20:56:21.199,32.40563692455147,6.016628771972656,3.5146880371093747,13.412317700195311,6.977099236641221,-4.862595419847328,-1.7099236641221374,73.501171875,52.8984375,-59.744531249999994,
1749736581.2130005,2025-06-12 20:56:21.213,31.782639949681013,-8.240842114257813,-0.5195417602539062,-0.1484405029296875,2.7251908396946565,2.16793893129771,-0.007633587786259542,72.791015625,53.970703125,-60.43125,
1749736581.226555,2025-06-12 20:56:21.226,31.974331326564233,-14.858415502929686,-3.6727053466796873,18.21987463378906,10.86259541984733,48.68702290076336,7.465648854961832,72.6134765625,51.2900390625,-61.2896484375,
1749736581.2401807,2025-06-12 20:56:21.240,31.01587444214814,-11.252747802734374,-3.3159692993164063,4.316745593261719,1.8396946564885497,-66.87786259541984,11.083969465648854,72.25839843749999,53.0771484375,-60.259570312499996,
1749736581.2537704,2025-06-12 20:56:21.253,31.782639949681013,8.846575134277343,-1.5466542724609373,11.69567510986328,-5.977099236641221,47.778625954198475,0.030534351145038167,73.501171875,52.541015625,-61.117968749999996,
1749736581.2672951,2025-06-12 20:56:21.267,31.83056279390182,-9.593566052246093,-2.971204260253906,9.603142858886718,16.908396946564885,-29.52671755725191,3.7557251908396947,73.14609374999999,52.541015625,-60.087890625,
1749736581.2811003,2025-06-12 20:56:21.281,31.782639949681013,0.17477672119140625,2.185906115722656,7.721300354003906,16.709923664122137,8.442748091603054,0.2748091603053435,73.6787109375,53.4345703125,-60.602929687499994,
1749736581.2957335,2025-06-12 20:56:21.295,31.83056279390182,-2.612074011230469,-4.266467358398438,5.6407391113281244,4.206106870229007,-94.0,2.9618320610687023,74.3888671875,52.0048828125,-60.602929687499994,
1749736581.3098724,2025-06-12 20:56:21.309,31.782639949681013,1.714248388671875,1.1611878051757811,14.654908361816405,19.96946564885496,22.96946564885496,7.847328244274809,72.080859375,52.541015625,-60.774609375,
1749736581.3233893,2025-06-12 20:56:21.323,31.974331326564233,-7.560888842773437,1.9680337646484374,-1.0462661254882812,-1.3206106870229009,-29.671755725190838,1.8015267175572518,73.6787109375,53.4345703125,-60.602929687499994,
1749736581.3369207,2025-06-12 20:56:21.336,31.83056279390182,-5.506663818359375,-2.3511060302734372,11.796231579589843,24.053435114503817,33.48091603053435,-2.9160305343511452,74.211328125,52.8984375,-58.714453125,
1749736581.350538,2025-06-12 20:56:21.350,31.926408482343426,-6.222530114746093,0.09816226806640624,6.186617089843749,20.65648854961832,-39.56488549618321,0.31297709923664124,72.6134765625,52.0048828125,-59.2294921875,
1749736581.3642163,2025-06-12 20:56:21.364,32.40563692455147,1.5586252807617187,0.1867477294921875,4.987122058105468,7.206106870229007,-8.641221374045802,0.48091603053435117,72.080859375,53.255859375,-59.744531249999994,
1749736581.3776798,2025-06-12 20:56:21.377,31.974331326564233,-6.174646081542968,-2.3295582153320313,16.69476817626953,16.870229007633586,19.00763358778626,0.6106870229007634,72.6134765625,52.0048828125,-59.9162109375,
1749736581.3911407,2025-06-12 20:56:21.391,31.73471710546021,6.229712719726562,4.048595007324218,13.426682910156249,-0.16030534351145037,-17.267175572519083,-2.519083969465649,74.211328125,52.541015625,-59.744531249999994,
1749736581.4047735,2025-06-12 20:56:21.404,31.20756581903136,-0.2657563842773437,-3.7804444213867185,2.262520568847656,1.2290076335877862,-2.1755725190839694,-2.4427480916030535,72.9685546875,54.1494140625,-59.5728515625,
1749736581.419948,2025-06-12 20:56:21.419,31.926408482343426,-5.341463903808593,-1.9009961181640624,16.206351037597656,11.83969465648855,-10.244274809160306,7.099236641221374,72.25839843749999,53.4345703125,-60.259570312499996,
1749736581.4334548,2025-06-12 20:56:21.433,31.83056279390182,2.1164742675781247,0.07422025146484375,0.30885201416015623,17.16030534351145,-29.572519083969464,-7.106870229007634,,,,36.870490880396126
1749736581.44712,2025-06-12 20:56:21.447,31.974331326564233,-5.0948611328124995,-0.047884033203124995,2.3032219970703123,5.862595419847328,-11.267175572519085,-9.32824427480916,71.9033203125,53.7919921875,-60.259570312499996,
1749736581.4606867,2025-06-12 20:56:21.460,31.83056279390182,-5.580884069824219,-3.1004911499023438,18.432958581542966,18.595419847328245,29.519083969465647,4.931297709923665,72.25839843749999,51.2900390625,-59.2294921875,
1749736581.4742343,2025-06-12 20:56:21.474,30.96795159792734,-5.552153649902343,9.100360510253905,7.3932947265625,17.587786259541986,5.435114503816794,1.9389312977099236,72.4359375,54.328125,-58.027734374999994,
1749736581.4877257,2025-06-12 20:56:21.487,32.40563692455147,6.775590698242187,-3.4524387939453125,10.08677159423828,3.114503816793893,6.595419847328245,-2.381679389312977,71.37070312499999,51.46875,-60.774609375,
1749736581.5012004,2025-06-12 20:56:21.501,31.782639949681013,-6.828263134765624,0.46208092041015625,17.331625817871092,9.572519083969466,7.908396946564886,2.015267175572519,72.6134765625,52.0048828125,-60.259570312499996,
1749736581.5148022,2025-06-12 20:56:21.514,31.73471710546021,3.612850305175781,1.5825672973632812,10.043675964355469,13.358778625954198,62.3587786259542,-2.648854961832061,71.72578125,53.255859375,-60.087890625,
1749736581.52948,2025-06-12 20:56:21.529,31.926408482343426,-1.1923124267578125,4.367023828124999,7.37414111328125,-2.435114503816794,-62.42748091603053,-6.801526717557252,73.14609374999999,51.826171875,-60.774609375,
1749736581.5431123,2025-06-12 20:56:21.543,31.782639949681013,7.189787585449218,1.5418658691406248,10.773907470703124,26.49618320610687,-61.44274809160305,2.114503816793893,73.14609374999999,51.46875,-59.744531249999994,
1749736581.5567646,2025-06-12 20:56:21.556,31.926408482343426,-2.1883003173828124,0.055066638183593745,8.695740429687499,1.015267175572519,19.35114503816794,5.213740458015267,74.92148437499999,52.8984375,-59.744531249999994,
1749736581.5703862,2025-06-12 20:56:21.570,31.926408482343426,-5.492298608398437,2.059013427734375,13.393164086914062,2.5267175572519083,-2.5114503816793894,-5.122137404580153,70.8380859375,53.4345703125,-61.976367187499996,35.00139938241058
1749736581.5876539,2025-06-12 20:56:21.587,31.782639949681013,2.0159177978515626,3.632003918457031,10.692504614257812,2.5343511450381677,36.2442748091603,3.83206106870229,70.8380859375,52.0048828125,-59.9162109375,
1749736581.6011274,2025-06-12 20:56:21.601,31.974331326564233,1.2378022583007813,3.3877953491210935,4.058171813964844,11.641221374045802,29.48854961832061,-3.7022900763358777,73.501171875,52.18359375,-60.43125,
1749736581.6147885,2025-06-12 20:56:21.614,31.974331326564233,-4.599261389160156,3.526659045410156,16.180014819335938,11.16030534351145,-31.267175572519083,-7.549618320610687,73.3236328125,53.0771484375,-61.6330078125,
1749736581.6283634,2025-06-12 20:56:21.628,31.782639949681013,13.316549633789062,5.485116003417969,15.74905852050781,-1.3511450381679388,2.7251908396946565,-14.267175572519085,73.85625,52.18359375,-59.0578125,
1749736581.643313,2025-06-12 20:56:21.643,31.782639949681013,-11.609483850097655,-5.279214660644531,-4.266467358398438,8.564885496183207,-10.198473282442748,-12.374045801526718,72.4359375,53.255859375,-59.401171874999996,
1749736581.657063,2025-06-12 20:56:21.657,32.07017701500584,6.382941625976562,-5.5090580200195305,15.959748266601562,-2.8702290076335877,-92.41984732824427,4.793893129770993,72.6134765625,50.9326171875,-59.9162109375,
1749736581.6704648,2025-06-12 20:56:21.670,31.974331326564233,12.892775939941405,3.268085266113281,14.178462231445312,9.977099236641221,-37.786259541984734,-4.916030534351145,71.9033203125,53.7919921875,-59.5728515625,
1749736581.6838758,2025-06-12 20:56:21.683,31.926408482343426,-6.988674645996094,5.84185205078125,5.372588525390625,-2.015267175572519,28.52671755725191,-4.419847328244275,72.4359375,53.255859375,-59.0578125,
1749736581.697422,2025-06-12 20:56:21.697,31.782639949681013,-9.327809667968749,-1.2497732666015624,14.829685083007812,34.38167938931298,24.717557251908396,-0.8702290076335878,72.4359375,50.75390625,-59.0578125,
1749736581.710774,2025-06-12 20:56:21.710,31.73471710546021,6.732495068359374,2.607285607910156,2.6910826660156246,-3.3206106870229006,-90.7175572519084,-6.259541984732825,73.14609374999999,52.541015625,-60.43125,35.89984113189543
1749736581.7283976,2025-06-12 20:56:21.728,31.974331326564233,6.270414147949219,-0.5578489868164063,10.915165368652342,1.4351145038167938,-39.16793893129771,-17.893129770992367,74.211328125,52.8984375,-60.43125,
1749736581.7428715,2025-06-12 20:56:21.742,32.40563692455147,-0.086191259765625,-1.6735469604492186,12.799402075195312,6.893129770992366,5.557251908396947,4.412213740458015,72.080859375,51.826171875,-60.43125,
1749736581.7562437,2025-06-12 20:56:21.756,31.73471710546021,0.28012159423828126,-1.6256629272460936,4.304774584960938,5.938931297709924,-0.5572519083969466,4.091603053435114,72.080859375,52.541015625,-60.087890625,
1749736581.769502,2025-06-12 20:56:21.769,31.83056279390182,-9.014169250488282,-2.051830822753906,12.684480395507812,7.465648854961832,6.145038167938932,-2.015267175572519,73.85625,52.18359375,-60.087890625,
1749736581.7826579,2025-06-12 20:56:21.782,31.73471710546021,-7.848193041992187,-3.414131567382812,10.972626208496093,15.793893129770993,56.57251908396947,0.6946564885496184,72.6134765625,53.0771484375,-58.542773437499996,
1749736581.7955537,2025-06-12 20:56:21.795,31.926408482343426,-6.672640026855468,1.1707646118164061,5.166687182617188,5.229007633587786,22.297709923664122,-7.5038167938931295,72.25839843749999,53.4345703125,-61.2896484375,
1749736581.808409,2025-06-12 20:56:21.808,31.73471710546021,-17.381904052734374,-5.044582897949218,9.557653027343749,2.549618320610687,18.85496183206107,2.786259541984733,72.6134765625,52.7197265625,-60.9462890625,
1749736581.8213367,2025-06-12 20:56:21.821,32.16602270344745,-3.2058360229492187,0.2753331909179687,11.947066284179687,6.67175572519084,54.64885496183206,8.427480916030534,72.9685546875,50.9326171875,-60.259570312499996,36.531011368311994
1749736581.8381615,2025-06-12 20:56:21.838,31.782639949681013,12.138602416992187,1.5610194824218748,9.141061938476563,9.312977099236642,-6.442748091603053,2.1526717557251906,71.72578125,53.255859375,-60.774609375,
1749736581.8511028,2025-06-12 20:56:21.851,31.20756581903136,-4.067748620605468,1.0630255371093749,13.47696114501953,20.35114503816794,41.01526717557252,-0.7862595419847328,74.56640625,51.826171875,-60.774609375,
1749736581.86544,2025-06-12 20:56:21.865,31.926408482343426,9.528922607421874,3.0526071166992184,2.384624853515625,8.595419847328245,-105.03053435114504,-6.312977099236641,,,,35.13187372666547
1749736581.8783815,2025-06-12 20:56:21.878,32.40563692455147,11.489773767089844,-0.2561795776367187,12.811373083496093,0.4198473282442748,-53.68702290076336,-7.0534351145038165,72.6134765625,54.1494140625,-60.9462890625,
1749736581.8912811,2025-06-12 20:56:21.891,31.73471710546021,-1.0558429321289062,-3.4763808105468748,12.289437121582031,15.80916030534351,6.183206106870229,6.900763358778626,72.791015625,51.46875,-62.148046875,
1749736581.9040504,2025-06-12 20:56:21.904,31.20756581903136,3.265691064453125,2.4205378784179685,12.842497705078124,9.923664122137405,-18.015267175572518,2.1297709923664123,73.14609374999999,50.75390625,-60.43125,
1749736581.9172218,2025-06-12 20:56:21.917,32.357714080330666,-5.453991381835937,0.23702596435546874,3.086125939941406,10.977099236641221,33.29007633587786,-1.0458015267175573,72.25839843749999,52.3623046875,-59.9162109375,
1749736581.930184,2025-06-12 20:56:21.930,32.21394554766825,-6.653486413574218,-4.697423657226563,9.662997900390625,11.282442748091603,-41.13740458015267,0.3893129770992366,73.501171875,52.541015625,-60.43125,
1749736581.9429483,2025-06-12 20:56:21.942,31.83056279390182,7.6470801025390625,4.062960217285156,13.907917443847655,-3.954198473282443,-29.908396946564885,9.648854961832061,73.6787109375,52.0048828125,-61.2896484375,
1749736581.9556806,2025-06-12 20:56:21.955,31.73471710546021,6.016628771972656,3.775656018066406,8.779537487792968,7.290076335877862,-5.793893129770993,-4.022900763358779,,,,
1749736581.9658597,2025-06-12 20:56:21.965,31.926408482343426,-0.5099649536132812,0.928950244140625,6.404489440917969,-0.5419847328244275,-108.93129770992367,-7.4961832061068705,72.25839843749999,50.9326171875,-60.9462890625,
1749736581.9790442,2025-06-12 20:56:21.979,31.782639949681013,1.6232687255859375,0.6009446166992187,14.025233325195313,14.770992366412214,-20.206106870229007,-0.1450381679389313,71.9033203125,52.7197265625,-59.5728515625,
1749736581.99182,2025-06-12 20:56:21.991,31.782639949681013,7.271190441894531,0.277727392578125,6.7085530517578125,13.290076335877863,-47.0763358778626,-1.0076335877862594,72.4359375,53.970703125,-60.43125,
1749736582.005254,2025-06-12 20:56:22.005,31.926408482343426,-7.2903440551757805,-0.02633621826171875,6.023811376953125,5.213740458015267,-23.404580152671755,2.4427480916030535,74.211328125,51.111328125,-61.8046875,
1749736582.0187676,2025-06-12 20:56:22.018,32.40563692455147,5.125985754394531,3.5697546752929687,14.14733760986328,11.664122137404581,2.7099236641221376,0.5877862595419847,72.4359375,53.255859375,-60.774609375,
1749736582.0322607,2025-06-12 20:56:22.032,31.782639949681013,-7.493851196289062,0.41419688720703124,5.662286926269531,9.0,32.908396946564885,-0.2900763358778626,74.211328125,53.970703125,-59.401171874999996,36.870490880396126
1749736582.0495436,2025-06-12 20:56:22.049,31.782639949681013,-9.366116894531249,-2.480392919921875,7.323862878417969,10.091603053435115,-16.31297709923664,-3.7022900763358777,73.3236328125,53.4345703125,-60.9462890625,
1749736582.063077,2025-06-12 20:56:22.063,31.39925719591458,1.3862427612304686,-2.616862414550781,11.267113012695312,4.488549618320611,-11.49618320610687,4.633587786259542,73.14609374999999,52.541015625,-61.117968749999996,
1749736582.076756,2025-06-12 20:56:22.076,31.83056279390182,-8.734047656249999,-0.076614453125,0.7134720947265625,4.465648854961832,-7.3816793893129775,-3.0763358778625953,72.6134765625,52.3623046875,-60.602929687499994,
1749736582.0914054,2025-06-12 20:56:22.091,31.83056279390182,-2.2194249389648437,-4.948814831542968,13.778630554199218,24.129770992366414,-19.419847328244273,4.6183206106870225,71.9033203125,52.0048828125,-60.602929687499994,
1749736582.1049604,2025-06-12 20:56:22.104,31.782639949681013,-4.331110803222656,-0.8116343627929687,1.714248388671875,12.938931297709924,-5.977099236641221,-2.2977099236641223,73.85625,53.255859375,-60.43125,
1749736582.1185832,2025-06-12 20:56:22.118,31.926408482343426,-1.5705962890624998,-0.7110778930664062,7.668627917480468,2.7709923664122136,-5.4961832061068705,2.1908396946564888,73.85625,52.541015625,-59.744531249999994,
1749736582.1322727,2025-06-12 20:56:22.132,31.926408482343426,-4.920084411621094,1.0558429321289062,13.697227697753906,2.9160305343511452,24.755725190839694,0.9083969465648855,73.14609374999999,51.826171875,-60.087890625,35.89984113189543
1749736582.149643,2025-06-12 20:56:22.149,31.782639949681013,-11.128249316406249,-2.5258827514648434,7.9272016967773435,11.67175572519084,49.05343511450382,5.32824427480916,73.85625,54.685546875,-60.087890625,
1749736582.163092,2025-06-12 20:56:22.163,31.73471710546021,-1.9105729248046874,-0.5506663818359374,12.100295190429687,3.50381679389313,-38.98473282442748,1.3893129770992367,72.25839843749999,51.6474609375,-59.2294921875,
1749736582.176711,2025-06-12 20:56:22.176,32.40563692455147,2.8227637573242186,2.93050283203125,12.758700646972656,10.82442748091603,-19.85496183206107,-13.587786259541986,72.791015625,53.970703125,-62.834765624999996,
1749736582.1911237,2025-06-12 20:56:22.191,31.83056279390182,3.066972326660156,2.0566192260742184,6.5601125488281244,4.129770992366412,10.01526717557252,-2.404580152671756,73.3236328125,54.1494140625,-60.602929687499994,
1749736582.2049997,2025-06-12 20:56:22.205,32.357714080330666,-12.540828295898438,-2.5354595581054684,10.417171423339843,8.717557251908397,17.572519083969464,-8.49618320610687,73.85625,52.541015625,-61.461328124999994,
1749736582.2185335,2025-06-12 20:56:22.218,31.83056279390182,6.054935998535156,5.813121630859374,11.722011328125,5.99236641221374,-44.29770992366412,2.931297709923664,74.211328125,52.8984375,-60.43125,
1749736582.232157,2025-06-12 20:56:22.232,30.96795159792734,0.3591302490234375,-1.8650830932617186,2.3295582153320313,7.419847328244275,-27.389312977099237,7.419847328244275,74.03378906249999,53.4345703125,-60.259570312499996,
1749736582.245764,2025-06-12 20:56:22.245,32.357714080330666,2.9544448486328125,-0.15322890625,19.52232033691406,7.015267175572519,4.374045801526718,1.5954198473282444,73.501171875,52.541015625,-57.684374999999996,
1749736582.2594852,2025-06-12 20:56:22.259,31.83056279390182,7.563283044433593,-0.4213794921875,14.271836096191405,-3.3740458015267176,2.4656488549618323,-9.587786259541986,72.080859375,53.255859375,-59.401171874999996,
1749736582.2730231,2025-06-12 20:56:22.273,31.926408482343426,-4.448426684570312,-0.27293898925781246,-1.3335703247070312,14.366412213740459,-20.85496183206107,-10.83969465648855,72.791015625,53.255859375,-59.401171874999996,36.17287758413077
1749736582.2901871,2025-06-12 20:56:22.290,32.07017701500584,3.2441432495117186,-4.276044165039062,17.46570111083984,14.916030534351146,-15.564885496183207,6.66412213740458,73.501171875,52.8984375,-59.744531249999994,
1749736582.3045306,2025-06-12 20:56:22.304,31.73471710546021,2.8850130004882812,6.4356140625,9.236830004882812,12.419847328244275,23.091603053435115,-1.8091603053435115,72.6134765625,53.0771484375,-60.9462890625,
1749736582.318348,2025-06-12 20:56:22.318,31.83056279390182,-4.673481640625,-1.6424223388671875,5.279214660644531,-5.847328244274809,-22.49618320610687,7.106870229007634,73.14609374999999,52.8984375,-61.117968749999996,
1749736582.331882,2025-06-12 20:56:22.331,31.83056279390182,-1.2880804931640624,2.971204260253906,15.708357092285155,21.328244274809162,43.57251908396947,-1.4961832061068703,72.9685546875,52.7197265625,-60.9462890625,
1749736582.3453994,2025-06-12 20:56:22.345,31.782639949681013,-15.662867260742187,0.23223756103515625,0.8044517578125,4.152671755725191,4.549618320610687,-3.801526717557252,72.25839843749999,54.5068359375,-59.2294921875,
1749736582.35875,2025-06-12 20:56:22.358,31.926408482343426,-0.229843359375,-4.520252734375,15.859191796874999,9.709923664122137,-40.61068702290076,-4.572519083969466,74.7439453125,52.0048828125,-60.259570312499996,
1749736582.3722632,2025-06-12 20:56:22.372,32.357714080330666,-0.25139117431640623,2.0925322509765625,11.475408557128906,17.083969465648856,-23.870229007633586,8.320610687022901,72.25839843749999,52.0048828125,-60.259570312499996,
1749736582.3856542,2025-06-12 20:56:22.385,31.01587444214814,-5.72693037109375,-2.971204260253906,8.755595471191405,0.9389312977099237,46.32824427480916,5.5038167938931295,73.3236328125,52.3623046875,-60.259570312499996,
1749736582.398439,2025-06-12 20:56:22.398,31.83056279390182,-0.833182177734375,-4.76924970703125,13.172897534179686,8.98473282442748,-24.64885496183206,-2.045801526717557,71.9033203125,53.7919921875,-59.2294921875,
1749736582.4112973,2025-06-12 20:56:22.411,31.782639949681013,-3.9935283691406247,1.659181750488281,12.267889306640624,13.549618320610687,-15.0,7.114503816793893,71.9033203125,52.3623046875,-61.6330078125,
1749736582.4263234,2025-06-12 20:56:22.426,31.782639949681013,-3.3710359375,4.110844250488281,2.4253262817382812,14.404580152671755,62.961832061068705,-3.5114503816793894,72.4359375,52.541015625,-59.0578125,
1749736582.4398944,2025-06-12 20:56:22.439,31.782639949681013,-4.314351391601562,-4.072537023925781,6.732495068359374,10.358778625954198,-60.2442748091603,-9.84732824427481,72.6134765625,50.2177734375,-59.9162109375,
1749736582.4535816,2025-06-12 20:56:22.453,31.926408482343426,10.206481677246094,1.005564697265625,16.72110439453125,8.49618320610687,9.877862595419847,0.3969465648854962,73.3236328125,50.9326171875,-60.602929687499994,36.0889704792492
1749736582.4708586,2025-06-12 20:56:22.470,31.73471710546021,-11.923124267578125,-1.7238251953125,-3.797203833007812,6.358778625954199,-16.541984732824428,-0.3893129770992366,73.85625,51.826171875,-60.087890625,
1749736582.4843388,2025-06-12 20:56:22.484,31.782639949681013,-2.104503259277344,1.0965443603515623,18.66280194091797,18.00763358778626,18.61832061068702,11.954198473282442,71.72578125,52.18359375,-60.087890625,
1749736582.4978518,2025-06-12 20:56:22.497,31.782639949681013,-5.494692810058593,6.054935998535156,9.667786303710937,15.091603053435115,23.885496183206108,-5.358778625954199,,,,35.24335481549614
1749736582.511411,2025-06-12 20:56:22.511,31.83056279390182,8.396465222167969,-5.932831713867187,9.763554370117188,9.511450381679388,-63.213740458015266,4.206106870229007,74.03378906249999,52.0048828125,-60.602929687499994,
1749736582.5250285,2025-06-12 20:56:22.525,31.83056279390182,-13.426682910156249,3.318363500976562,14.45379542236328,5.519083969465649,-52.29007633587786,0.7099236641221374,72.9685546875,52.0048828125,-60.9462890625,
1749736582.5403442,2025-06-12 20:56:22.540,31.83056279390182,4.469974499511719,-0.5267243652343749,8.374917407226562,12.893129770992367,0.9847328244274809,2.954198473282443,70.660546875,52.8984375,-60.43125,
1749736582.5540152,2025-06-12 20:56:22.554,32.07017701500584,-2.221819140625,0.7948749511718749,10.807426293945312,4.801526717557252,-22.198473282442748,-1.618320610687023,73.3236328125,53.0771484375,-60.259570312499996,35.45032741141088
1749736582.571397,2025-06-12 20:56:22.571,31.974331326564233,-11.877634436035155,-4.367023828124999,11.247959399414063,4.519083969465649,108.61832061068702,5.145038167938932,73.14609374999999,51.826171875,-59.0578125,
1749736582.584921,2025-06-12 20:56:22.584,31.782639949681013,-9.9981861328125,2.655169641113281,3.0645781249999997,3.854961832061069,-17.03053435114504,-3.33587786259542,74.3888671875,52.3623046875,-59.2294921875,
1749736582.5982919,2025-06-12 20:56:22.598,31.782639949681013,-2.8754361938476563,-3.3590649291992185,11.3772462890625,9.488549618320612,-42.70229007633588,-1.6564885496183206,72.791015625,51.826171875,-61.117968749999996,
1749736582.6121275,2025-06-12 20:56:22.612,31.73471710546021,6.093243225097656,1.1851298217773436,12.143390820312499,3.480916030534351,13.427480916030534,3.564885496183206,72.4359375,51.46875,-59.744531249999994,
1749736582.6258314,2025-06-12 20:56:22.625,32.07017701500584,-5.379771130371093,3.797203833007812,4.493916516113281,5.9465648854961835,8.412213740458014,-1.8854961832061068,72.080859375,53.970703125,-59.744531249999994,
1749736582.64073,2025-06-12 20:56:22.640,31.782639949681013,-0.33758243408203126,-4.319139794921875,13.086706274414063,18.83206106870229,-27.419847328244273,1.5801526717557253,73.6787109375,51.2900390625,-61.2896484375,
1749736582.6546128,2025-06-12 20:56:22.654,31.926408482343426,-3.1651345947265623,1.22583125,11.209652172851563,14.961832061068701,32.58015267175573,5.351145038167939,72.25839843749999,52.7197265625,-59.2294921875,36.19020335683509
1749736582.671902,2025-06-12 20:56:22.671,31.926408482343426,-0.8882488159179687,0.17477672119140625,11.858480822753906,4.900763358778626,-35.541984732824424,-5.6183206106870225,72.4359375,53.255859375,-59.401171874999996,
1749736582.6853695,2025-06-12 20:56:22.685,32.40563692455147,5.250484240722656,3.4356793823242184,14.252682482910155,15.770992366412214,-13.51908396946565,-5.786259541984733,74.211328125,50.75390625,-60.774609375,
1749736582.6988144,2025-06-12 20:56:22.698,31.926408482343426,3.4069489624023435,-2.7629087158203123,10.333374365234375,4.809160305343512,-2.4732824427480917,1.1908396946564885,,,,36.50690316601393
1749736582.7121918,2025-06-12 20:56:22.712,31.6388714170186,-9.220070593261719,-1.917755529785156,2.0087351928710935,5.519083969465649,-5.893129770992366,-7.717557251908397,72.791015625,53.61328125,-60.087890625,
1749736582.7256641,2025-06-12 20:56:22.725,32.07017701500584,-3.6008792968749996,0.3184288208007812,14.470554833984375,13.19083969465649,-16.702290076335878,7.366412213740458,73.6787109375,52.0048828125,-60.259570312499996,
1749736582.7391093,2025-06-12 20:56:22.739,31.926408482343426,3.5865140869140624,6.306327172851562,11.707646118164062,8.82442748091603,55.221374045801525,5.916030534351145,73.85625,52.541015625,-58.714453125,
1749736582.7540853,2025-06-12 20:56:22.754,31.926408482343426,-6.282385156249999,-1.4030021728515625,7.3669585083007805,4.977099236641221,-63.29770992366412,-3.6717557251908395,73.501171875,52.541015625,-61.117968749999996,
1749736582.7679906,2025-06-12 20:56:22.767,31.782639949681013,9.993397729492187,1.1348515869140625,14.276624499511717,21.908396946564885,-24.137404580152673,9.206106870229007,72.6134765625,51.6474609375,-58.542773437499996,
1749736582.7815626,2025-06-12 20:56:22.781,31.926408482343426,-5.006275671386718,1.1109095703125,6.112396838378906,1.2442748091603053,55.465648854961835,0.8931297709923665,73.85625,52.8984375,-60.087890625,
1749736582.7950838,2025-06-12 20:56:22.795,31.782639949681013,-2.4444798950195312,-1.0989385620117187,16.826449267578123,6.816793893129771,-41.54961832061068,-17.213740458015266,72.9685546875,52.0048828125,-59.2294921875,35.18792178392066
1749736582.8124204,2025-06-12 20:56:22.812,31.782639949681013,-6.598419775390624,4.134786267089844,4.991910461425781,10.320610687022901,64.03053435114504,-1.251908396946565,72.4359375,53.61328125,-59.744531249999994,
1749736582.825962,2025-06-12 20:56:22.825,31.73471710546021,-5.9017070922851556,0.5386953735351562,1.6160861206054686,5.572519083969466,-38.083969465648856,-10.98473282442748,72.4359375,52.541015625,-61.117968749999996,
1749736582.839353,2025-06-12 20:56:22.839,31.73471710546021,12.196063256835936,2.4492682983398435,19.61270144958496,15.419847328244275,-48.14503816793893,6.961832061068702,72.080859375,51.46875,-59.401171874999996,
1749736582.8530178,2025-06-12 20:56:22.853,31.83056279390182,1.3407529296874998,-0.5267243652343749,9.074024291992187,3.0610687022900764,-12.320610687022901,7.603053435114504,71.9033203125,53.7919921875,-58.542773437499996,
1749736582.8676832,2025-06-12 20:56:22.867,31.926408482343426,-9.988609326171874,-1.6903063720703124,3.9360675292968748,5.396946564885496,-61.3587786259542,0.9541984732824428,72.9685546875,54.1494140625,-59.5728515625,
1749736582.8815928,2025-06-12 20:56:22.881,31.159642974810556,4.709394665527343,1.946485949707031,16.936582543945313,15.419847328244275,-14.778625954198473,6.923664122137405,71.72578125,52.8984375,-60.43125,
1749736582.895094,2025-06-12 20:56:22.895,32.357714080330666,-10.819397302246093,9.65342109375,-1.599326708984375,14.977099236641221,-21.328244274809162,12.732824427480915,72.080859375,53.970703125,-58.714453125,
1749736582.9087088,2025-06-12 20:56:22.908,31.926408482343426,4.592078784179687,-2.6815058593749996,10.036493359375,9.679389312977099,-31.709923664122137,-1.0458015267175573,73.85625,54.328125,-61.117968749999996,
1749736582.922244,2025-06-12 20:56:22.922,31.73471710546021,3.361459130859375,-0.24899697265624998,11.623849060058593,20.282442748091604,23.083969465648856,1.1526717557251909,71.72578125,52.541015625,-61.461328124999994,
1749736582.9358718,2025-06-12 20:56:22.935,32.07017701500584,-4.529829541015625,2.291250988769531,9.658209497070311,5.6183206106870225,53.30534351145038,3.099236641221374,72.791015625,53.255859375,-60.43125,36.39742280852894
1749736582.9533694,2025-06-12 20:56:22.953,32.30979123610986,0.842758984375,-4.668693237304687,19.474436303710938,12.732824427480915,1.0763358778625953,1.4961832061068703,73.3236328125,51.2900390625,-59.5728515625,
1749736582.9669347,2025-06-12 20:56:22.966,31.782639949681013,-1.0749965454101562,-0.143652099609375,12.105083593749999,-10.221374045801527,31.48854961832061,5.267175572519084,73.85625,51.826171875,-59.401171874999996,
1749736582.9818845,2025-06-12 20:56:22.981,31.83056279390182,-5.475539196777343,-1.7214309936523438,4.050989208984375,11.198473282442748,41.404580152671755,-11.122137404580153,71.1931640625,53.4345703125,-59.5728515625,
1749736582.9954324,2025-06-12 20:56:22.995,31.926408482343426,-0.8978256225585937,-1.0678139404296874,12.07874737548828,11.801526717557252,-44.30534351145038,8.717557251908397,71.015625,52.18359375,-59.0578125,
1749736583.0089433,2025-06-12 20:56:23.008,31.83056279390182,1.7357962036132812,2.7174188842773437,14.350844750976561,6.137404580152672,17.9618320610687,7.480916030534351,72.25839843749999,51.6474609375,-60.9462890625,
1749736583.022486,2025-06-12 20:56:23.022,31.926408482343426,-18.0810109375,-2.0733786376953125,-2.288856787109375,0.9541984732824428,30.435114503816795,2.381679389312977,73.501171875,53.255859375,-60.43125,
1749736583.0359702,2025-06-12 20:56:23.035,30.96795159792734,-0.833182177734375,-5.9974751586914055,16.697162377929686,23.404580152671755,-22.81679389312977,2.3206106870229006,71.5482421875,51.6474609375,-60.602929687499994,35.08604405099631
1749736583.053342,2025-06-12 20:56:23.053,31.73471710546021,3.019088293457031,2.4971523315429685,8.204929089355469,6.770992366412214,-3.7022900763358777,10.274809160305344,73.14609374999999,54.685546875,-60.087890625,
1749736583.0668244,2025-06-12 20:56:23.066,31.782639949681013,-3.9600095458984375,-0.9528922607421875,6.720524060058593,10.488549618320612,-30.572519083969464,-6.519083969465649,72.25839843749999,53.4345703125,-60.259570312499996,
1749736583.0803728,2025-06-12 20:56:23.080,31.974331326564233,-1.6448165405273436,0.5674257934570313,11.918335864257811,9.068702290076336,10.65648854961832,5.7251908396946565,73.501171875,52.541015625,-58.027734374999994,
1749736583.0952945,2025-06-12 20:56:23.095,32.118099859226646,-1.8626888916015625,4.378994836425781,7.651868505859374,6.32824427480916,16.18320610687023,0.9312977099236641,72.080859375,52.541015625,-59.744531249999994,
1749736583.1089642,2025-06-12 20:56:23.108,31.974331326564233,-4.5585599609375,-1.0510545288085937,12.780248461914061,-0.022900763358778626,7.137404580152672,1.5190839694656488,73.3236328125,52.0048828125,-59.2294921875,
1749736583.1225562,2025-06-12 20:56:23.122,31.974331326564233,-13.168109130859374,0.7852981445312499,11.422736120605467,15.366412213740459,47.89312977099237,-10.557251908396946,71.9033203125,52.7197265625,-59.9162109375,
1749736583.1361153,2025-06-12 20:56:23.136,31.83056279390182,0.5698199951171875,2.442085693359375,10.429142431640624,-9.610687022900763,-54.82442748091603,2.648854961832061,74.03378906249999,53.7919921875,-60.9462890625,
1749736583.1497548,2025-06-12 20:56:23.149,32.40563692455147,-10.333374365234375,-0.5410895751953124,13.804966772460936,9.954198473282442,9.648854961832061,2.9923664122137406,72.791015625,53.970703125,-60.774609375,
1749736583.1637685,2025-06-12 20:56:23.163,31.782639949681013,-2.6815058593749996,1.005564697265625,9.557653027343749,8.641221374045802,-0.2824427480916031,10.679389312977099,71.9033203125,53.0771484375,-60.9462890625,
1749736583.17744,2025-06-12 20:56:23.177,31.83056279390182,-9.279925634765624,2.81558115234375,5.511452221679687,6.778625954198473,46.030534351145036,-5.4961832061068705,73.3236328125,54.1494140625,-59.9162109375,
1749736583.1909754,2025-06-12 20:56:23.190,32.357714080330666,-13.7522943359375,-4.65432802734375,12.018892333984374,27.0,-55.221374045801525,-0.3816793893129771,73.501171875,52.8984375,-61.461328124999994,
1749736583.2059598,2025-06-12 20:56:23.205,31.974331326564233,-5.324704492187499,6.9527616210937495,6.833051538085937,3.9236641221374047,32.11450381679389,0.8320610687022901,74.03378906249999,55.2216796875,-59.9162109375,
1749736583.219887,2025-06-12 20:56:23.219,32.40563692455147,-1.2282254516601563,-1.1444283935546875,6.358999609374999,-2.1374045801526718,-56.603053435114504,-0.22900763358778625,72.4359375,52.541015625,-60.087890625,
1749736583.2334442,2025-06-12 20:56:23.233,31.782639949681013,0.20350714111328125,0.11252747802734374,15.74905852050781,8.412213740458014,-2.366412213740458,-2.213740458015267,74.211328125,53.61328125,-60.087890625,
1749736583.2470675,2025-06-12 20:56:23.247,32.07017701500584,-8.78432589111328,-2.2194249389648437,4.218583325195312,13.099236641221374,8.007633587786259,-3.8625954198473282,71.72578125,52.541015625,-60.43125,35.48158012282109
1749736583.2646139,2025-06-12 20:56:23.264,31.782639949681013,-7.52737001953125,-4.101267443847656,12.425906616210936,6.99236641221374,-18.068702290076335,-7.122137404580153,72.6134765625,51.2900390625,-60.259570312499996,
1749736583.2782104,2025-06-12 20:56:23.278,31.926408482343426,-1.1923124267578125,4.6255976074218745,5.054159704589844,13.305343511450381,-13.01526717557252,-1.2900763358778626,72.4359375,52.18359375,-61.117968749999996,
1749736583.2920213,2025-06-12 20:56:23.292,31.926408482343426,1.180341418457031,-0.699106884765625,7.077260107421875,-1.5038167938931297,-17.480916030534353,-3.1526717557251906,71.72578125,54.328125,-60.43125,
1749736583.3055682,2025-06-12 20:56:23.305,31.83056279390182,-3.3016040893554686,-1.2497732666015624,13.694833496093748,19.045801526717558,5.312977099236641,2.2442748091603053,72.6134765625,50.5751953125,-60.602929687499994,
1749736583.3204465,2025-06-12 20:56:23.320,31.974331326564233,2.7246014892578123,-0.6368576416015624,11.379640490722656,2.450381679389313,-17.129770992366414,3.450381679389313,73.3236328125,53.0771484375,-60.259570312499996,
1749736583.333948,2025-06-12 20:56:23.333,31.73471710546021,-9.241618408203124,1.2976572998046874,3.88818349609375,9.801526717557252,58.93893129770992,-2.351145038167939,74.03378906249999,53.0771484375,-60.259570312499996,
1749736583.347462,2025-06-12 20:56:23.347,31.20756581903136,-4.970362646484375,0.622492431640625,16.852785485839842,29.061068702290076,-16.221374045801525,7.33587786259542,73.6787109375,50.9326171875,-60.602929687499994,36.32381758715986
1749736583.364908,2025-06-12 20:56:23.364,31.83056279390182,-3.071760729980469,-2.427720483398437,3.5051112304687497,4.198473282442748,-36.06106870229008,-1.4580152671755726,72.4359375,53.970703125,-60.087890625,
1749736583.3785348,2025-06-12 20:56:23.378,31.926408482343426,-7.345410693359375,-1.8291700683593748,13.239935180664062,11.946564885496183,0.6335877862595419,2.2213740458015265,73.3236328125,51.2900390625,-60.602929687499994,
1749736583.392117,2025-06-12 20:56:23.392,31.974331326564233,-13.326126440429686,0.7757213378906249,9.916783276367187,10.458015267175572,39.43511450381679,-4.1679389312977095,74.211328125,51.826171875,-60.087890625,
1749736583.4056768,2025-06-12 20:56:23.405,31.83056279390182,5.085284326171875,4.8698061767578125,3.5051112304687497,10.84732824427481,-83.7175572519084,-5.229007633587786,72.25839843749999,52.7197265625,-59.9162109375,
1749736583.4192588,2025-06-12 20:56:23.419,31.926408482343426,-6.619967590332031,-2.2290017456054687,12.816161486816405,8.007633587786259,15.419847328244275,-6.8396946564885495,73.14609374999999,54.328125,-59.401171874999996,
1749736583.4344041,2025-06-12 20:56:23.434,31.159642974810556,10.912771166992187,1.7836802368164062,6.880935571289062,-9.633587786259541,-34.458015267175576,-5.763358778625954,72.4359375,52.541015625,-61.461328124999994,
1749736583.4480515,2025-06-12 20:56:23.448,31.782639949681013,7.153874560546875,3.3686417358398435,7.220912207031249,7.679389312977099,2.5877862595419847,-2.7480916030534353,72.25839843749999,50.9326171875,-60.602929687499994,36.22375418270338
1749736583.4653227,2025-06-12 20:56:23.465,31.782639949681013,2.269703173828125,-2.114080065917969,14.437036010742187,10.412213740458014,15.885496183206106,11.267175572519085,73.501171875,53.255859375,-60.087890625,
1749736583.4787426,2025-06-12 20:56:23.478,31.926408482343426,-1.465251416015625,-1.484405029296875,16.05791053466797,-0.05343511450381679,56.603053435114504,3.877862595419847,72.791015625,51.46875,-60.774609375,
1749736583.4921994,2025-06-12 20:56:23.492,32.07017701500584,-17.377115649414062,-3.2154128295898436,0.3758896606445312,2.1603053435114505,33.47328244274809,-3.1755725190839694,73.501171875,52.8984375,-60.774609375,
1749736583.5057218,2025-06-12 20:56:23.505,31.83056279390182,-5.786785412597656,-4.417302062988281,10.251971508789062,17.022900763358777,-77.74809160305344,9.977099236641221,73.3236328125,50.5751953125,-61.2896484375,
1749736583.5193639,2025-06-12 20:56:23.519,31.926408482343426,-0.9457096557617187,3.356670727539062,7.999027746582031,0.6183206106870229,-3.6412213740458017,2.519083969465649,72.9685546875,54.8642578125,-59.2294921875,
1749736583.533824,2025-06-12 20:56:23.533,31.782639949681013,-4.441244079589843,1.1875240234375,4.074931225585937,6.66412213740458,-13.687022900763358,-9.229007633587786,71.9033203125,53.0771484375,-60.9462890625,
1749736583.5476472,2025-06-12 20:56:23.547,31.83056279390182,-2.195482922363281,0.4429273071289062,10.802637890625,2.7022900763358777,1.1603053435114503,-3.4885496183206106,73.3236328125,52.7197265625,-60.602929687499994,
1749736583.5612674,2025-06-12 20:56:23.561,31.782639949681013,-1.0103531005859374,-0.4261678955078125,8.808267907714843,5.32824427480916,8.198473282442748,3.1526717557251906,72.4359375,53.61328125,-59.744531249999994,
1749736583.5748725,2025-06-12 20:56:23.574,31.83056279390182,-0.8595183959960937,1.8076222534179687,11.587936035156249,3.9160305343511452,-13.076335877862595,-9.587786259541986,72.4359375,52.541015625,-60.774609375,
1749736583.5883827,2025-06-12 20:56:23.588,31.974331326564233,2.6001030029296874,-0.7254431030273437,13.690045092773437,20.16030534351145,24.099236641221374,-2.816793893129771,72.9685546875,51.6474609375,-61.2896484375,37.11930389590421
1749736583.60571,2025-06-12 20:56:23.605,31.926408482343426,-1.898601916503906,1.8746598999023436,3.5194764404296874,3.5114503816793894,-41.725190839694655,-4.206106870229007,73.501171875,52.541015625,-60.087890625,
1749736583.619164,2025-06-12 20:56:23.619,31.974331326564233,1.0462661254882812,-1.3072341064453123,13.36203946533203,7.022900763358779,-33.01526717557252,-0.48854961832061067,71.9033203125,50.9326171875,-60.9462890625,
1749736583.632655,2025-06-12 20:56:23.632,31.73471710546021,7.335833886718749,1.8698714965820311,9.088389501953124,10.450381679389313,25.328244274809162,1.7404580152671756,73.6787109375,53.0771484375,-60.9462890625,
1749736583.647141,2025-06-12 20:56:23.647,31.926408482343426,-4.151545678710937,-1.0630255371093749,0.7422025146484375,2.4732824427480917,-18.977099236641223,-10.709923664122137,73.14609374999999,52.8984375,-60.087890625,
1749736583.6613822,2025-06-12 20:56:23.661,31.974331326564233,-5.389347937011719,0.9959878906249999,14.609418530273437,19.587786259541986,4.175572519083969,-1.549618320610687,72.791015625,52.18359375,-60.087890625,
1749736583.6750505,2025-06-12 20:56:23.675,31.73471710546021,1.2785036865234374,6.880935571289062,8.547299926757812,9.183206106870228,-5.687022900763359,-15.198473282442748,70.660546875,54.328125,-59.744531249999994,
1749736583.688537,2025-06-12 20:56:23.688,31.926408482343426,4.589684582519531,0.4165910888671875,13.558364001464843,-2.0076335877862594,-64.80152671755725,-1.83206106870229,72.4359375,53.970703125,-60.774609375,
1749736583.7020183,2025-06-12 20:56:23.702,31.926408482343426,-6.928819604492187,-0.8978256225585937,14.542380883789061,7.900763358778626,68.90839694656489,2.946564885496183,73.3236328125,52.3623046875,-59.9162109375,
1749736583.7155857,2025-06-12 20:56:23.715,31.73471710546021,-13.43865391845703,-0.430956298828125,0.35673604736328124,13.19083969465649,-1.2671755725190839,-8.404580152671755,71.37070312499999,53.255859375,-61.117968749999996,
1749736583.7290392,2025-06-12 20:56:23.729,31.782639949681013,-1.3646949462890625,-1.0702081420898437,15.54555137939453,-4.702290076335878,-47.06106870229008,-5.763358778625954,72.4359375,52.541015625,-60.43125,35.263198081879466
1749736583.7463238,2025-06-12 20:56:23.746,31.926408482343426,0.3184288208007812,-0.239420166015625,7.220912207031249,11.793893129770993,27.52671755725191,5.824427480916031,72.9685546875,53.7919921875,-60.9462890625,
1749736583.760997,2025-06-12 20:56:23.760,31.782639949681013,2.7150246826171873,-0.2561795776367187,11.537657800292967,5.587786259541985,57.51145038167939,-3.549618320610687,73.3236328125,52.7197265625,-61.2896484375,
1749736583.7748446,2025-06-12 20:56:23.774,31.73471710546021,-7.316680273437499,-1.8195932617187498,14.72912861328125,9.709923664122137,-0.8854961832061069,11.969465648854962,72.080859375,51.46875,-60.43125,
1749736583.7884498,2025-06-12 20:56:23.788,31.926408482343426,0.9217676391601562,9.727641345214844,8.271966735839843,3.1068702290076335,46.38167938931298,-5.99236641221374,72.791015625,52.8984375,-60.43125,
1749736583.801947,2025-06-12 20:56:23.801,30.96795159792734,-11.350910070800781,-0.5315127685546874,7.4699091796875,1.1374045801526718,-25.30534351145038,-5.076335877862595,72.9685546875,52.0048828125,-59.5728515625,
1749736583.8154106,2025-06-12 20:56:23.815,31.926408482343426,10.850521923828124,1.2952630981445312,19.517531933593748,17.35114503816794,-3.6106870229007635,-0.6564885496183206,72.4359375,52.18359375,-59.401171874999996,
1749736583.8289502,2025-06-12 20:56:23.828,31.974331326564233,-14.930241552734374,2.375048046875,-0.97683427734375,0.2900763358778626,70.6412213740458,7.320610687022901,72.791015625,53.61328125,-60.087890625,
1749736583.8424711,2025-06-12 20:56:23.842,31.83056279390182,2.8514941772460936,-2.4013842651367185,9.284714038085937,3.9389312977099236,-101.26717557251908,-4.358778625954199,73.6787109375,52.7197265625,-60.9462890625,
1749736583.856028,2025-06-12 20:56:23.856,32.357714080330666,-4.955997436523437,0.737414111328125,13.326126440429686,19.954198473282442,26.076335877862597,-2.366412213740458,72.9685546875,51.2900390625,-59.2294921875,
1749736583.870669,2025-06-12 20:56:23.870,31.73471710546021,0.24660277099609373,1.649604943847656,12.943054174804686,3.2213740458015265,43.16030534351145,3.49618320610687,73.6787109375,53.7919921875,-59.5728515625,
1749736583.884547,2025-06-12 20:56:23.884,32.40563692455147,-6.457161877441406,-1.8052280517578123,3.265691064453125,0.7786259541984732,-75.46564885496183,-2.9618320610687023,75.631640625,51.111328125,-60.774609375,
1749736583.8981576,2025-06-12 20:56:23.898,32.357714080330666,3.7421371948242186,1.2521674682617188,15.911864233398436,16.541984732824428,38.55725190839695,13.389312977099237,72.9685546875,52.3623046875,-59.9162109375,
1749736583.9116063,2025-06-12 20:56:23.911,31.83056279390182,-9.04050546875,8.78432589111328,9.038111267089842,-9.068702290076336,27.83969465648855,20.267175572519083,73.14609374999999,52.8984375,-58.714453125,
1749736583.925191,2025-06-12 20:56:23.925,31.974331326564233,-0.9983820922851562,-2.4851813232421875,3.5314474487304683,9.198473282442748,-111.58015267175573,-5.206106870229007,72.6134765625,53.7919921875,-60.9462890625,
1749736583.938653,2025-06-12 20:56:23.938,31.974331326564233,-3.066972326660156,-4.220977526855468,18.461689001464844,21.80916030534351,28.16793893129771,6.3893129770992365,72.791015625,53.255859375,-60.087890625,
1749736583.9522402,2025-06-12 20:56:23.952,31.974331326564233,-12.19366905517578,2.291250988769531,5.597643481445312,2.9389312977099236,37.25954198473283,7.4961832061068705,73.6787109375,53.4345703125,-59.9162109375,
1749736583.965772,2025-06-12 20:56:23.965,32.16602270344745,-15.67962667236328,-1.4867992309570313,10.441113439941406,6.473282442748092,7.9541984732824424,2.1526717557251906,72.6134765625,52.7197265625,-59.9162109375,
1749736583.979369,2025-06-12 20:56:23.979,31.063797286368946,-8.001421948242188,8.473079675292968,5.705382556152343,15.129770992366412,-22.3206106870229,-4.816793893129771,72.25839843749999,52.3623046875,-58.886132812499994,
1749736583.994321,2025-06-12 20:56:23.994,31.73471710546021,-4.714183068847656,-4.491522314453125,11.765106958007811,-2.5267175572519083,94.97709923664122,3.564885496183206,73.14609374999999,53.61328125,-59.744531249999994,
1749736584.0079627,2025-06-12 20:56:24.007,31.782639949681013,1.01514150390625,0.22026655273437498,13.862427612304687,13.16030534351145,-50.38167938931298,0.21374045801526717,73.501171875,51.46875,-58.714453125,
1749736584.02147,2025-06-12 20:56:24.021,31.73471710546021,4.855440966796874,1.0965443603515623,11.329362255859374,3.5572519083969465,-2.931297709923664,-3.8702290076335877,73.3236328125,53.7919921875,-60.259570312499996,
1749736584.0348828,2025-06-12 20:56:24.034,31.73471710546021,-7.113173132324218,0.08140285644531249,0.5506663818359374,-3.4122137404580153,3.7786259541984735,-3.4732824427480917,72.25839843749999,52.3623046875,-59.9162109375,
1749736584.0483792,2025-06-12 20:56:24.048,31.83056279390182,8.17859287109375,0.8858546142578124,14.61420693359375,19.6793893129771,-91.31297709923665,4.068702290076335,72.9685546875,51.2900390625,-58.542773437499996,
1749736584.0620022,2025-06-12 20:56:24.062,31.01587444214814,-4.110844250488281,7.244854223632812,5.027823486328125,7.740458015267175,48.48091603053435,10.786259541984732,71.9033203125,52.7197265625,-58.542773437499996,
1749736584.0757024,2025-06-12 20:56:24.075,31.73471710546021,-0.45968671875,1.6807295654296874,11.075576879882812,-0.7633587786259542,-46.35114503816794,-9.129770992366412,72.25839843749999,52.7197265625,-60.259570312499996,
1749736584.089269,2025-06-12 20:56:24.089,31.73471710546021,-3.9264907226562498,-0.63206923828125,11.614272253417967,17.610687022900763,-24.671755725190838,-9.32824427480916,73.3236328125,51.6474609375,-61.6330078125,36.75358005205387
1749736584.1077945,2025-06-12 20:56:24.107,31.83056279390182,-8.896853369140624,4.110844250488281,-1.8004396484374998,4.32824427480916,-85.7175572519084,1.1068702290076335,73.6787109375,54.8642578125,-59.5728515625,
1749736584.1213248,2025-06-12 20:56:24.121,31.782639949681013,1.6998831787109374,-0.1292868896484375,13.539210388183593,9.977099236641221,-42.49618320610687,-20.61832061068702,72.791015625,53.255859375,-60.087890625,
1749736584.1347575,2025-06-12 20:56:24.134,31.83056279390182,6.0716954101562495,0.6057330200195312,13.374010473632811,2.0381679389312977,-2.4198473282442747,-13.122137404580153,72.9685546875,52.3623046875,-58.886132812499994,
1749736584.148188,2025-06-12 20:56:24.148,31.974331326564233,-2.6408044311523438,-0.1771709228515625,-1.2785036865234374,11.50381679389313,-27.83969465648855,-11.51908396946565,72.6134765625,52.7197265625,-61.2896484375,
1749736584.1617196,2025-06-12 20:56:24.161,30.96795159792734,-3.5793314819335937,-5.178658190917968,14.867992309570312,15.053435114503817,42.6412213740458,-1.5419847328244274,73.85625,53.61328125,-60.774609375,
1749736584.175392,2025-06-12 20:56:24.175,31.782639949681013,-8.94473740234375,2.9496564453125,6.794744311523437,-8.061068702290076,-92.78625954198473,-5.740458015267175,73.6787109375,52.3623046875,-59.5728515625,
1749736584.1889348,2025-06-12 20:56:24.188,31.974331326564233,-2.636016027832031,1.37906015625,1.3144167114257812,4.480916030534351,-25.83969465648855,3.564885496183206,72.080859375,52.8984375,-61.461328124999994,
1749736584.202406,2025-06-12 20:56:24.202,31.926408482343426,-0.3687070556640625,-1.6711527587890624,16.82166086425781,23.923664122137403,-19.442748091603054,9.473282442748092,72.4359375,52.18359375,-60.774609375,
1749736584.2172184,2025-06-12 20:56:24.217,31.73471710546021,-15.91665263671875,9.057264880371093,6.974309436035155,11.946564885496183,86.12977099236642,-4.152671755725191,73.3236328125,53.0771484375,-60.9462890625,
1749736584.2307513,2025-06-12 20:56:24.230,31.782639949681013,0.3327940307617187,-4.043806604003906,4.630386010742187,-3.50381679389313,-49.99236641221374,-9.694656488549619,72.6134765625,52.7197265625,-59.2294921875,35.582809199383206
1749736584.2481399,2025-06-12 20:56:24.248,31.974331326564233,0.97683427734375,-3.0526071166992184,10.05564697265625,11.603053435114504,-36.62595419847328,-2.7099236641221376,72.6134765625,52.3623046875,-60.9462890625,
1749736584.261699,2025-06-12 20:56:24.261,31.926408482343426,-8.360552197265624,-2.281674182128906,2.3965958618164063,11.419847328244275,5.816793893129771,4.2748091603053435,72.6134765625,53.4345703125,-60.9462890625,
1749736584.2751088,2025-06-12 20:56:24.275,31.782639949681013,1.7094599853515624,-0.852335791015625,14.834473486328124,2.3282442748091605,-18.84732824427481,-4.557251908396947,72.25839843749999,52.3623046875,-60.9462890625,
1749736584.2889254,2025-06-12 20:56:24.288,31.73471710546021,-4.2880151733398435,-2.3439234252929686,7.486668591308593,17.282442748091604,-22.84732824427481,-3.877862595419847,74.03378906249999,51.2900390625,-59.2294921875,
1749736584.3025,2025-06-12 20:56:24.302,31.782639949681013,-4.010287780761718,1.637633935546875,4.991910461425781,8.717557251908397,37.68702290076336,-3.435114503816794,73.85625,52.18359375,-61.461328124999994,
1749736584.316079,2025-06-12 20:56:24.316,31.73471710546021,-9.648632690429688,-1.5370774658203123,12.612654345703124,9.877862595419847,-63.63358778625954,-0.6412213740458015,72.6134765625,50.5751953125,-60.9462890625,
1749736584.3308477,2025-06-12 20:56:24.330,31.063797286368946,4.675875842285156,4.247313745117188,14.487314245605468,10.374045801526718,60.12977099236641,13.076335877862595,73.85625,51.826171875,-61.461328124999994,
1749736584.3443844,2025-06-12 20:56:24.344,31.926408482343426,-5.566518859863281,-2.437297290039062,0.201112939453125,5.145038167938932,-19.69465648854962,4.190839694656488,74.92148437499999,52.18359375,-58.714453125,
1749736584.3579524,2025-06-12 20:56:24.357,31.782639949681013,-0.8930372192382812,0.5530605834960938,19.46485949707031,11.419847328244275,-74.13740458015268,-7.633587786259542,72.791015625,52.8984375,-60.43125,
1749736584.3716729,2025-06-12 20:56:24.371,31.782639949681013,19.527108740234375,7.6231380859375,11.935095275878906,-5.572519083969466,-37.404580152671755,1.5572519083969465,72.6134765625,52.0048828125,-60.602929687499994,35.76846876061019
1749736584.3890831,2025-06-12 20:56:24.389,31.83056279390182,11.461043347167967,-2.2673089721679687,13.6756798828125,5.931297709923665,-18.541984732824428,-2.6412213740458017,73.501171875,52.18359375,-60.087890625,
1749736584.402546,2025-06-12 20:56:24.402,31.974331326564233,-9.203311181640624,-0.3758896606445312,13.893552233886718,16.404580152671755,12.549618320610687,4.320610687022901,73.14609374999999,51.46875,-59.401171874999996,
1749736584.4161422,2025-06-12 20:56:24.416,31.73471710546021,-1.7836802368164062,-1.1444283935546875,4.546588952636719,8.34351145038168,9.625954198473282,1.3358778625954197,71.5482421875,53.4345703125,-59.9162109375,
1749736584.4309945,2025-06-12 20:56:24.430,31.01587444214814,-2.0087351928710935,2.233790148925781,7.594407666015624,-4.66412213740458,-23.015267175572518,-2.4580152671755724,74.03378906249999,52.3623046875,-60.259570312499996,
1749736584.4446433,2025-06-12 20:56:24.444,32.357714080330666,8.281543542480469,1.9488801513671874,10.869675537109375,19.786259541984734,-127.6030534351145,13.687022900763358,73.501171875,52.8984375,-60.43125,
1749736584.4582772,2025-06-12 20:56:24.458,31.83056279390182,-1.3646949462890625,12.176909643554687,19.476830505371094,14.366412213740459,167.57251908396947,-3.3587786259541983,72.6134765625,52.7197265625,-60.259570312499996,
1749736584.4719543,2025-06-12 20:56:24.471,31.974331326564233,-11.994950317382811,-5.063736511230468,-2.829946362304687,20.83206106870229,-42.81679389312977,1.3969465648854962,72.791015625,52.8984375,-61.117968749999996,35.28362060141486
1749736584.4891887,2025-06-12 20:56:24.489,31.926408482343426,-0.2657563842773437,-0.4836287353515625,6.5218053222656245,13.061068702290076,-24.236641221374047,-8.938931297709924,72.25839843749999,53.7919921875,-59.5728515625,
1749736584.5026422,2025-06-12 20:56:24.502,31.73471710546021,-0.7972691528320313,1.3000515014648437,0.19871873779296872,9.82442748091603,-12.251908396946565,-0.6335877862595419,72.4359375,52.541015625,-61.117968749999996,
1749736584.5162039,2025-06-12 20:56:24.516,31.782639949681013,-6.5601125488281244,-3.2441432495117186,18.849549670410155,7.435114503816794,42.43511450381679,-4.511450381679389,73.14609374999999,51.826171875,-58.714453125,
1749736584.5297902,2025-06-12 20:56:24.529,31.974331326564233,10.805032092285156,2.710236279296875,7.1586629638671875,16.732824427480917,104.53435114503817,-6.305343511450381,72.9685546875,52.0048828125,-58.886132812499994,
1749736584.5451214,2025-06-12 20:56:24.545,31.974331326564233,4.742913488769531,-3.6535517333984373,4.000710974121094,-9.312977099236642,-20.251908396946565,5.893129770992366,72.4359375,51.826171875,-60.43125,
1749736584.5588844,2025-06-12 20:56:24.558,31.974331326564233,-8.978256225585938,1.8626888916015625,19.500772521972657,3.0610687022900764,36.16793893129771,11.877862595419847,72.4359375,52.541015625,-60.43125,
1749736584.5727353,2025-06-12 20:56:24.572,31.782639949681013,-0.6105214233398437,1.6208745239257811,-1.8650830932617186,11.82442748091603,-14.778625954198473,1.3511450381679388,72.9685546875,53.0771484375,-59.2294921875,
1749736584.5866613,2025-06-12 20:56:24.586,32.07017701500584,19.61270144958496,15.56470499267578,10.105925207519531,56.091603053435115,-163.42748091603053,-26.99236641221374,72.791015625,52.18359375,-60.087890625,
1749736584.6001964,2025-06-12 20:56:24.600,31.974331326564233,19.481618908691406,5.456385583496093,19.61270144958496,12.954198473282442,161.67175572519085,10.694656488549619,72.25839843749999,51.6474609375,-59.5728515625,
1749736584.6137292,2025-06-12 20:56:24.613,31.782639949681013,-9.469067565917967,-2.5330653564453125,16.29733070068359,17.541984732824428,205.81679389312978,-29.0,73.6787109375,53.7919921875,-60.259570312499996,
1749736584.6272864,2025-06-12 20:56:24.627,31.782639949681013,-11.549628808593749,-1.2018892333984375,6.121973645019531,-1.9694656488549618,-45.229007633587784,-11.312977099236642,71.9033203125,53.0771484375,-60.259570312499996,
1749736584.640726,2025-06-12 20:56:24.640,31.73471710546021,12.521674682617187,-2.7653029174804686,-2.6431986328124997,29.793893129770993,-132.49618320610688,-8.091603053435115,71.9033203125,51.2900390625,-58.886132812499994,35.742833559941815
1749736584.6594107,2025-06-12 20:56:24.659,31.926408482343426,-8.94473740234375,8.224082702636718,19.61270144958496,3.786259541984733,-19.557251908396946,-9.664122137404581,73.3236328125,53.4345703125,-59.9162109375,
1749736584.6730738,2025-06-12 20:56:24.673,31.73471710546021,-3.0621839233398433,-0.814028564453125,17.726669091796875,38.63358778625954,44.66412213740458,-24.366412213740457,72.4359375,52.8984375,-60.774609375,
1749736584.6865716,2025-06-12 20:56:24.686,31.73471710546021,-1.7238251953125,3.9360675292968748,8.564059338378906,17.19083969465649,5.984732824427481,-12.770992366412214,72.25839843749999,52.3623046875,-59.2294921875,
1749736584.7001328,2025-06-12 20:56:24.700,31.974331326564233,2.1691467041015624,-4.541800549316406,12.497732666015624,23.83206106870229,66.12213740458016,-17.984732824427482,73.3236328125,52.0048828125,-58.542773437499996,
1749736584.7137208,2025-06-12 20:56:24.713,31.782639949681013,-6.1459156616210935,-3.871424084472656,12.76827745361328,-2.198473282442748,-35.32824427480916,-24.755725190839694,72.25839843749999,49.1455078125,-58.886132812499994,
1749736584.7273347,2025-06-12 20:56:24.727,31.782639949681013,12.114660400390624,-0.7852981445312499,14.808137268066405,19.72519083969466,-56.67175572519084,-23.022900763358777,72.791015625,53.61328125,-61.117968749999996,
1749736584.7408855,2025-06-12 20:56:24.740,31.01587444214814,-2.281674182128906,2.1452046874999997,10.714052429199219,11.19083969465649,28.64885496183206,-13.86259541984733,73.6787109375,53.0771484375,-59.2294921875,
1749736584.754527,2025-06-12 20:56:24.754,31.20756581903136,-4.774038110351563,-4.92247861328125,11.611878051757811,18.557251908396946,-58.51908396946565,0.48854961832061067,73.14609374999999,51.46875,-59.0578125,
1749736584.7695127,2025-06-12 20:56:24.769,31.926408482343426,-5.406107348632812,2.710236279296875,14.45379542236328,23.946564885496183,21.519083969465647,-10.099236641221374,72.25839843749999,50.9326171875,-57.5126953125,
1749736584.7830627,2025-06-12 20:56:24.783,31.782639949681013,5.772420202636718,-0.076614453125,10.766724865722656,-12.580152671755725,-41.93893129770992,-14.977099236641221,72.9685546875,52.0048828125,-59.2294921875,
1749736584.796584,2025-06-12 20:56:24.796,31.974331326564233,-6.900089184570312,-2.080561242675781,15.356409448242186,25.33587786259542,103.3206106870229,-12.893129770992367,74.03378906249999,50.5751953125,-58.886132812499994,
1749736584.810097,2025-06-12 20:56:24.810,32.07017701500584,-18.06185732421875,-2.2768857788085937,4.824316345214844,19.47328244274809,69.31297709923665,-2.7404580152671754,73.6787109375,50.9326171875,-59.5728515625,
1749736584.8236413,2025-06-12 20:56:24.823,31.782639949681013,-3.469198205566406,3.086125939941406,19.61270144958496,1.3511450381679388,-29.610687022900763,-8.312977099236642,72.6134765625,50.9326171875,-59.2294921875,
1749736584.8372183,2025-06-12 20:56:24.837,31.782639949681013,-4.814739538574218,1.2976572998046874,12.073958972167969,19.68702290076336,48.86259541984733,1.366412213740458,71.72578125,50.0390625,-59.401171874999996,
1749736584.8508363,2025-06-12 20:56:24.850,32.21394554766825,3.8474820678710935,0.258573779296875,7.685387329101562,-14.900763358778626,-134.0916030534351,24.091603053435115,72.4359375,52.18359375,-56.99765625,
1749736584.8644812,2025-06-12 20:56:24.864,31.782639949681013,14.951789367675781,5.128379956054687,6.007051965332031,7.4961832061068705,25.17557251908397,-17.916030534351144,74.211328125,50.75390625,-60.774609375,
1749736584.8793504,2025-06-12 20:56:24.879,31.782639949681013,-19.553444958496094,6.555324145507812,2.5617957763671875,18.66412213740458,-55.3587786259542,-3.9770992366412212,74.92148437499999,51.111328125,-58.714453125,
1749736584.8931181,2025-06-12 20:56:24.893,31.926408482343426,-9.124302526855468,-6.172251879882812,1.2138602416992186,22.18320610687023,-24.435114503816795,-10.80916030534351,73.85625,49.681640625,-58.714453125,
1749736584.9067314,2025-06-12 20:56:24.906,31.73471710546021,4.707000463867187,-6.789955908203124,13.436259716796874,-6.732824427480916,-7.793893129770993,6.66412213740458,,,,34.43669914997285
1749736584.920247,2025-06-12 20:56:24.920,31.782639949681013,-8.008604553222655,-3.5386300537109374,10.46984385986328,13.145038167938932,31.778625954198475,-7.091603053435114,72.6134765625,50.5751953125,-57.5126953125,
1749736584.9337888,2025-06-12 20:56:24.933,31.782639949681013,-1.7741034301757812,-0.5147533569335937,-1.254561669921875,-25.885496183206108,-250.13740458015266,5.679389312977099,71.015625,51.826171875,-59.0578125,
1749736584.9473178,2025-06-12 20:56:24.947,31.6388714170186,-19.610905798339843,-16.326061120605466,-19.6133,52.534351145038165,-196.70229007633588,-15.061068702290076,74.03378906249999,51.6474609375,-59.2294921875,
1749736584.9608998,2025-06-12 20:56:24.960,31.159642974810556,19.61270144958496,0.316034619140625,1.3934253662109375,-17.946564885496183,-167.67175572519085,-17.72519083969466,73.85625,50.0390625,-59.401171874999996,
1749736584.9743748,2025-06-12 20:56:24.974,31.926408482343426,2.9735984619140625,0.7302315063476562,7.876923461914062,-37.29007633587786,-68.55725190839695,20.396946564885496,74.211328125,51.826171875,-59.401171874999996,
1749736584.9889681,2025-06-12 20:56:24.988,31.83056279390182,-13.656526269531248,-10.218452685546874,11.365275280761718,19.106870229007633,37.3587786259542,4.3893129770992365,73.3236328125,50.9326171875,-58.1994140625,
1749736585.0027602,2025-06-12 20:56:25.002,31.159642974810556,-4.774038110351563,5.250484240722656,10.9941740234375,9.381679389312977,54.70229007633588,1.8854961832061068,73.3236328125,51.2900390625,-59.2294921875,35.40081132556266
1749736585.0201817,2025-06-12 20:56:25.020,31.926408482343426,-10.04846436767578,4.568136767578125,2.3343466186523436,-19.65648854961832,1.6717557251908397,11.770992366412214,73.14609374999999,50.75390625,-59.401171874999996,
1749736585.033764,2025-06-12 20:56:25.033,31.974331326564233,-1.2497732666015624,-0.9624690673828125,12.04762275390625,5.145038167938932,-80.43511450381679,10.129770992366412,72.791015625,50.0390625,-59.0578125,
1749736585.047391,2025-06-12 20:56:25.047,31.926408482343426,12.50012686767578,3.5242648437499997,11.094730493164063,24.580152671755727,-28.099236641221374,13.213740458015268,72.791015625,50.75390625,-60.43125,
1749736585.0609877,2025-06-12 20:56:25.060,31.782639949681013,7.3861121215820305,7.682993127441406,3.9049429077148434,1.3358778625954197,20.51145038167939,1.534351145038168,72.6134765625,50.9326171875,-61.2896484375,
1749736585.0745845,2025-06-12 20:56:25.074,31.782639949681013,4.908113403320312,-9.145850341796875,14.53759248046875,5.0534351145038165,-28.14503816793893,20.61832061068702,71.015625,51.826171875,-59.744531249999994,
1749736585.0882654,2025-06-12 20:56:25.088,31.83056279390182,-7.45075556640625,0.373495458984375,8.633491186523438,-3.3587786259541983,-11.778625954198473,19.14503816793893,73.14609374999999,52.18359375,-59.744531249999994,
1749736585.1030142,2025-06-12 20:56:25.103,31.73471710546021,2.70065947265625,3.208230224609375,7.721300354003906,-12.435114503816793,-14.022900763358779,1.0076335877862594,73.501171875,50.396484375,-58.714453125,34.5059783181234
1749736585.1204424,2025-06-12 20:56:25.120,31.83056279390182,-4.273649963378906,0.040701428222656245,8.360552197265624,2.0916030534351147,-6.9541984732824424,2.3053435114503817,73.6787109375,50.9326171875,-60.259570312499996,
1749736585.1339564,2025-06-12 20:56:25.133,32.40563692455147,-2.767697119140625,2.913743420410156,7.577648254394531,-4.984732824427481,-14.19083969465649,2.564885496183206,72.6134765625,51.2900390625,-60.259570312499996,
1749736585.1474588,2025-06-12 20:56:25.147,31.782639949681013,0.5315127685546874,-1.1947066284179686,19.61270144958496,-13.335877862595419,-43.458015267175576,-7.519083969465649,71.72578125,50.396484375,-60.087890625,
1749736585.1611018,2025-06-12 20:56:25.161,31.782639949681013,5.221753820800781,-1.5514426757812498,3.4835634155273434,16.17557251908397,14.961832061068701,-4.908396946564886,71.37070312499999,51.46875,-60.087890625,
1749736585.1746247,2025-06-12 20:56:25.174,32.07017701500584,2.5258827514648434,-4.879382983398437,3.9336733276367184,-13.061068702290076,-88.45038167938931,9.65648854961832,72.080859375,52.541015625,-60.43125,
1749736585.1881046,2025-06-12 20:56:25.188,32.40563692455147,-8.532934716796875,-5.327098693847656,19.469647900390623,15.221374045801527,91.1145038167939,-2.8244274809160306,72.6134765625,51.2900390625,-59.9162109375,
1749736585.2016628,2025-06-12 20:56:25.201,31.926408482343426,0.22026655273437498,3.0621839233398433,3.7301661865234372,11.34351145038168,-35.33587786259542,11.465648854961833,72.9685546875,53.0771484375,-59.9162109375,
1749736585.2164512,2025-06-12 20:56:25.216,31.782639949681013,-9.006986645507812,3.1866824096679687,-5.336675500488281,10.068702290076336,-21.022900763358777,7.022900763358779,72.9685546875,52.0048828125,-59.5728515625,
1749736585.2301135,2025-06-12 20:56:25.230,31.926408482343426,-12.552799304199217,-12.16254443359375,19.177555297851562,23.0381679389313,-8.061068702290076,6.351145038167939,71.72578125,52.541015625,-60.087890625,
1749736585.2436175,2025-06-12 20:56:25.243,32.357714080330666,9.10993731689453,2.8275521606445313,4.357447021484375,27.87786259541985,22.96946564885496,-2.0076335877862594,71.015625,52.541015625,-59.744531249999994,37.208625950717575
1749736585.260918,2025-06-12 20:56:25.260,32.07017701500584,11.889605444335936,3.4093431640625,15.950171459960936,-18.51145038167939,-90.81679389312977,6.099236641221374,72.9685546875,52.3623046875,-59.5728515625,
1749736585.2745025,2025-06-12 20:56:25.274,31.83056279390182,2.882618798828125,4.771643908691406,19.61270144958496,8.603053435114504,13.900763358778626,16.946564885496183,73.85625,51.46875,-60.087890625,
1749736585.2881706,2025-06-12 20:56:25.288,31.83056279390182,-17.106570861816405,1.3335703247070312,3.6056677001953124,21.31297709923664,56.80916030534351,-3.66412213740458,74.211328125,52.8984375,-60.43125,
1749736585.301928,2025-06-12 20:56:25.301,31.01587444214814,4.007893579101562,-5.872976672363281,14.504073657226561,-9.51908396946565,-99.33587786259542,-3.5114503816793894,72.25839843749999,53.0771484375,-59.9162109375,
1749736585.3156464,2025-06-12 20:56:25.315,31.782639949681013,-7.316680273437499,1.4867992309570313,17.243040356445313,3.564885496183206,-13.038167938931299,20.015267175572518,71.9033203125,53.4345703125,-59.2294921875,
1749736585.33041,2025-06-12 20:56:25.330,32.07017701500584,-12.351686364746094,-2.5043349365234375,1.3934253662109375,8.091603053435115,21.786259541984734,2.5419847328244276,71.9033203125,52.3623046875,-60.602929687499994,
1749736585.3439786,2025-06-12 20:56:25.343,31.73471710546021,-2.1068974609374997,-1.005564697265625,19.61270144958496,23.17557251908397,-46.58015267175573,-0.5954198473282443,73.3236328125,52.7197265625,-59.2294921875,34.4668288536548
1749736585.3614092,2025-06-12 20:56:25.361,32.118099859226646,0.9792284790039062,1.93451494140625,10.103531005859374,31.35114503816794,41.36641221374046,0.8396946564885496,73.3236328125,53.0771484375,-60.9462890625,
1749736585.3748696,2025-06-12 20:56:25.374,31.782639949681013,-0.09816226806640624,-7.338228088378906,0.3327940307617187,8.48091603053435,-35.0763358778626,-2.877862595419847,73.3236328125,53.0771484375,-58.542773437499996,
1749736585.388379,2025-06-12 20:56:25.388,31.83056279390182,4.65432802734375,-2.7174188842773437,19.61270144958496,0.9694656488549618,-20.49618320610687,-8.587786259541986,72.080859375,52.18359375,-59.401171874999996,
1749736585.4020996,2025-06-12 20:56:25.402,31.351334351693772,5.906495495605468,15.229516760253905,8.506598498535157,9.961832061068701,-6.122137404580153,-9.763358778625955,73.3236328125,53.0771484375,-59.5728515625,
1749736585.4156716,2025-06-12 20:56:25.415,32.07017701500584,-18.6939265625,1.695094775390625,4.589684582519531,3.1755725190839694,14.335877862595419,-0.9847328244274809,73.6787109375,53.0771484375,-60.259570312499996,
1749736585.4291947,2025-06-12 20:56:25.429,30.96795159792734,-2.6623522460937497,-8.09479581298828,10.656591589355468,3.4732824427480917,-16.435114503816795,-7.129770992366412,72.6134765625,52.3623046875,-59.9162109375,
1749736585.4441078,2025-06-12 20:56:25.444,31.73471710546021,1.6472107421875,-3.0909143432617188,1.5658078857421873,8.969465648854962,6.290076335877862,-16.740458015267176,71.5482421875,52.3623046875,-59.2294921875,
1749736585.457356,2025-06-12 20:56:25.457,31.83056279390182,-14.398728784179687,-4.074931225585937,-3.806780639648437,7.66412213740458,-88.83206106870229,-9.65648854961832,72.25839843749999,51.6474609375,-59.9162109375,
1749736585.4708698,2025-06-12 20:56:25.470,31.974331326564233,9.576806640625,-3.756502404785156,19.18473790283203,15.274809160305344,-46.79389312977099,0.7709923664122137,73.6787109375,50.9326171875,-60.259570312499996,
1749736585.4839535,2025-06-12 20:56:25.483,31.30341150747297,-14.343662145996094,-2.288856787109375,9.526528405761718,16.061068702290076,117.61832061068702,-9.389312977099237,73.14609374999999,51.46875,-60.087890625,
1749736585.4970045,2025-06-12 20:56:25.497,31.974331326564233,-8.315062365722655,6.967126831054687,1.0295067138671874,4.0458015267175576,-3.3587786259541983,-9.51908396946565,72.9685546875,50.9326171875,-60.602929687499994,
1749736585.5097961,2025-06-12 20:56:25.509,31.83056279390182,8.59997236328125,2.104503259277344,8.549694128417968,26.404580152671755,-96.0381679389313,6.3816793893129775,72.9685546875,50.5751953125,-59.9162109375,
1749736585.5221765,2025-06-12 20:56:25.522,31.73471710546021,11.544840405273437,6.361393811035156,8.250418920898436,7.320610687022901,-61.18320610687023,4.595419847328245,72.791015625,51.111328125,-60.774609375,
1749736585.534357,2025-06-12 20:56:25.534,32.07017701500584,-6.636727001953124,0.7757213378906249,0.13646949462890623,4.755725190839694,-30.6793893129771,-3.9923664122137406,72.080859375,51.826171875,-59.744531249999994,
1749736585.546522,2025-06-12 20:56:25.546,31.926408482343426,1.2497732666015624,2.971204260253906,19.61270144958496,-2.549618320610687,-3.2595419847328246,-14.183206106870228,73.3236328125,51.2900390625,-60.602929687499994,
1749736585.559155,2025-06-12 20:56:25.559,31.926408482343426,-6.9527616210937495,2.748543505859375,2.3032219970703123,3.4732824427480917,27.740458015267176,-8.931297709923664,,,,34.944185629337944
1749736585.5713248,2025-06-12 20:56:25.571,31.974331326564233,-9.715670336914062,6.8593877563476555,8.037334973144532,7.3816793893129775,-26.198473282442748,1.1145038167938932,73.14609374999999,52.18359375,-58.37109375,
1749736585.583437,2025-06-12 20:56:25.583,31.73471710546021,6.289567761230469,5.987898352050781,3.7229835815429686,1.0687022900763359,-16.595419847328245,-5.114503816793893,72.25839843749999,50.2177734375,-58.542773437499996,
1749736585.595592,2025-06-12 20:56:25.595,32.357714080330666,-8.104372619628906,-0.09576806640624999,15.090653063964844,31.83206106870229,48.916030534351144,6.824427480916031,73.14609374999999,51.111328125,-59.744531249999994,
1749736585.6077075,2025-06-12 20:56:25.607,31.782639949681013,-11.087547888183593,-2.1835119140624997,6.921636999511718,14.374045801526718,21.580152671755727,4.931297709923665,72.4359375,51.111328125,-60.087890625,
1749736585.6198528,2025-06-12 20:56:25.619,31.926408482343426,8.942343200683593,1.5777788940429687,18.148048583984373,-21.435114503816795,-23.221374045801525,-5.312977099236641,72.25839843749999,53.4345703125,-59.5728515625,
1749736585.631959,2025-06-12 20:56:25.631,31.974331326564233,3.0071172851562498,2.6216508178710938,16.191985827636717,12.755725190839694,15.801526717557252,4.312977099236641,72.4359375,49.681640625,-60.087890625,
1749736585.6443856,2025-06-12 20:56:25.644,31.782639949681013,-9.720458740234374,2.3582886352539063,3.6487633300781246,9.221374045801527,65.52671755725191,6.801526717557252,72.9685546875,52.0048828125,-58.886132812499994,
1749736585.6574035,2025-06-12 20:56:25.657,31.73471710546021,14.470554833984375,4.027047192382812,18.38687019958496,-14.206106870229007,-49.01526717557252,-1.8778625954198473,72.4359375,52.541015625,-60.087890625,
1749736585.672477,2025-06-12 20:56:25.672,31.782639949681013,-9.64623848876953,-4.527435339355469,9.713276135253906,-0.16030534351145037,95.40458015267176,-3.7404580152671754,72.6134765625,50.9326171875,-59.9162109375,
1749736585.6860604,2025-06-12 20:56:25.686,32.07017701500584,-4.5968671875,4.153939880371094,4.053383410644531,7.122137404580153,-27.412213740458014,2.0076335877862594,71.37070312499999,52.18359375,-58.37109375,
1749736585.699665,2025-06-12 20:56:25.699,31.926408482343426,2.8850130004882812,-1.8339584716796873,-2.1811177124023438,-1.8778625954198473,-99.94656488549619,-2.2977099236641223,72.25839843749999,50.9326171875,-59.9162109375,
1749736585.7132719,2025-06-12 20:56:25.713,31.974331326564233,10.05564697265625,1.24498486328125,15.90947003173828,34.49618320610687,-115.29770992366412,16.61832061068702,72.4359375,52.18359375,-60.774609375,
1749736585.7268069,2025-06-12 20:56:25.726,31.782639949681013,5.066130712890625,6.591237170410156,-0.11731588134765625,13.022900763358779,73.29007633587786,6.687022900763359,72.6134765625,52.7197265625,-59.5728515625,
1749736585.7404284,2025-06-12 20:56:25.740,31.83056279390182,-13.785813159179687,5.090072729492187,4.69263525390625,0.5725190839694656,16.96946564885496,-6.259541984732825,72.080859375,51.826171875,-59.0578125,
1749736585.754148,2025-06-12 20:56:25.754,31.782639949681013,1.197100830078125,-2.3032219970703123,16.213533642578124,-4.923664122137405,-71.1145038167939,6.465648854961832,73.14609374999999,51.111328125,-59.0578125,
1749736585.7678225,2025-06-12 20:56:25.767,32.26186839188906,8.030152368164062,4.7572786987304685,8.279149340820313,14.854961832061068,61.587786259541986,-5.732824427480916,73.85625,53.61328125,-60.774609375,
1749736585.7826374,2025-06-12 20:56:25.782,32.40563692455147,-9.878476049804688,-0.5267243652343749,9.337386474609374,-10.17557251908397,-34.66412213740458,-11.473282442748092,72.791015625,52.541015625,-60.087890625,
1749736585.796224,2025-06-12 20:56:25.796,31.20756581903136,-6.081272216796875,-0.6009446166992187,17.77395457458496,21.81679389312977,57.97709923664122,7.244274809160306,72.6134765625,50.9326171875,-59.5728515625,
1749736585.8097281,2025-06-12 20:56:25.809,31.974331326564233,-5.252878442382812,3.306392492675781,12.30859073486328,7.190839694656488,11.091603053435115,10.229007633587786,71.9033203125,53.7919921875,-58.886132812499994,
1749736585.8233206,2025-06-12 20:56:25.823,31.926408482343426,5.461173986816406,3.303998291015625,12.770671655273437,-7.152671755725191,-39.954198473282446,-0.9694656488549618,73.3236328125,53.0771484375,-59.2294921875,
1749736585.837188,2025-06-12 20:56:25.837,31.73471710546021,-6.418854650878906,-1.024718310546875,9.299079248046874,20.31297709923664,2.0916030534351147,-0.816793893129771,71.72578125,52.8984375,-60.43125,
1749736585.8507876,2025-06-12 20:56:25.850,31.063797286368946,10.177751257324218,2.068590234375,12.284648718261717,9.854961832061068,-38.97709923664122,3.564885496183206,73.6787109375,53.0771484375,-59.9162109375,
1749736585.86445,2025-06-12 20:56:25.864,31.83056279390182,0.9624690673828125,-0.5003881469726562,8.288726147460936,-3.0916030534351147,45.18320610687023,0.022900763358778626,72.6134765625,51.2900390625,-59.9162109375,
1749736585.8779511,2025-06-12 20:56:25.877,31.782639949681013,-15.004461804199218,1.5658078857421873,12.215216870117187,17.129770992366414,90.65648854961832,3.122137404580153,73.3236328125,52.3623046875,-59.9162109375,
1749736585.8927102,2025-06-12 20:56:25.892,31.20756581903136,5.137956762695312,0.22505495605468748,6.5505357421875,-3.5572519083969465,-75.64885496183206,5.900763358778626,72.9685546875,52.7197265625,-61.6330078125,
1749736585.9062653,2025-06-12 20:56:25.906,32.40563692455147,7.237671618652343,-0.23702596435546874,17.968483459472655,-0.7633587786259542,17.022900763358777,0.32061068702290074,74.92148437499999,52.18359375,-60.087890625,
1749736585.9199638,2025-06-12 20:56:25.919,30.96795159792734,5.6766521362304685,-7.378929516601562,8.219294299316406,34.16030534351145,13.34351145038168,21.72519083969466,71.37070312499999,52.541015625,-60.43125,
1749736585.9334285,2025-06-12 20:56:25.933,31.782639949681013,-16.364368347167968,2.5809493896484375,9.931148486328125,10.633587786259541,52.29007633587786,-1.4732824427480915,72.791015625,52.541015625,-60.087890625,
1749736585.9473536,2025-06-12 20:56:25.947,31.926408482343426,-7.637503295898437,-1.4149731811523436,15.761029528808592,9.34351145038168,-49.38167938931298,-11.335877862595419,73.6787109375,51.6474609375,-60.259570312499996,
1749736585.9612272,2025-06-12 20:56:25.961,31.782639949681013,5.061342309570312,0.49799394531249996,12.50730947265625,14.801526717557252,52.541984732824424,9.083969465648854,71.1931640625,51.2900390625,-59.5728515625,
1749736585.9748151,2025-06-12 20:56:25.974,31.83056279390182,-17.774553125,-8.149862451171874,4.182670300292968,7.190839694656488,121.18320610687023,4.511450381679389,74.7439453125,53.0771484375,-60.259570312499996,
1749736585.9883888,2025-06-12 20:56:25.988,31.83056279390182,-14.053963745117187,-7.017405065917968,10.189722265624999,20.65648854961832,6.259541984732825,7.366412213740458,73.6787109375,50.9326171875,-60.9462890625,
1749736586.0029268,2025-06-12 20:56:26.002,31.73471710546021,5.734112976074218,2.4971523315429685,11.006145031738281,23.38167938931298,-22.954198473282442,20.977099236641223,72.4359375,52.541015625,-60.087890625,
1749736586.0168762,2025-06-12 20:56:26.016,32.07017701500584,-14.250288281249999,-1.1923124267578125,0.201112939453125,0.9236641221374046,52.00763358778626,10.122137404580153,71.72578125,54.328125,-59.0578125,
1749736586.0305216,2025-06-12 20:56:26.030,31.83056279390182,-5.600037683105469,-15.5910412109375,19.61270144958496,5.465648854961832,-159.41221374045801,8.595419847328245,73.85625,52.18359375,-60.087890625,
1749736586.0440538,2025-06-12 20:56:26.044,31.974331326564233,9.8449572265625,5.916072302246094,11.801019982910155,-0.7175572519083969,41.51908396946565,2.5267175572519083,71.37070312499999,52.8984375,-58.027734374999994,
1749736586.0575495,2025-06-12 20:56:26.057,32.357714080330666,-11.49216796875,10.304643945312499,11.731588134765625,13.15267175572519,98.0,-6.854961832061068,72.080859375,52.8984375,-60.087890625,
1749736586.0711722,2025-06-12 20:56:26.071,31.063797286368946,-2.6431986328124997,-2.104503259277344,2.2481553588867187,-7.015267175572519,-113.76335877862596,5.0458015267175576,72.6134765625,52.7197265625,-60.9462890625,
1749736586.0849903,2025-06-12 20:56:26.084,31.83056279390182,14.966154577636718,-1.908178723144531,15.351621044921874,12.740458015267176,-4.419847328244275,9.297709923664122,73.14609374999999,52.18359375,-59.744531249999994,
1749736586.0986085,2025-06-12 20:56:26.098,31.926408482343426,-1.4437036010742186,4.7189714721679685,4.967968444824218,-11.648854961832061,45.847328244274806,9.511450381679388,73.85625,53.61328125,-59.401171874999996,
1749736586.113073,2025-06-12 20:56:26.113,31.83056279390182,14.520833068847656,-3.0310593017578125,19.543868151855467,27.755725190839694,-78.77099236641222,12.206106870229007,73.501171875,52.8984375,-59.401171874999996,
1749736586.1271129,2025-06-12 20:56:26.127,32.357714080330666,4.197035510253906,6.098031628417968,11.410765112304686,8.83206106870229,-9.83969465648855,18.977099236641223,72.4359375,55.04296875,-59.0578125,
1749736586.1408966,2025-06-12 20:56:26.140,31.782639949681013,2.616862414550781,7.079654309082031,15.210363146972655,-3.114503816793893,80.70229007633588,6.66412213740458,72.4359375,52.541015625,-61.117968749999996,
1749736586.154498,2025-06-12 20:56:26.154,31.782639949681013,-19.6133,2.1835119140624997,4.106055847167968,-1.16793893129771,57.76335877862596,-0.8702290076335878,73.3236328125,52.3623046875,-58.886132812499994,
1749736586.168161,2025-06-12 20:56:26.168,31.974331326564233,1.5634136840820312,3.0406361083984375,4.594472985839843,11.007633587786259,-37.31297709923664,13.633587786259541,72.791015625,53.255859375,-60.774609375,
1749736586.1818037,2025-06-12 20:56:26.181,31.73471710546021,7.903259680175781,6.445190869140625,7.654262707519531,-0.7022900763358778,27.862595419847327,-4.480916030534351,72.6134765625,53.0771484375,-59.2294921875,
1749736586.1953428,2025-06-12 20:56:26.195,31.974331326564233,17.037139013671872,1.8411410766601561,19.61270144958496,18.0381679389313,-3.2061068702290076,6.236641221374046,74.211328125,52.541015625,-60.087890625,
1749736586.2089083,2025-06-12 20:56:26.208,32.21394554766825,-11.085153686523437,19.527108740234375,15.375563061523437,2.2213740458015265,55.25954198473283,12.305343511450381,72.4359375,52.8984375,-59.744531249999994,
1749736586.2235098,2025-06-12 20:56:26.223,31.73471710546021,18.947711938476562,4.192247106933594,19.594146386718748,-16.580152671755727,-92.46564885496183,-4.022900763358779,71.72578125,53.61328125,-60.087890625,
1749736586.237349,2025-06-12 20:56:26.237,31.926408482343426,-19.6133,1.4891934326171874,8.432378247070313,9.50381679389313,131.9770992366412,16.16030534351145,72.25839843749999,52.7197265625,-59.2294921875,
1749736586.251143,2025-06-12 20:56:26.251,31.782639949681013,-19.6133,4.553771557617187,1.3239935180664062,17.977099236641223,14.068702290076336,-5.091603053435114,73.14609374999999,53.970703125,-60.43125,
1749736586.26483,2025-06-12 20:56:26.264,31.73471710546021,3.0526071166992184,-3.42849677734375,11.863269226074218,-21.358778625954198,-123.8854961832061,4.3816793893129775,72.791015625,52.18359375,-59.0578125,
1749736586.278492,2025-06-12 20:56:26.278,31.73471710546021,-9.246406811523437,4.742913488769531,-0.699106884765625,9.488549618320612,37.83969465648855,-3.6106870229007635,72.6134765625,52.3623046875,-60.259570312499996,
1749736586.2919154,2025-06-12 20:56:26.291,31.20756581903136,-0.5482721801757812,3.162740393066406,11.281478222656249,3.7404580152671754,53.93893129770992,6.213740458015267,72.9685546875,55.9365234375,-59.9162109375,
1749736586.305538,2025-06-12 20:56:26.305,31.926408482343426,-19.424158068847657,-5.6407391113281244,9.811438403320311,7.190839694656488,15.67175572519084,15.541984732824428,72.9685546875,53.4345703125,-59.2294921875,
1749736586.3189971,2025-06-12 20:56:26.318,31.974331326564233,4.3430818115234375,-4.826710546875,9.816226806640625,11.351145038167939,-31.66412213740458,8.435114503816793,72.791015625,52.8984375,-61.461328124999994,
1749736586.3325357,2025-06-12 20:56:26.332,31.83056279390182,-11.303026037597656,-1.867477294921875,-4.896142395019531,10.664122137404581,-56.786259541984734,0.07633587786259542,72.4359375,52.541015625,-58.714453125,
1749736586.3475132,2025-06-12 20:56:26.347,31.782639949681013,7.740453967285156,-4.335899206542969,19.61270144958496,-17.9618320610687,-128.75572519083968,2.633587786259542,72.25839843749999,52.3623046875,-58.542773437499996,
1749736586.3613522,2025-06-12 20:56:26.361,31.83056279390182,-4.271255761718749,-3.976768957519531,0.1771709228515625,17.99236641221374,70.16030534351145,4.374045801526718,72.080859375,53.61328125,-60.43125,
1749736586.375448,2025-06-12 20:56:26.375,31.926408482343426,2.5474305664062498,7.043741284179687,5.932831713867187,-8.381679389312977,51.93129770992366,9.511450381679388,71.9033203125,55.5791015625,-58.886132812499994,
1749736586.390785,2025-06-12 20:56:26.390,30.96795159792734,5.729324572753906,-7.036558679199218,19.316418994140623,8.206106870229007,-36.02290076335878,-1.0381679389312977,73.14609374999999,52.541015625,-60.087890625,
1749736586.4043095,2025-06-12 20:56:26.404,31.20756581903136,1.2952630981445312,2.384624853515625,12.911929553222656,13.694656488549619,102.77862595419847,-10.17557251908397,73.3236328125,53.7919921875,-59.5728515625,
1749736586.4178276,2025-06-12 20:56:26.417,31.83056279390182,1.1372457885742187,2.612074011230469,3.3303345092773435,-1.5572519083969465,-33.37404580152672,-17.519083969465647,72.25839843749999,54.1494140625,-61.6330078125,
1749736586.4313188,2025-06-12 20:56:26.431,31.926408482343426,0.7302315063476562,-5.140350964355468,19.61270144958496,1.4198473282442747,-34.36641221374046,2.969465648854962,73.85625,52.541015625,-61.461328124999994,
1749736586.445231,2025-06-12 20:56:26.445,31.83056279390182,-3.928884924316406,10.79545528564453,-3.5003228271484375,3.946564885496183,-9.045801526717558,1.6259541984732824,72.9685546875,54.8642578125,-60.602929687499994,36.00652628824356
1749736586.4641068,2025-06-12 20:56:26.464,31.20756581903136,0.603338818359375,-3.7110125732421873,19.61270144958496,8.213740458015268,-34.6793893129771,-2.5877862595419847,72.080859375,53.970703125,-61.117968749999996,
1749736586.477782,2025-06-12 20:56:26.477,32.357714080330666,13.273454003906249,-1.5227122558593749,1.7190367919921874,21.083969465648856,21.938931297709924,-12.816793893129772,71.5482421875,54.8642578125,-59.9162109375,
1749736586.4913664,2025-06-12 20:56:26.491,31.782639949681013,0.22266075439453123,1.426944189453125,5.853823059082031,24.412213740458014,93.72519083969466,-16.870229007633586,73.501171875,52.8984375,-60.774609375,
1749736586.5049574,2025-06-12 20:56:26.504,32.16602270344745,-18.24621085205078,-4.161122485351562,19.335572607421874,-16.114503816793892,-45.16793893129771,7.244274809160306,72.9685546875,53.7919921875,-61.2896484375,
1749736586.5185535,2025-06-12 20:56:26.518,31.782639949681013,-3.6918589599609373,-3.5913024902343746,4.893748193359374,1.9465648854961832,5.534351145038168,-20.702290076335878,72.4359375,53.255859375,-60.774609375,
1749736586.5321925,2025-06-12 20:56:26.532,31.926408482343426,-12.229582080078124,-1.37906015625,10.204087475585936,-10.389312977099237,-35.62595419847328,0.19083969465648856,72.4359375,52.8984375,-61.117968749999996,
1749736586.5470364,2025-06-12 20:56:26.547,30.96795159792734,-6.730100866699218,-3.2345664428710936,12.990938208007812,-2.0076335877862594,35.63358778625954,-10.083969465648854,71.5482421875,53.7919921875,-60.9462890625,
1749736586.5621665,2025-06-12 20:56:26.562,31.83056279390182,7.196970190429687,4.2305543334960936,10.175357055664062,12.603053435114504,-54.786259541984734,-3.3587786259541983,72.791015625,54.685546875,-60.087890625,
1749736586.5759902,2025-06-12 20:56:26.575,31.83056279390182,0.7781155395507812,-0.4644751220703125,5.626373901367187,-11.679389312977099,7.022900763358779,8.32824427480916,74.03378906249999,54.8642578125,-60.602929687499994,
1749736586.5895994,2025-06-12 20:56:26.589,31.73471710546021,-19.515137731933592,-5.741295581054687,15.674838269042969,19.137404580152673,73.12213740458016,3.4427480916030535,73.6787109375,53.4345703125,-60.602929687499994,
1749736586.6033463,2025-06-12 20:56:26.603,31.974331326564233,2.138022082519531,7.220912207031249,3.181894006347656,21.015267175572518,-11.992366412213741,4.648854961832061,73.3236328125,53.4345703125,-59.9162109375,
1749736586.6168766,2025-06-12 20:56:26.616,31.782639949681013,8.061276989746093,1.9991583862304687,1.608903515625,8.48091603053435,11.442748091603054,-12.229007633587786,72.6134765625,53.7919921875,-60.602929687499994,
1749736586.630292,2025-06-12 20:56:26.630,31.782639949681013,1.0893617553710937,1.9416975463867185,9.562441430664062,2.122137404580153,-82.34351145038168,11.145038167938932,70.8380859375,53.4345703125,-61.976367187499996,
1749736586.6436355,2025-06-12 20:56:26.643,31.782639949681013,5.604826086425781,-0.34715924072265625,15.74905852050781,3.435114503816794,-10.755725190839694,0.4122137404580153,73.3236328125,55.5791015625,-61.976367187499996,
1749736586.656969,2025-06-12 20:56:26.656,31.926408482343426,-7.7763669921875,6.471527087402343,2.013523596191406,-7.312977099236641,44.954198473282446,2.145038167938931,73.14609374999999,53.970703125,-61.461328124999994,
1749736586.670491,2025-06-12 20:56:26.670,31.782639949681013,-14.243105676269531,-1.668758557128906,19.519926135253904,-5.213740458015267,-60.56488549618321,8.50381679389313,72.6134765625,54.8642578125,-60.9462890625,
1749736586.6853328,2025-06-12 20:56:26.685,30.96795159792734,19.61270144958496,6.517016918945312,9.354145886230468,16.65648854961832,-19.0,3.2442748091603053,71.015625,53.970703125,-61.8046875,
1749736586.6996803,2025-06-12 20:56:26.699,32.30979123610986,-0.6416460449218749,2.5258827514648434,6.5505357421875,-36.29770992366412,-25.206106870229007,1.633587786259542,73.3236328125,51.2900390625,-60.9462890625,
1749736586.7133198,2025-06-12 20:56:26.713,31.159642974810556,-1.3024457031249999,7.369352709960937,18.23364129333496,2.648854961832061,18.30534351145038,21.80916030534351,73.14609374999999,55.400390625,-61.461328124999994,
1749736586.7263849,2025-06-12 20:56:26.726,31.01587444214814,-15.935806249999999,2.032677209472656,13.907917443847655,22.85496183206107,101.46564885496183,-3.404580152671756,72.9685546875,54.5068359375,-60.602929687499994,
1749736586.7394314,2025-06-12 20:56:26.739,31.782639949681013,-10.606313354492187,-1.1109095703125,4.9823336547851556,-9.099236641221374,-80.13740458015268,3.282442748091603,74.03378906249999,53.0771484375,-60.9462890625,
1749736586.7529826,2025-06-12 20:56:26.752,31.974331326564233,3.227383837890625,0.10295067138671875,12.140996618652343,8.396946564885496,-2.8473282442748094,13.305343511450381,73.14609374999999,53.970703125,-60.774609375,
1749736586.7665508,2025-06-12 20:56:26.766,31.73471710546021,-0.603338818359375,4.80755693359375,5.2648494506835934,24.282442748091604,54.66412213740458,5.076335877862595,72.25839843749999,54.8642578125,-60.259570312499996,
1749736586.7801561,2025-06-12 20:56:26.780,32.21394554766825,-4.996698864746094,-1.1923124267578125,7.40526573486328,16.916030534351144,-24.87786259541985,-16.12213740458015,72.25839843749999,54.1494140625,-60.9462890625,
1749736586.7951674,2025-06-12 20:56:26.795,31.73471710546021,2.7724855224609373,-2.020706201171875,12.23197628173828,-2.435114503816794,-29.16793893129771,9.748091603053435,73.85625,53.255859375,-60.774609375,
1749736586.808768,2025-06-12 20:56:26.808,31.159642974810556,-10.232817895507813,-0.3591302490234375,4.781220715332031,12.50381679389313,64.1526717557252,-7.770992366412214,73.3236328125,53.7919921875,-61.6330078125,
1749736586.8223102,2025-06-12 20:56:26.822,32.357714080330666,-4.546588952636719,-2.6886884643554687,4.900930798339844,-5.801526717557252,-48.2442748091603,-17.328244274809162,72.9685546875,52.7197265625,-61.2896484375,
1749736586.8358388,2025-06-12 20:56:26.835,31.73471710546021,-3.459621398925781,1.668758557128906,2.6623522460937497,9.17557251908397,-1.2213740458015268,11.473282442748092,72.080859375,52.8984375,-60.774609375,
1749736586.8494337,2025-06-12 20:56:26.849,31.974331326564233,-11.820173596191406,1.886630908203125,9.1554271484375,1.618320610687023,27.65648854961832,-2.9160305343511452,71.9033203125,54.8642578125,-60.259570312499996,
1749736586.8630297,2025-06-12 20:56:26.863,31.782639949681013,8.765172277832031,-0.35673604736328124,15.82567297363281,10.15267175572519,-0.9618320610687023,-14.702290076335878,74.3888671875,53.4345703125,-59.9162109375,
1749736586.8765419,2025-06-12 20:56:26.876,32.07017701500584,-4.335899206542969,-2.8850130004882812,3.622427111816406,16.870229007633586,-1.748091603053435,-2.900763358778626,72.4359375,52.8984375,-60.43125,
1749736586.8900797,2025-06-12 20:56:26.890,31.926408482343426,-2.1068974609374997,-0.3758896606445312,7.862558251953125,12.65648854961832,-2.50381679389313,-5.9541984732824424,72.080859375,54.328125,-61.461328124999994,
1749736586.9047806,2025-06-12 20:56:26.904,32.118099859226646,-14.884751721191405,-10.94868419189453,6.212953308105468,-0.37404580152671757,-61.83206106870229,-7.038167938931298,72.9685546875,52.7197265625,-60.9462890625,
1749736586.9183187,2025-06-12 20:56:26.918,31.83056279390182,-18.18875001220703,-4.496310717773437,12.457031237792968,12.473282442748092,99.27480916030534,-16.396946564885496,72.791015625,52.8984375,-60.774609375,35.84587753223054
1749736586.9356806,2025-06-12 20:56:26.935,31.974331326564233,-5.829881042480468,-1.7812860351562498,16.251840869140626,0.7709923664122137,78.98473282442748,-10.091603053435115,72.9685546875,55.5791015625,-60.9462890625,
1749736586.949456,2025-06-12 20:56:26.949,31.73471710546021,9.325415466308593,2.4851813232421875,11.372457885742186,9.770992366412214,-59.58015267175573,10.763358778625955,72.9685546875,53.4345703125,-60.602929687499994,
1749736586.9630125,2025-06-12 20:56:26.963,31.83056279390182,12.907141149902342,7.204152795410156,17.41542287597656,7.984732824427481,7.396946564885496,12.435114503816793,73.3236328125,54.1494140625,-60.9462890625,
1749736586.976523,2025-06-12 20:56:26.976,32.07017701500584,-19.6133,3.0166940917968748,3.6535517333984373,0.7099236641221374,85.41221374045801,3.8244274809160306,72.25839843749999,54.1494140625,-60.9462890625,
1749736586.9900534,2025-06-12 20:56:26.990,31.782639949681013,-19.6133,-4.537012145996093,12.442666027832031,15.633587786259541,115.82442748091603,10.748091603053435,73.501171875,52.541015625,-61.8046875,
1749736587.00362,2025-06-12 20:56:27.003,31.926408482343426,0.7589619262695312,0.9337386474609375,0.3232172241210937,26.076335877862597,38.541984732824424,1.786259541984733,72.4359375,52.18359375,-61.461328124999994,
1749736587.0183647,2025-06-12 20:56:27.018,31.926408482343426,-7.345410693359375,4.599261389160156,3.172317199707031,-18.641221374045802,-4.244274809160306,1.9465648854961832,73.6787109375,53.4345703125,-61.6330078125,36.27406440740698
1749736587.0357196,2025-06-12 20:56:27.035,31.782639949681013,4.522646936035156,-7.498639599609374,19.251775549316406,25.206106870229007,49.18320610687023,16.61832061068702,72.6134765625,53.7919921875,-59.9162109375,
1749736587.049129,2025-06-12 20:56:27.049,31.782639949681013,-7.711723547363281,6.167463476562499,5.949591125488281,21.099236641221374,-10.885496183206106,-1.7099236641221374,73.14609374999999,53.970703125,-59.744531249999994,
1749736587.062633,2025-06-12 20:56:27.062,32.07017701500584,-2.882618798828125,-3.2513258544921873,14.018050720214843,13.129770992366412,-15.312977099236642,6.541984732824427,74.211328125,53.255859375,-60.43125,
1749736587.0762486,2025-06-12 20:56:27.076,32.40563692455147,-0.13407529296874998,0.7493851196289062,7.395688928222656,28.801526717557252,48.221374045801525,-15.641221374045802,72.4359375,53.61328125,-60.43125,
1749736587.089823,2025-06-12 20:56:27.089,31.782639949681013,-11.97100830078125,2.3870190551757813,-0.9528922607421875,19.717557251908396,44.343511450381676,-2.312977099236641,73.85625,55.04296875,-60.774609375,
1749736587.1033313,2025-06-12 20:56:27.103,31.926408482343426,-6.301538769531249,-3.4452561889648434,10.273519323730468,25.72519083969466,-15.01526717557252,0.061068702290076333,71.9033203125,52.0048828125,-62.6630859375,
1749736587.1169355,2025-06-12 20:56:27.116,31.159642974810556,-3.0526071166992184,0.7493851196289062,15.377957263183593,21.27480916030534,41.38167938931298,-3.450381679389313,72.080859375,52.541015625,-60.774609375,
1749736587.1317015,2025-06-12 20:56:27.131,32.357714080330666,-6.392518432617187,0.59376201171875,-5.166687182617188,17.17557251908397,-85.33587786259542,1.83206106870229,72.4359375,52.8984375,-61.461328124999994,
1749736587.1455276,2025-06-12 20:56:27.145,32.357714080330666,-19.6133,-3.6487633300781246,19.61270144958496,7.908396946564886,98.19847328244275,8.396946564885496,71.9033203125,52.0048828125,-58.1994140625,
1749736587.1591477,2025-06-12 20:56:27.159,31.782639949681013,-7.3932947265625,-5.781997009277344,-3.2800562744140622,15.022900763358779,-84.45038167938931,6.603053435114504,72.080859375,53.61328125,-60.774609375,
1749736587.172663,2025-06-12 20:56:27.172,31.926408482343426,7.371746911621093,7.161057165527343,10.635043774414061,-3.8091603053435112,-31.977099236641223,10.007633587786259,,,,36.16510514011746
1749736587.1862874,2025-06-12 20:56:27.186,30.96795159792734,-7.113173132324218,0.1149216796875,16.206351037597656,-0.5343511450381679,31.65648854961832,-1.0076335877862594,72.080859375,51.46875,-60.43125,
1749736587.1997225,2025-06-12 20:56:27.199,31.926408482343426,-13.565546606445311,2.0446482177734375,7.311891870117187,14.01526717557252,48.25190839694657,-1.0229007633587786,72.25839843749999,54.1494140625,-60.602929687499994,
1749736587.2131448,2025-06-12 20:56:27.213,31.926408482343426,0.7613561279296874,2.0350714111328125,10.510545288085936,-11.389312977099237,-21.748091603053435,-1.748091603053435,73.14609374999999,53.255859375,-60.774609375,
1749736587.2345884,2025-06-12 20:56:27.234,31.782639949681013,0.8212111694335937,-0.6248866333007812,3.5625720703124997,8.198473282442748,-18.595419847328245,-5.244274809160306,74.3888671875,53.7919921875,-60.259570312499996,
1749736587.248725,2025-06-12 20:56:27.248,31.974331326564233,4.568136767578125,6.210559106445312,7.541735229492187,10.549618320610687,39.17557251908397,-1.5038167938931297,73.14609374999999,53.255859375,-60.087890625,
1749736587.2619588,2025-06-12 20:56:27.261,31.83056279390182,-9.165003955078124,-0.33518823242187495,9.229647399902344,20.045801526717558,-6.038167938931298,2.7557251908396947,71.9033203125,52.7197265625,-61.6330078125,
1749736587.2748857,2025-06-12 20:56:27.274,31.782639949681013,-3.689464758300781,2.01112939453125,10.304643945312499,19.015267175572518,-0.31297709923664124,7.427480916030534,72.9685546875,52.7197265625,-59.2294921875,
1749736587.2876892,2025-06-12 20:56:27.287,31.73471710546021,-2.806004345703125,-0.28490999755859375,0.5027823486328125,-2.854961832061069,-59.19847328244275,2.267175572519084,73.501171875,54.685546875,-59.401171874999996,
1749736587.3004029,2025-06-12 20:56:27.300,31.782639949681013,3.5338416503906247,-2.3151930053710936,19.61270144958496,10.541984732824428,15.305343511450381,-0.5267175572519084,72.4359375,53.255859375,-60.774609375,
1749736587.3140287,2025-06-12 20:56:27.314,31.974331326564233,-6.488286499023437,1.2785036865234374,6.701370446777343,-7.190839694656488,50.49618320610687,-9.320610687022901,72.25839843749999,54.8642578125,-58.886132812499994,
1749736587.3277407,2025-06-12 20:56:27.327,31.73471710546021,-19.543868151855467,-3.921702319335937,-7.587225061035156,-0.37404580152671757,-67.22137404580153,-5.435114503816794,71.37070312499999,54.328125,-60.774609375,
1749736587.3427913,2025-06-12 20:56:27.342,32.40563692455147,0.5123591552734374,-3.0933085449218747,19.61270144958496,-1.8702290076335877,6.404580152671755,3.8931297709923665,71.72578125,53.61328125,-59.744531249999994,
1749736587.3573024,2025-06-12 20:56:27.357,31.83056279390182,-11.659762084960937,-5.53539423828125,4.5968671875,6.862595419847328,-15.931297709923664,5.351145038167939,72.9685546875,55.2216796875,-59.2294921875,
1749736587.3708901,2025-06-12 20:56:27.370,32.118099859226646,-0.9217676391601562,2.592920397949219,9.306261853027344,0.7175572519083969,22.16793893129771,-0.8091603053435115,72.25839843749999,52.0048828125,-61.2896484375,
1749736587.3845189,2025-06-12 20:56:27.384,32.30979123610986,-14.219163659667968,-6.021417175292968,12.303802331542968,20.282442748091604,14.541984732824428,16.229007633587788,72.6134765625,52.3623046875,-58.886132812499994,
1749736587.3979673,2025-06-12 20:56:27.397,31.974331326564233,-5.197811804199218,4.575319372558593,7.903259680175781,6.770992366412214,28.66412213740458,6.366412213740458,75.0990234375,54.5068359375,-60.259570312499996,
1749736587.4116008,2025-06-12 20:56:27.411,32.40563692455147,-1.4101847778320311,1.0702081420898437,12.552799304199217,-3.4122137404580153,23.236641221374047,-9.32824427480916,71.37070312499999,53.970703125,-58.714453125,
1749736587.4251719,2025-06-12 20:56:27.425,31.30341150747297,-0.40222587890625,-2.157175695800781,11.645396875,8.038167938931299,-18.862595419847327,1.5190839694656488,73.14609374999999,53.61328125,-59.744531249999994,
1749736587.4388018,2025-06-12 20:56:27.438,32.30979123610986,-3.83072265625,6.076483813476562,6.2201359130859375,14.251908396946565,13.83206106870229,-1.8473282442748091,72.6134765625,54.5068359375,-59.5728515625,
1749736587.4525409,2025-06-12 20:56:27.452,31.063797286368946,6.7037646484375,4.529829541015625,7.433996154785156,-2.549618320610687,-36.81679389312977,-6.656488549618321,72.25839843749999,53.4345703125,-60.259570312499996,
1749736587.467514,2025-06-12 20:56:27.467,31.83056279390182,-19.6133,9.411606726074218,6.947973217773437,16.80916030534351,61.98473282442748,0.4198473282442748,72.4359375,52.18359375,-61.117968749999996,
1749736587.48119,2025-06-12 20:56:27.481,31.73471710546021,-3.948038537597656,5.72693037109375,6.2392895263671875,2.595419847328244,-46.091603053435115,-5.374045801526718,74.211328125,54.685546875,-58.714453125,
1749736587.4948232,2025-06-12 20:56:27.494,31.782639949681013,8.123526232910155,-2.3223756103515623,13.84806240234375,4.534351145038168,-12.374045801526718,-5.076335877862595,74.92148437499999,51.826171875,-61.117968749999996,
1749736587.5083258,2025-06-12 20:56:27.508,31.159642974810556,-13.091494677734374,0.34715924072265625,14.214375256347655,4.9541984732824424,41.10687022900763,23.213740458015266,72.25839843749999,53.4345703125,-60.9462890625,
1749736587.5216622,2025-06-12 20:56:27.521,31.926408482343426,-16.606182714843747,9.76116016845703,1.6519991455078125,0.1450381679389313,21.549618320610687,2.6412213740458017,72.4359375,53.61328125,-60.43125,
1749736587.5350912,2025-06-12 20:56:27.535,32.40563692455147,3.1220389648437497,-0.6919242797851562,19.61270144958496,0.4351145038167939,-51.74045801526717,3.5877862595419847,72.9685546875,53.0771484375,-60.9462890625,
1749736587.5486193,2025-06-12 20:56:27.548,31.063797286368946,-11.092336291503905,-5.607220288085937,6.785167504882812,11.030534351145038,15.15267175572519,7.740458015267175,72.080859375,53.61328125,-60.43125,
1749736587.5622585,2025-06-12 20:56:27.562,31.974331326564233,-7.6087728759765625,1.6208745239257811,-1.6065093139648436,13.717557251908397,63.43511450381679,-9.580152671755725,72.791015625,52.541015625,-60.087890625,
1749736587.576978,2025-06-12 20:56:27.576,31.782639949681013,-1.9991583862304687,-8.434772448730468,17.113753466796872,23.541984732824428,-6.5038167938931295,5.816793893129771,71.9033203125,52.3623046875,-59.9162109375,
1749736587.590806,2025-06-12 20:56:27.590,32.118099859226646,-2.3582886352539063,1.5490484741210937,14.518438867187498,13.48091603053435,84.43511450381679,-1.0534351145038168,72.6134765625,53.0771484375,-61.6330078125,
1749736587.6044228,2025-06-12 20:56:27.604,31.159642974810556,-10.022128149414062,2.2553379638671873,-9.8449572265625,21.0381679389313,-60.847328244274806,-15.458015267175572,71.9033203125,53.4345703125,-60.9462890625,
1749736587.6183314,2025-06-12 20:56:27.618,31.01587444214814,7.821856823730468,-2.8802245971679685,19.30624363708496,24.099236641221374,-17.083969465648856,4.0,72.6134765625,51.6474609375,-58.886132812499994,
1749736587.6319163,2025-06-12 20:56:27.631,31.782639949681013,-0.5506663818359374,-0.19153613281249998,3.778050219726562,21.076335877862597,40.31297709923664,0.030534351145038167,72.4359375,52.8984375,-60.43125,
1749736587.6454945,2025-06-12 20:56:27.645,31.926408482343426,-7.297526660156249,3.5410242553710933,-1.6256629272460936,3.9770992366412212,-14.86259541984733,-7.564885496183206,72.25839843749999,53.0771484375,-61.6330078125,
1749736587.6590917,2025-06-12 20:56:27.659,31.782639949681013,9.0788126953125,-0.8906430175781249,19.61270144958496,14.122137404580153,-31.00763358778626,4.320610687022901,72.25839843749999,53.0771484375,-62.319726562499994,
1749736587.6726716,2025-06-12 20:56:27.672,31.782639949681013,-16.448165405273436,-2.0733786376953125,7.285555651855469,7.083969465648855,16.099236641221374,-9.770992366412214,70.660546875,53.61328125,-60.43125,
1749736587.6873724,2025-06-12 20:56:27.687,31.782639949681013,4.984727856445312,1.3670891479492187,5.398924743652343,2.50381679389313,36.49618320610687,-9.564885496183207,73.14609374999999,53.255859375,-60.43125,
1749736587.7012827,2025-06-12 20:56:27.701,31.782639949681013,-2.839523168945312,-0.34237083740234375,19.476830505371094,26.366412213740457,-50.62595419847328,26.47328244274809,72.4359375,53.255859375,-60.43125,
1749736587.714881,2025-06-12 20:56:27.714,31.974331326564233,0.28730419921875,10.189722265624999,7.42441934814453,15.748091603053435,57.33587786259542,6.282442748091603,71.9033203125,53.4345703125,-60.9462890625,
1749736587.7284367,2025-06-12 20:56:27.728,31.73471710546021,-7.467514978027343,-0.3280056274414062,1.0845733520507812,13.694656488549619,18.519083969465647,2.5801526717557253,72.25839843749999,54.5068359375,-59.9162109375,
1749736587.7419903,2025-06-12 20:56:27.741,31.73471710546021,-7.970297326660156,-0.055066638183593745,16.347608935546873,13.86259541984733,41.725190839694655,-0.5190839694656488,72.9685546875,52.7197265625,-59.5728515625,
1749736587.755888,2025-06-12 20:56:27.755,31.926408482343426,3.801992236328125,-5.473144995117187,6.244077929687499,16.64885496183206,-89.17557251908397,5.99236641221374,72.4359375,53.61328125,-60.774609375,
1749736587.769579,2025-06-12 20:56:27.769,32.07017701500584,-3.9719805541992184,8.597578161621094,10.785878479003905,3.099236641221374,63.94656488549618,-13.16030534351145,72.791015625,52.18359375,-60.087890625,
1749736587.783103,2025-06-12 20:56:27.783,31.83056279390182,-8.688557824707031,-3.0645781249999997,13.49611475830078,10.145038167938932,-25.954198473282442,6.801526717557252,72.4359375,53.970703125,-59.744531249999994,
1749736587.7980056,2025-06-12 20:56:27.798,31.83056279390182,-11.702857714843748,6.167463476562499,10.287884533691406,13.038167938931299,26.0381679389313,5.969465648854962,71.72578125,53.61328125,-60.43125,
1749736587.8119526,2025-06-12 20:56:27.811,31.926408482343426,10.809820495605468,1.9656395629882812,11.413159313964844,6.816793893129771,-58.969465648854964,-20.259541984732824,73.14609374999999,53.61328125,-59.744531249999994,
1749736587.8255038,2025-06-12 20:56:27.825,31.782639949681013,-9.648632690429688,4.991910461425781,19.61270144958496,20.404580152671755,139.70229007633588,4.3893129770992365,71.9033203125,52.3623046875,-59.2294921875,
1749736587.8390346,2025-06-12 20:56:27.839,32.40563692455147,-19.49119571533203,2.499546533203125,1.4628572143554686,18.770992366412212,-103.54198473282443,-1.6106870229007633,74.211328125,54.328125,-60.087890625,
1749736587.8526611,2025-06-12 20:56:27.852,31.782639949681013,8.504204296874999,-2.5474305664062498,17.31426785583496,-1.916030534351145,28.213740458015266,-6.0,73.3236328125,53.0771484375,-60.9462890625,
1749736587.866235,2025-06-12 20:56:27.866,31.73471710546021,-11.626243261718749,-2.0063409912109376,9.102754711914063,15.65648854961832,25.137404580152673,-2.404580152671756,72.791015625,52.8984375,-60.087890625,
1749736587.8798735,2025-06-12 20:56:27.879,32.07017701500584,-2.094926452636719,-0.7852981445312499,6.349422802734375,15.687022900763358,12.17557251908397,-4.763358778625954,73.6787109375,52.7197265625,-60.9462890625,
1749736587.8934276,2025-06-12 20:56:27.893,31.926408482343426,-16.548721875,-1.889025109863281,11.271901416015623,15.221374045801527,71.54961832061069,-10.34351145038168,72.4359375,52.18359375,-60.774609375,
1749736587.9069216,2025-06-12 20:56:27.906,31.974331326564233,-9.682151513671874,0.3495534423828125,10.160991845703125,1.618320610687023,-48.66412213740458,-4.4961832061068705,73.14609374999999,52.18359375,-59.744531249999994,
1749736587.921778,2025-06-12 20:56:27.921,31.73471710546021,3.8043864379882812,3.2058360229492187,-0.47644613037109373,17.290076335877863,29.709923664122137,-21.14503816793893,71.72578125,52.541015625,-59.744531249999994,
1749736587.9353383,2025-06-12 20:56:27.935,31.926408482343426,-7.644685900878906,-5.633556506347656,13.749900134277343,19.557251908396946,-33.48854961832061,-7.580152671755725,72.791015625,52.541015625,-60.087890625,
1749736587.9488902,2025-06-12 20:56:27.948,31.159642974810556,-6.988674645996094,3.77326181640625,3.239354846191406,15.435114503816793,38.16030534351145,-4.152671755725191,72.791015625,53.255859375,-60.087890625,
1749736587.962485,2025-06-12 20:56:27.962,31.73471710546021,6.356605407714843,1.6208745239257811,3.5146880371093747,-11.648854961832061,-76.52671755725191,-5.793893129770993,72.6134765625,52.3623046875,-59.9162109375,
