timestamp,gps_lat,gps_lng,imu_accel_x,imu_accel_y,imu_gyro_z,estimated_x,estimated_y,estimated_heading
1740927215.5468788,None,None,-0.03655945935058602,0.006358999609374971,0.08993893129771013,0.0,0.0,0.0003270459022330953
1740927215.5600605,None,None,-0.007829039428710827,0.015935806250000017,-1.7802900763358775,3.825431087363167e-08,1.4968010024945955e-09,-0.006438791873729603
1740927215.5725884,None,None,-0.026982652709960808,0.04227202451171874,-0.024564885496182853,-9.62963086838473e-07,4.591350978351193e-09,-0.006638261916704403
1740927215.584725,None,None,0.013718775512695291,0.020724209570312513,-0.0016641221374045223,-1.6179680445720866e-06,5.644318045732972e-09,-0.006699252700468297
1740927215.5959425,None,None,-0.010223241088867185,-0.015188815332031258,0.021236641221374253,-2.636341584716956e-06,8.618935158318978e-09,-0.006649357981722276
1740927215.607019,None,None,-0.007829039428710827,-0.039130831933593735,-0.024564885496182853,-3.6944966551158514e-06,1.2340648113583513e-08,-0.006768277869233116
1740927215.6182415,None,None,-0.04374206433105465,0.027906814550781256,0.09757251908396958,-6.254614274337325e-06,2.4238312040003853e-08,-0.006400070631664352
1740927215.6296322,None,None,-0.08683769421386711,0.0039647979492187235,-1.7650229007633587,-1.0072997402719613e-05,7.656980170509608e-08,-0.013380907288735273
1740927215.6416678,None,None,-0.010223241088867185,0.015935806250000017,2.013603053435115,-1.4766785115730557e-05,6.061976954877252e-08,-0.005439470003589622
1740927215.672734,None,None,-0.00543483776855469,0.020724209570312513,0.028870229007633696,-1.7395710460776695e-05,6.638717067868071e-08,-0.005331584080465196
1740927215.701596,None,None,0.013718775512695291,-0.12292789003906252,2.0288702290076337,-2.1404801934948934e-05,-1.0530572240164664e-08,0.0026992883135399746
1740927215.7204487,None,None,-0.0030406361083983313,0.0039647979492187235,0.16627480916030546,-2.38218451291393e-05,-2.903652778375436e-08,0.003360635392409832
1740927215.73935,None,None,-0.0030406361083983313,0.11649227597656248,0.19680916030534368,-2.633365763644692e-05,-4.9905201449329787e-08,0.004143594990895533
1740927215.7594888,None,None,-0.029376854370117167,-0.019977218652343753,-0.04746564885496163,-3.053933619117252e-05,-5.4885279787513356e-08,0.003957913583744687
1740927215.7788148,None,None,0.023295582153320282,0.0039647979492187235,0.18917557251908423,-3.1295015089963294e-05,-8.071574971075078e-08,0.004711013828562818
1740927215.7956192,None,None,-0.0006464344482421946,0.11170387265624998,0.028870229007633696,-3.351463373346487e-05,-9.37607412245392e-08,0.004828007310918837
1740927215.8077693,None,None,-0.017405846069335817,0.039877822851562494,2.0670381679389314,-4.0567188472241096e-05,-2.5814540680448466e-07,0.01303975375067316
1740927215.819102,None,None,0.01611297717285165,-0.005612008691406267,-0.0016641221374045223,-4.1115004778004756e-05,-2.844187505257849e-07,0.013038476430739677
1740927215.8304312,None,None,0.013718775512695291,-0.0223714203125,-0.01693129770992341,-4.165546769917636e-05,-3.0270186243948147e-07,0.012976074987778575
1740927215.8419023,None,None,-0.00543483776855469,0.0039647979492187235,-0.11616793893129751,-4.3907696321916446e-05,-3.167237068044555e-07,0.012518860107965815
1740927215.8532674,None,None,0.020901380493164146,0.04466622617187499,-0.08563358778625929,-4.334042420906174e-05,-3.143754191381867e-07,0.012182461453397367
1740927215.8647892,None,None,-0.019800047729492176,0.04706042783203124,-0.0016641221374045223,-4.744545561322878e-05,-3.461150180263177e-07,0.01217945125671748
1740927215.8762932,None,None,0.004141968872070301,0.0973386626953125,0.028870229007633696,-4.89599077587346e-05,-3.633294639036383e-07,0.012297605824004586
1740927215.8884237,None,None,0.02568978381347664,0.04466622617187499,0.1281068702290078,-4.781562587114678e-05,-3.675821565907724e-07,0.012810194355419606
1740927215.9000473,None,None,-0.017405846069335817,0.011147402929687522,0.11283969465648869,-5.204038014726066e-05,-4.1412885158861556e-07,0.013262060975146088
1740927215.9116576,None,None,0.013718775512695291,-0.048707638574218726,-0.20777099236641217,-5.165514348595077e-05,-3.9023417876692325e-07,0.012438834526743072
1740927215.923592,None,None,-0.03416525769042966,0.020724209570312513,0.2731450381679392,-5.882587704008318e-05,-4.823784084597541e-07,0.013527935888712851
1740927215.9361913,None,None,-0.03895366101074216,0.039877822851562494,-0.009297709923663966,-6.674898709100666e-05,-5.589673387276157e-07,0.01349379289922878
1740927215.9478767,None,None,-0.017405846069335817,-0.01279461367187501,-0.009297709923663966,-7.194214644761097e-05,-6.108923901558403e-07,0.013459512439077002
1740927215.9595256,None,None,0.04484339709472662,-0.03194822695312499,0.021236641221374253,-6.751863269026094e-05,-5.66160978135635e-07,0.013546568286630808
1740927215.9721868,None,None,-0.026982652709960808,0.01354160458984377,-0.05509923664122107,-7.413066795717657e-05,-6.266756432885047e-07,0.013329878155040713
1740927215.9843528,None,None,0.01611297717285165,0.006358999609374971,0.07467175572519125,-7.407943691298464e-05,-6.314765436028923e-07,0.013629283116463692
1740927215.9965143,None,None,-0.007829039428710827,-0.005612008691406267,0.1433740458015269,-7.810521028521387e-05,-6.910904218641964e-07,0.0142019693705258
1740927216.0095851,None,None,0.001747767211914164,-0.1325046966796875,-0.2841068702290075,-7.974645211436424e-05,-6.651415125423614e-07,0.013074079528178116
1740927216.0223885,None,None,-0.04613626599121101,-0.015188815332031258,-0.12380152671755695,-9.052837994795657e-05,-7.63725464562365e-07,0.01258364259973703
1740927216.0348325,None,None,-0.07007828259277349,0.0039647979492187235,-0.01693129770992341,-0.00010675466055770963,-9.41119399733628e-07,0.012518214283236653
1740927216.0534627,None,None,0.020901380493164146,-0.0008236053710937719,-0.10853435114503807,-0.00010616365235418602,-9.05997964311369e-07,0.012088296494032149
1740927216.0699944,None,None,-0.03895366101074216,0.02311841123046876,-1.7421221374045799,-0.00011394879312310059,-6.742170395108855e-07,0.0051594309911763446
1740927216.1141593,None,None,-0.05810727429199214,-0.03434242861328124,-1.726854961832061,-0.00012626175388676876,-4.389835365416967e-07,-0.0017097729912910814
1740927216.1291525,None,None,0.02568978381347664,0.02311841123046876,-0.13906870229007628,-0.0001252964777605012,-3.189111835518098e-07,-0.0022634447186441514
1740927216.1539698,None,None,0.02568978381347664,0.01354160458984377,-0.07799999999999985,-0.00012410138163925687,-2.1715369775420425e-07,-0.002574240794093954
1740927216.169269,None,None,0.0065361705322266594,-0.008006210351562515,0.0059694656488553655,-0.0001269136679040097,-1.7861849788055551e-07,-0.002551027459826593
1740927216.1809454,None,None,0.01611297717285165,0.0877618560546875,-1.772656488549618,-0.00012343473626848142,3.521346918750611e-07,-0.009603212536252625
1740927216.1993413,None,None,0.001747767211914164,-0.03673663027343749,2.036503816793893,-0.0001319035950708735,-1.6369717532055574e-07,-0.0015036103304292888
1740927216.2285287,None,None,0.01611297717285165,0.01354160458984377,0.06703816793893136,-0.00013232360873359,-1.4371128393645075e-07,-0.0012372863255756946
1740927216.2848017,None,None,-0.04613626599121101,0.07579084775390624,0.059404580152671915,-0.00014723544415629384,-2.1097279888267914e-07,-0.001001289740157728
1740927216.316912,None,None,0.028083985473632778,-0.0223714203125,0.06703816793893136,-0.0001449398135178039,-1.8202655290549702e-07,-0.0007348974499791279
1740927216.3364031,None,None,-0.041347862670898516,-0.0032178070312500195,0.08993893129771013,-0.00015936391182239129,-2.5061318307946524e-07,-0.00037738264718225315
1740927216.3495388,None,None,-0.010223241088867185,0.01354160458984377,0.23497709923664134,-0.0001669657107925043,-3.3057303640882053e-07,0.0005570549082145912
1740927216.3716295,None,None,0.013718775512695291,0.03508941953125,-1.8184580152671752,-0.00016346158344550686,3.1439012367115695e-07,-0.006675598117204562
1740927216.3954656,None,None,-0.029376854370117167,-0.0008236053710937719,2.0059694656488554,-0.00018073252694566385,-3.897445334411002e-07,0.001301576321809393
1740927216.411958,None,None,0.008930372192382796,0.11649227597656248,-0.0016641221374045223,-0.00018311551310414245,-3.8079869017055896e-07,0.001295014382590705
1740927216.435331,None,None,-0.007829039428710827,-0.0008236053710937719,0.20444274809160334,-0.00019041006100452095,-4.661003500743154e-07,0.002108126245669998
1740927216.461385,None,None,-0.019800047729492176,-0.03194822695312499,-0.0703664122137404,-0.00020034381723498893,-4.613976307739768e-07,0.0018284484583497341
1740927216.490491,None,None,-0.010223241088867185,-0.15405251162109374,-0.06273282442748052,-0.00020795246606469128,-4.489708961064098e-07,0.0015790996513856505
1740927216.5236769,None,None,0.020901380493164146,-0.0008236053710937719,2.0823053435114507,-0.000212886355389273,-1.3041496447658372e-06,0.009859512708351148
1740927216.544192,None,None,-0.01501164440917968,0.008753201269531219,-1.8184580152671752,-0.00021688716140590004,-5.787346963658262e-07,0.0026297500245169017
1740927216.563325,None,None,0.1789186900634765,-0.005612008691406267,0.18917557251908423,-0.00017099826828537298,-4.893336119657132e-07,0.0033821572282321517
1740927216.5858386,None,None,-0.00543483776855469,0.11409807431640623,-0.2154045801526716,-0.0001753225777029101,-4.0484126977927763e-07,0.0025259866987591426
1740927216.598467,None,None,-0.022194249389648313,0.008753201269531219,0.10520610687022924,-0.00018558438401732234,-4.786593074597152e-07,0.002944461322601658
1740927216.6123533,None,None,-0.0006464344482421946,-0.0008236053710937719,0.09757251908396958,-0.00018967701226744066,-5.291518129255576e-07,0.0033326176336188774
1740927216.6267364,None,None,0.03526659045410163,0.03269521787109375,0.2960458015267178,-0.0001834421930226865,-6.344037370891745e-07,0.004509848998166718
1740927216.6434438,None,None,-0.09402029919433597,-0.015188815332031258,-0.0703664122137404,-0.0002154021483840251,-7.108672146397922e-07,0.0042305249484640775
1740927216.6562817,None,None,-0.022194249389648313,0.11409807431640623,-0.13906870229007628,-0.00022612708886596706,-6.825374570996277e-07,0.003678065219898603
1740927216.683928,None,None,0.023295582153320282,-0.14447570498046874,-0.10090076335877862,-0.00022298185296914822,-6.20074456339932e-07,0.0032772800737158403
1740927216.7171361,None,None,0.01611297717285165,0.03508941953125,0.08230534351145069,-0.0002223388949078116,-6.505946714828696e-07,0.003604690699645057
1740927216.733834,None,None,0.03526659045410163,-0.0008236053710937719,-0.05509923664122107,-0.00021497484886784824,-5.936483026938752e-07,0.003385973996317469
1740927216.746681,None,None,-0.017405846069335817,-0.0008236053710937719,-0.1696030534351145,-0.00022396384630037148,-5.377169693262834e-07,0.0027121337829155074
1740927216.7598221,None,None,-0.03416525769042966,0.06142563779296875,2.0212366412213743,-0.0002446293319066484,-1.5881064995349994e-06,0.010745520153561842
1740927216.7726257,None,None,0.04005499377441413,0.04706042783203124,-1.6963206106870228,-0.00023096878971471974,-7.176848257263635e-07,0.004005064600893895
1740927216.7848356,None,None,0.03526659045410163,-0.048707638574218726,-0.0703664122137404,-0.00022292809512894273,-6.472291420479798e-07,0.00372574076269958
1740927216.7994382,None,None,-0.0030406361083983313,0.025512612890625008,-0.11616793893129751,-0.00022728415078687904,-5.99648885041044e-07,0.0032643839669597263
1740927216.817395,None,None,-0.012617442749023322,0.020724209570312513,0.12047328244274835,-0.00023559509696946288,-6.851354919082571e-07,0.0037433323997773976
1740927216.8408744,None,None,0.020901380493164146,0.11170387265624998,-1.787923664122137,-0.0002274676960280148,2.629654391842976e-07,-0.0033607430726921707
1740927216.8619864,None,None,0.013718775512695291,-0.03673663027343749,-0.06273282442748052,-0.00022626819683706882,3.211394023929414e-07,-0.003610545893640983
1740927216.8747747,None,None,-0.02458845104980467,0.121280679296875,-0.07799999999999985,-0.0002382862909555605,3.4334893889362884e-07,-0.003921019462364671
1740927216.8879695,None,None,-0.029376854370117167,0.006358999609374971,0.28077862595419867,-0.0002532384102674066,1.7584919916045619e-07,-0.0028060870117267633
1740927216.9006655,None,None,0.061602808715820245,0.01354160458984377,0.059404580152671915,-0.0002355905979830304,2.1080816063762005e-07,-0.0025705466855384385
1740927216.915839,None,None,-0.007829039428710827,0.04227202451171874,-0.32227480916030515,-0.00024113924363812646,3.8216631241118516e-07,-0.003851254107330856
1740927216.9365408,None,None,0.04005499377441413,-0.015188815332031258,0.11283969465648869,-0.00023062115659904206,3.607704227711708e-07,-0.0034035778607386415
1740927216.9496117,None,None,-0.06768408093261713,-0.03673663027343749,2.0670381679389314,-0.0002637942106912864,-7.974709844084118e-07,0.004806726429419365
1740927216.9630907,None,None,-0.007829039428710827,0.0039647979492187235,0.08230534351145069,-0.0002706935065310856,-8.612773451148912e-07,0.00513407976155154
1740927216.977429,None,None,-0.017405846069335817,0.020724209570312513,0.17390839694656512,-0.00028145724227510746,-9.85054063924522e-07,0.005825289856593652
1740927216.989625,None,None,-0.026982652709960808,0.10930967099609373,2.0823053435114507,-0.00030075156507935785,-2.1797658844335117e-06,0.014096165330641288
1740927217.0045712,None,None,0.013718775512695291,0.02311841123046876,0.05177099236641247,-0.0002999636745878472,-2.2423986140034794e-06,0.014303255860958486
1740927217.0397298,None,None,0.03287238879394527,0.059031436132812504,-0.0016641221374045223,-0.00029169457050240823,-2.24751750336258e-06,0.014298136181015029
1740927217.0724888,None,None,-0.01501164440917968,0.10930967099609373,0.11283969465648869,-0.00030150558146204077,-2.371388198448239e-06,0.014747717138897415
1740927217.0903711,None,None,-0.03416525769042966,0.11649227597656248,0.03650381679389314,-0.0003186034981901459,-2.487559437258753e-06,0.014894185223139692
1740927217.1085074,None,None,0.04484339709472662,0.0015705962890624758,0.059404580152671915,-0.00030586071807594785,-2.496058496679391e-06,0.015131583853278592
1740927217.1237454,None,None,-0.019800047729492176,0.008753201269531219,0.0059694656488553655,-0.00031743685655972185,-2.5779701608028635e-06,0.015156812815888404
1740927217.146815,None,None,-0.01501164440917968,-0.03194822695312499,-0.04746564885496163,-0.0003272555611622652,-2.6254132851335116e-06,0.014969866814216883
1740927217.1612659,None,None,0.03287238879394527,-0.0032178070312500195,0.09757251908396958,-0.00031895481648459937,-2.660447369649459e-06,0.015358736246574944
1740927217.1746883,None,None,0.028083985473632778,0.04227202451171874,-0.20777099236641217,-0.0003114498688107602,-2.5122753951131016e-06,0.014535372503404103
1740927217.1893709,None,None,0.008930372192382796,0.0015705962890624758,0.08993893129771013,-0.00031194124355643244,-2.58056716976094e-06,0.014893823910467207
1740927217.205912,None,None,-0.05092466931152351,0.0039647979492187235,1.9143664122137407,-0.00034041112858135004,-3.916024630421183e-06,0.022494813682210353
1740927217.243113,None,None,-0.05092466931152351,-0.07025545351562501,-0.1314351145038164,-0.0003644017948040439,-4.0450170344909945e-06,0.021975365016594306
1740927217.263344,None,None,0.03287238879394527,0.03748362119140625,0.059404580152671915,-0.00035596509788516414,-4.060078619710372e-06,0.022213376948685436
1740927217.2838433,None,None,-0.065289879272461,-0.005612008691406267,-1.8108244274809158,-0.0003820545928656748,-3.202389389016327e-06,0.015028025040848495
1740927217.2982316,None,None,-0.02458845104980467,-0.0008236053710937719,-0.01693129770992341,-0.00039684066148857504,-3.332528457628478e-06,0.014962187583815768
1740927217.3141017,None,None,0.01611297717285165,0.11888647763671875,-0.009297709923663966,-0.00039547532310259346,-3.3315422765616263e-06,0.014926629398501562
1740927217.3287997,None,None,0.02568978381347664,0.027906814550781256,-0.16196946564885462,-0.0003897221759218923,-3.1904453920844978e-06,0.014285147184907846
1740927217.3424475,None,None,-0.02458845104980467,-0.017583016992187506,0.028870229007633696,-0.0004046775336174475,-3.352498312264061e-06,0.014400958910864972
1740927217.3561904,None,None,0.008930372192382796,0.0015705962890624758,-0.01693129770992341,-0.00040609185932863535,-3.3632196245769525e-06,0.014335010695781488
1740927217.3694403,None,None,0.17173608508300786,0.0015705962890624758,-0.23830534351145038,-0.00034017771696207786,-2.588223504177836e-06,0.0133905923435412
1740927217.3833816,None,None,0.001747767211914164,-0.0223714203125,0.19680916030534368,-0.0003436136726023091,-2.7451136741265044e-06,0.014172634415320363
1740927217.3962681,None,None,-0.031771056030273304,0.03508941953125,-0.11616793893129751,-0.00036010153512457707,-2.8226995690541463e-06,0.013712878973570146
1740927217.4099731,None,None,-0.010223241088867185,-0.015188815332031258,0.2273435114503819,-0.0003688090933081038,-3.0550005751356325e-06,0.014616021319885385
1740927217.424921,None,None,-0.01501164440917968,-0.017583016992187506,-0.1848702290076334,-0.0003786216488665682,-3.0269327926488295e-06,0.013883758615897883
1740927217.4456608,None,None,0.018507178833007787,0.015935806250000017,0.0059694656488553655,-0.0003750979758034846,-2.9901557541950878e-06,0.013908555901498478
1740927217.472641,None,None,0.023295582153320282,0.121280679296875,0.059404580152671915,-0.00036954357643191886,-2.9665743875301084e-06,0.014145331299756448
1740927217.504074,None,None,0.018507178833007787,0.03508941953125,0.028870229007633696,-0.00036571644323950427,-2.9388175139763893e-06,0.014260984340392784
1740927217.517177,None,None,0.03287238879394527,0.011147402929687522,2.0746717557251912,-0.00036037689413290805,-4.2719726016146e-06,0.022492020845441024
1740927217.533139,None,None,-0.01501164440917968,0.04227202451171874,2.0517709923664125,-0.0003746663352882538,-5.806477281736491e-06,0.030632845360737074
1740927217.545432,None,None,-0.065289879272461,0.030301016210937504,0.09757251908396958,-0.00040578262680903256,-6.2471872656300095e-06,0.03102291307941947
1740927217.5633283,None,None,-0.01501164440917968,0.1308574859375,0.028870229007633696,-0.00041610285035037617,-6.421285239018678e-06,0.0311404848276953
1740927217.5762465,None,None,-0.0030406361083983313,-0.02476562197265625,-0.039832061068702185,-0.000421353849513603,-6.491898372730314e-06,0.03098555005380967
1740927217.605115,None,None,-0.010223241088867185,0.11649227597656248,1.891465648854962,-0.00043391469295011415,-7.964574068884945e-06,0.038490179877298795
1740927217.6172724,None,None,-0.06289567761230463,-0.008006210351562515,-0.20013740458015228,-0.0004642981565396527,-8.312732290885634e-06,0.037700330370089234
1740927217.6307592,None,None,0.01611297717285165,0.121280679296875,-0.08563358778625929,-0.00046188675006233055,-8.27853815558201e-06,0.03736447147388778
1740927217.6437821,None,None,-0.0030406361083983313,0.11649227597656248,-0.05509923664122107,-0.0004675944179909172,-8.382452698722149e-06,0.03714963604997239
1740927217.656189,None,None,0.020901380493164146,0.063819839453125,-1.772656488549618,-0.00045939790604988313,-7.069806591313673e-06,0.030123926376474194
1740927217.668796,None,None,-0.029376854370117167,0.008753201269531219,-1.8184580152671752,-0.0004725278848404184,-6.0480184662291404e-06,0.02291599170158179
1740927217.6816158,None,None,0.03766079211425777,-0.09898587343749998,-0.04746564885496163,-0.0004611500637198698,-5.815452451678793e-06,0.022729604963139284
1740927217.6954467,None,None,0.020901380493164146,0.05424303281249998,2.0670381679389314,-0.0004612485722145024,-7.2700526550790374e-06,0.030927089182043593
1740927217.708167,None,None,0.03526659045410163,-0.0032178070312500195,0.25024427480916045,-0.000450992623374337,-7.275170668300741e-06,0.03192201801923872
1740927217.720331,None,None,0.008930372192382796,-0.0008236053710937719,0.09757251908396958,-0.00045143941602720383,-7.358896974922656e-06,0.03231171417725855
1740927217.7334757,None,None,0.0065361705322266594,0.025512612890625008,0.01360305343511481,-0.0004526719576217648,-7.395863903568967e-06,0.0323685190980296
1740927217.7477787,None,None,0.028083985473632778,0.006358999609374971,-0.09326717557251873,-0.00044435574150942765,-7.170227043504295e-06,0.032001630303273416
1740927217.7636805,None,None,0.008930372192382796,0.018330007910156265,2.0288702290076337,-0.0004485130607169986,-8.68839925612467e-06,0.04004726606996538
1740927217.7839975,None,None,-0.01501164440917968,0.018330007910156265,-0.29174045801526693,-0.00045802167790903124,-8.6805737830842e-06,0.038894535942981374
1740927217.7965486,None,None,-0.019800047729492176,0.020724209570312513,0.26551145038167956,-0.0004708835312338728,-9.144203177441337e-06,0.03995056684782223
1740927217.813343,None,None,0.042449195434570264,-0.0008236053710937719,0.04413740458015303,-0.0004565353264521858,-8.87366783641929e-06,0.04012918045841084
1740927217.8318274,None,None,0.03526659045410163,0.015935806250000017,-0.09326717557251873,-0.00044469398705598937,-8.541970227597147e-06,0.03976315420873585
1740927217.846641,None,None,0.004141968872070301,0.03508941953125,0.09757251908396958,-0.0004464435484127808,-8.639550447768703e-06,0.04015344970239844
1740927217.8634095,None,None,0.0065361705322266594,0.06621404111328125,-0.009297709923663966,-0.0004469132117631594,-8.631886262783537e-06,0.04012018207185394
1740927217.8760056,None,None,-0.0006464344482421946,0.0039647979492187235,0.2731450381679392,-0.00045099103669612447,-8.905401595950303e-06,0.041206253682560375
1740927217.888381,None,None,0.03526659045410163,0.027906814550781256,0.06703816793893136,-0.0004390893208109268,-8.64446480097612e-06,0.04147557429828287
1740927217.90747,None,None,0.023295582153320282,0.006358999609374971,-0.05509923664122107,-0.0004318843844432249,-8.403268639835789e-06,0.04126086236893633
1740927217.9291966,None,None,0.018507178833007787,0.011147402929687522,-1.7115877862595417,-0.00042358018639405016,-6.9998174776647575e-06,0.034481784733554524
1740927217.9436905,None,None,0.042449195434570264,0.011147402929687522,-0.09326717557251873,-0.0004077349860922029,-6.493742468584437e-06,0.03411489114867728
1740927217.9701834,None,None,0.008930372192382796,-0.03434242861328124,2.0746717557251912,-0.000409888924732453,-7.897441885389456e-06,0.04233842985012197
1740927217.9889944,None,None,-0.03416525769042966,0.008753201269531219,0.08230534351145069,-0.00042717445870345624,-8.37857128796017e-06,0.04266818605397706
1740927218.0033581,None,None,-0.0030406361083983313,0.06142563779296875,0.12047328244274835,-0.00043122569589802744,-8.536176647909253e-06,0.04314916809753998
1740927218.0203743,None,None,0.004141968872070301,0.063819839453125,0.059404580152671915,-0.00043206101959477374,-8.566479466015028e-06,0.04338819771057394
1740927218.0416534,None,None,-0.022194249389648313,-0.008006210351562515,2.0823053435114507,-0.0004475002119035839,-1.030082580975338e-05,0.05164192179645571
1740927218.061219,None,None,0.0065361705322266594,0.008753201269531219,-1.787923664122137,-0.0004444849058332332,-9.05874074242151e-06,0.044563091099044425
1740927218.0741177,None,None,0.028083985473632778,-0.03194822695312499,-0.08563358778625929,-0.00043472472683055515,-8.684476916559154e-06,0.04422755393132319
1740927218.0963724,None,None,0.14539986682128903,0.08297345273437498,-1.7573893129770992,-0.0003711988861906692,-5.63204206923922e-06,0.03726911535710426
1740927218.1170795,None,None,0.004141968872070301,0.020724209570312513,0.3113129770992369,-0.00037121604125662085,-5.7778526748765125e-06,0.038505085637183765
1740927218.1334271,None,None,-0.026982652709960808,-0.0032178070312500195,0.07467175572519125,-0.00038439006499474507,-6.1867473384875276e-06,0.03880372894210956
1740927218.1463947,None,None,-0.04613626599121101,0.03508941953125,2.0288702290076337,-0.00040862920740118795,-8.08493019748619e-06,0.04684339835237648
1740927218.1644363,None,None,0.15018827014160152,-0.0008236053710937719,0.2731450381679392,-0.0003452567184224808,-6.171568385687548e-06,0.04792921594079822
1740927218.1782937,None,None,-0.019800047729492176,-0.15644671328124998,0.15864122137404602,-0.0003547000852497685,-6.491864762799594e-06,0.048561552178364845
1740927218.1935947,None,None,-0.01501164440917968,-0.019977218652343753,1.9220000000000002,-0.0003641582427749344,-7.77391419468405e-06,0.05617833241314558
1740927218.2120597,None,None,-0.08204929089355462,0.039877822851562494,0.05177099236641247,-0.00040073835628594485,-8.955712523676596e-06,0.05638833353496064
1740927218.2348094,None,None,-0.007829039428710827,0.025512612890625008,-1.8108244274809158,-0.00040360227539281595,-8.061081460498611e-06,0.049221265863287005
1740927218.2481945,None,None,-0.026982652709960808,0.008753201269531219,2.0746717557251912,-0.0004188473993753852,-9.603746337633487e-06,0.05744195884116261
1740927218.2669525,None,None,0.030478187133789136,-0.04391923525390623,1.9983358778625957,-0.0004090192813630667,-1.0199370257224659e-05,0.0653611234107199
1740927218.2792406,None,None,-0.00543483776855469,-0.010400412011718763,-0.17723664122137395,-0.000412478633530225,-1.0174435824544152e-05,0.06466517790999883
1740927218.302532,None,None,0.01611297717285165,0.0039647979492187235,0.2578778625954201,-0.00040696695294330053,-1.002844117268806e-05,0.06569222310310768
1740927218.3162112,None,None,-0.03416525769042966,-0.09419747011718749,0.07467175572519125,-0.0004230719994132626,-1.0621702264023843e-05,0.0659938086709236
1740927218.332732,None,None,0.013718775512695291,0.0039647979492187235,0.23497709923664134,-0.00041866034270885235,-1.05018118374641e-05,0.06693016367255708
1740927218.349036,None,None,0.03287238879394527,-0.12053368837890627,0.08993893129771013,-0.0004056644453993065,-9.957310153963069e-06,0.06729223001340467
1740927218.3678446,None,None,0.011324573852539155,-0.0008236053710937719,-0.2993740458015264,-0.00040151885234474883,-9.585471790383891e-06,0.06611270525012716
1740927218.3892636,None,None,-0.04374206433105465,0.03508941953125,-0.20013740458015228,-0.00042136563171788367,-1.0273638260439604e-05,0.06532593237009042
1740927218.4100652,None,None,-0.007829039428710827,-0.017583016992187506,0.16627480916030546,-0.0004261128144958351,-1.0498874939928132e-05,0.06598982473158638
1740927218.4249227,None,None,-0.06768408093261713,-0.0032178070312500195,-0.024564885496182853,-0.00045685435617350267,-1.1793766439597719e-05,0.06589812061223325
1740927218.438972,None,None,-0.06768408093261713,0.008753201269531219,-1.719221374045801,-0.00048698986425897397,-1.240290893235303e-05,0.05909672931843975
1740927218.4571223,None,None,-0.03655945935058602,-0.010400412011718763,-0.04746564885496163,-0.0005051325929176003,-1.3190688592335796e-05,0.05891332740590549
1740927218.4743028,None,None,-0.03416525769042966,0.01354160458984377,0.07467175572519125,-0.000522568433626169,-1.4011885834382911e-05,0.059213408852035646
1740927218.4878087,None,None,0.04484339709472662,0.006358999609374971,2.0517709923664125,-0.0005070797046187575,-1.4140095123970428e-05,0.06734074667846801
1740927218.5038538,None,None,0.013718775512695291,-0.0032178070312500195,0.07467175572519125,-0.000503539011939519,-1.3998378680834259e-05,0.06764184972813482
1740927218.5166278,None,None,0.01611297717285165,-0.017583016992187506,-0.03219847328244274,-0.0004987921957343927,-1.3747481656909829e-05,0.06751985369521366
1740927218.5288324,None,None,0.001747767211914164,-0.05349604189453128,0.03650381679389314,-0.00050023659591048,-1.381864466724713e-05,0.06766975527894968
1740927218.5427938,None,None,-0.0006464344482421946,0.0039647979492187235,-0.024564885496182853,-0.0005026729051940013,-1.3913744283686346e-05,0.0675778717281572
1740927218.5547931,None,None,-0.02458845104980467,-0.10856268007812497,0.21970992366412245,-0.0005156962151473138,-1.4641784128395338e-05,0.06845287357738304
1740927218.5686462,None,None,0.04963180041503912,0.1260690826171875,0.01360305343511481,-0.0004964238933837135,-1.3656166009728334e-05,0.0685120709249981
1740927218.5838108,None,None,-0.053318870971679644,0.04706042783203124,0.08993893129771013,-0.0005217049898661296,-1.4975274101898229e-05,0.06887337359708376
1740927218.5973535,None,None,0.013718775512695291,0.039877822851562494,-0.06273282442748052,-0.0005180555551762702,-1.4747936961197486e-05,0.06863035996661575
1740927218.6092396,None,None,0.0065361705322266594,0.1308574859375,0.0059694656488553655,-0.0005174849865000984,-1.4705390054334212e-05,0.06865919128266357
1740927218.6287754,None,None,-0.05092466931152351,-0.039130831933593735,-0.10090076335877862,-0.0005418412971575546,-1.5952779896541762e-05,0.06826497795930898
1740927218.6420329,None,None,0.023295582153320282,-0.0032178070312500195,0.12047328244274835,-0.0005343519242064935,-1.5587205584327663e-05,0.06874684083956249
1740927218.6546128,None,None,-0.017405846069335817,0.05184883115234373,-0.14670229007633573,-0.000544274651226174,-1.6057922104789262e-05,0.06817127571050478
1740927218.6694071,None,None,0.018507178833007787,-0.06786125185546876,0.12047328244274835,-0.0005388391339399517,-1.5793912712145465e-05,0.06865299432020777
1740927218.686724,None,None,-0.07486668591308598,-0.14926410830078124,-0.01693129770992341,-0.000573885642683384,-1.773448167548994e-05,0.06859091767592786
1740927218.70033,None,None,0.0065361705322266594,0.018330007910156265,-1.6657862595419846,-0.0005729401566964084,-1.698607559147935e-05,0.0620033912289998
1740927218.7201462,None,None,-0.026982652709960808,0.0039647979492187235,1.906732824427481,-0.0005888822058814368,-1.866889345699212e-05,0.06955308308399413
1740927218.7407079,None,None,-0.01501164440917968,-0.027159823632812496,-0.01693129770992341,-0.0005985261080837289,-1.9213476851618488e-05,0.06949098877986729
1740927218.7572587,None,None,-0.0030406361083983313,0.0039647979492187235,0.18154198473282457,-0.0006032020181438409,-1.955941143602027e-05,0.07021424568085644
1740927218.7712343,None,None,0.020901380493164146,-0.0008236053710937719,1.7540610687022902,-0.0005985631577526806,-2.0039706206102137e-05,0.07716027626418227
1740927218.7896008,None,None,0.030478187133789136,0.01354160458984377,0.2273435114503819,-0.0005885181941136886,-1.9549103847705533e-05,0.07806569973785053
1740927218.8060665,None,None,0.028083985473632778,-0.0032178070312500195,0.07467175572519125,-0.0005792028044993026,-1.9021603500689435e-05,0.07836704211187968
1740927218.8283725,None,None,0.0065361705322266594,0.027906814550781256,-0.024564885496182853,-0.0005790274307133759,-1.8993185713407867e-05,0.07827568281618229
1740927218.843003,None,None,-0.007829039428710827,0.018330007910156265,2.013603053435115,-0.0005865613838524649,-2.0329567107681112e-05,0.08624896403744162
1740927218.858925,None,None,0.04005499377441413,-0.005612008691406267,0.18154198473282457,-0.0005718814830516538,-1.9492316263511584e-05,0.08697409682508603
1740927218.8710206,None,None,-0.05092466931152351,0.020724209570312513,2.0288702290076337,-0.0005979891482799611,-2.2028189707147394e-05,0.09500853121331422
1740927218.8867354,None,None,-0.05092466931152351,-0.1516583099609375,-0.01693129770992341,-0.0006229203980954006,-2.3647174373723806e-05,0.09494942566310408
1740927218.8997965,None,None,0.018507178833007787,0.025512612890625008,0.18154198473282457,-0.0006180388574245746,-2.3436866332073676e-05,0.09567549229769762
1740927218.9147198,None,None,-0.007829039428710827,-0.0223714203125,0.03650381679389314,-0.0006244330337060815,-2.390273906012451e-05,0.09582772350691797
1740927218.929416,None,None,-0.029376854370117167,-0.01279461367187501,0.1281068702290078,-0.0006403786968429283,-2.5065493059424504e-05,0.09634230123475347
1740927218.9488275,None,None,-0.02458845104980467,-0.13968730166015625,-0.22303816793893105,-0.0006541713137983593,-2.5947333776254324e-05,0.09546762308035187
1740927218.9627764,None,None,-0.010223241088867185,-0.0223714203125,0.06703816793893136,-0.0006621032634304611,-2.6565551704870825e-05,0.09574035768286525
1740927218.9770062,None,None,0.04723759875488276,-0.015188815332031258,-0.13906870229007628,-0.0006448195817341126,-2.5306165354424192e-05,0.09519765577301782
1740927218.9921565,None,None,-0.03655945935058602,-0.008006210351562515,2.0746717557251912,-0.000665741413329195,-2.7782601341883043e-05,0.10341250690895244
1740927219.0137954,None,None,-0.026982652709960808,0.0015705962890624758,-0.13906870229007628,-0.0006808335329967011,-2.8864671920488768e-05,0.10287074269089048
1740927219.0342565,None,None,0.05681440539550775,0.0039647979492187235,0.059404580152671915,-0.0006596152200003982,-2.7361510797482353e-05,0.10311396529644959
1740927219.0472193,None,None,0.14779406848144538,-0.0223714203125,0.26551145038167956,-0.0005983475047761391,-2.2887547604692453e-05,0.10417245673397625
1740927219.0660188,None,None,-0.02458845104980467,-0.005612008691406267,0.1281068702290078,-0.0006114564599777684,-2.3922224685947374e-05,0.10468743935813414
1740927219.0836935,None,None,0.042449195434570264,0.03269521787109375,2.0517709923664125,-0.0005970299047274547,-2.373869790391994e-05,0.11281184871449312
1740927219.1227102,None,None,0.01611297717285165,0.025512612890625008,0.10520610687022924,-0.0005921064859457716,-2.3364793016404163e-05,0.113237272700739
1740927219.1367602,None,None,0.030478187133789136,0.12367488095703125,-0.009297709923663966,-0.0005806651954597467,-2.2401598440666797e-05,0.1132097181790202
1740927219.160653,None,None,-0.017405846069335817,0.0039647979492187235,-0.06273282442748052,-0.0005899805327832455,-2.3079905338775333e-05,0.11297069142672302
1740927219.176154,None,None,-0.031771056030273304,-0.16362931826171873,0.06703816793893136,-0.0006058297715320293,-2.4375979848071743e-05,0.1132448313566439
1740927219.19099,None,None,0.04005499377441413,0.030301016210937504,0.08230534351145069,-0.0005903526582311371,-2.307972281679548e-05,0.11357929441585839
1740927219.2072527,None,None,0.04005499377441413,0.12367488095703125,-0.009297709923663966,-0.0005745160007373494,-2.167932537135572e-05,0.11355138105996587
1740927219.2394764,None,None,-0.00543483776855469,-0.008006210351562515,-0.01693129770992341,-0.0005783928839334606,-2.1945217437887073e-05,0.11349316888331851
1740927219.260792,None,None,0.011324573852539155,-0.06307284853515627,0.07467175572519125,-0.0005749942956435601,-2.1621815395881435e-05,0.11379715611470416
1740927219.2738435,None,None,0.01611297717285165,-0.005612008691406267,0.021236641221374253,-0.0005693575684076459,-2.1070754277771888e-05,0.11388974225694315
1740927219.29006,None,None,-0.055713072631836,-0.0032178070312500195,2.0823053435114507,-0.0005966907690869145,-2.432276772601277e-05,0.12213385584692135
1740927219.3115976,None,None,-0.03655945935058602,-0.01279461367187501,-0.03219847328244274,-0.0006144391948665107,-2.58743476862852e-05,0.1220161087188877
1740927219.3421948,None,None,-0.022194249389648313,-0.146869906640625,0.03650381679389314,-0.0006261536869510231,-2.6934399127459087e-05,0.12216994931607643
1740927219.3595405,None,None,-0.022194249389648313,0.008753201269531219,-0.0016641221374045223,-0.0006379975211541961,-2.801304156997676e-05,0.12217275248391009
1740927219.380923,None,None,0.028083985473632778,0.11409807431640623,0.10520610687022924,-0.0006278658431157333,-2.7077149868713788e-05,0.12259810098652324
1740927219.402608,None,None,0.020901380493164146,0.09494446103515625,-0.17723664122137395,-0.000620518888399458,-2.6271796831428988e-05,0.12190641071851123
1740927219.4267774,None,None,-0.01501164440917968,0.04706042783203124,-0.009297709923663966,-0.0006290211977247486,-2.705441603619951e-05,0.12187866703745387
1740927219.4397452,None,None,-0.07486668591308598,0.0015705962890624758,0.04413740458015303,-0.0006641534734993952,-3.0482921287515813e-05,0.12206212832146436
1740927219.4533525,None,None,-0.04374206433105465,-0.027159823632812496,-0.14670229007633573,-0.0006859079058608423,-3.2568874231160775e-05,0.12149082493149735
1740927219.4651363,None,None,-0.029376854370117167,0.01354160458984377,-0.07799999999999985,-0.0007016607933147532,-3.411251360992808e-05,0.12119102896810768
1740927219.47774,None,None,0.05442020373535161,0.02311841123046876,-0.024564885496182853,-0.000680501130772221,-3.1961717255010574e-05,0.1211024046065732
1740927219.493289,None,None,0.008930372192382796,0.07579084775390624,-0.19250381679389283,-0.0006790384542824282,-3.171940484629984e-05,0.1203495711094119
1740927219.515088,None,None,-0.010223241088867185,-0.019977218652343753,0.28077862595419867,-0.0006863636704114609,-3.256713226039821e-05,0.12146805832531961
1740927219.5273802,None,None,0.018507178833007787,0.018330007910156265,0.16627480916030546,-0.0006809086215184393,-3.204766606025052e-05,0.12213381975519069
1740927219.5405395,None,None,-0.041347862670898516,0.025512612890625008,-1.7497557251908393,-0.0007005833213105622,-3.338661205148484e-05,0.11522314747060303
1740927219.559504,None,None,-0.022194249389648313,0.030301016210937504,1.9830687022900766,-0.0007147701798635331,-3.565922786212385e-05,0.12307170274544542
1740927219.5735266,None,None,0.20046650500488283,0.04466622617187499,-0.22303816793893105,-0.0006282135324908762,-2.631886901282855e-05,0.12219801806592004
1740927219.585675,None,None,0.013718775512695291,0.03269521787109375,-0.13906870229007628,-0.000623612449003915,-2.571440401685468e-05,0.12165613064986362
1740927219.5978403,None,None,0.011324573852539155,0.030301016210937504,-1.8031908396946563,-0.0006187953681912627,-2.4420595104728798e-05,0.11453410838180779
1740927219.6097429,None,None,-0.026982652709960808,-0.015188815332031258,-0.06273282442748052,-0.0006322839731598641,-2.5815244287660402e-05,0.11429275044404684
1740927219.621526,None,None,-0.017405846069335817,-0.010400412011718763,-0.10090076335877862,-0.0006416496572413949,-2.6753798789760953e-05,0.11390036973097947
1740927219.6360765,None,None,-0.02458845104980467,-0.15405251162109374,-0.10090076335877862,-0.0006543542181195712,-2.806782045344844e-05,0.11350785882733656
1740927219.6536996,None,None,0.008930372192382796,0.0039647979492187235,0.04413740458015303,-0.0006523028233785064,-2.7810177467450816e-05,0.1136886761480962
1740927219.6656656,None,None,-0.065289879272461,0.020724209570312513,-0.05509923664122107,-0.0006834254122481776,-3.120902891831349e-05,0.11347708039641449
1740927219.6780727,None,None,0.008930372192382796,-0.17320612490234377,-0.10853435114503807,-0.0006816420504887746,-3.092235051196074e-05,0.11305412018005505
1740927219.6908984,None,None,-0.0030406361083983313,0.0039647979492187235,0.15100763358778657,-0.0006853507902300079,-3.134981650825408e-05,0.1136571732647075
1740927219.7043047,None,None,0.030478187133789136,-0.03434242861328124,0.2960458015267178,-0.0006740850548946944,-3.014310894292737e-05,0.11483366651638972
1740927219.7222595,None,None,-0.02458845104980467,-0.01279461367187501,0.0059694656488553655,-0.0006872182263875509,-3.158911228609336e-05,0.11486340590680727
1740927219.7352908,None,None,-0.055713072631836,-0.008006210351562515,2.0517709923664125,-0.0007159148995281178,-3.5586799032589735e-05,0.122981215830254
1740927219.7469792,None,None,-0.01501164440917968,-0.017583016992187506,-0.024564885496182853,-0.0007252353929810783,-3.661369771610541e-05,0.12289130382089805
1740927219.758531,None,None,-0.01501164440917968,-0.008006210351562515,-0.05509923664122107,-0.000734650443636351,-3.764638847967061e-05,0.12268057872756861
1740927219.7704594,None,None,-0.06768408093261713,0.04227202451171874,-1.8108244274809158,-0.0007668144724160292,-4.065731397652126e-05,0.11552865954078351
1740927219.786942,None,None,-0.01501164440917968,0.0039647979492187235,-0.05509923664122107,-0.0007768562120747699,-4.1756177186096326e-05,0.11531667680832543
1740927219.7987225,None,None,-0.007829039428710827,-0.015188815332031258,2.036503816793893,-0.0007853051164275373,-4.348401666381658e-05,0.12337334825222601
1740927219.8147962,None,None,-0.065289879272461,0.039877822851562494,-0.16196946564885462,-0.0008182607356802827,-4.7267528992053266e-05,0.12273991240172868
1740927219.8297153,None,None,-0.0030406361083983313,-0.02476562197265625,0.04413740458015303,-0.0008235653189659884,-4.788196202429972e-05,0.12292109864186122
1740927219.8417706,None,None,0.020901380493164146,-0.029554025292968744,0.0059694656488553655,-0.0008179818460978852,-4.718765487257793e-05,0.12295134769619946
1740927219.8554437,None,None,-0.03655945935058602,-0.005612008691406267,-0.11616793893129751,-0.0008383525074330439,-4.9536479413319794e-05,0.1224986912603692
1740927219.870395,None,None,0.04005499377441413,-0.04152503359374998,0.19680916030534368,-0.0008243262239196513,-4.789466980240293e-05,0.12328312905285363
1740927219.8819077,None,None,0.1693418834228515,0.02311841123046876,0.04413740458015303,-0.0007508134187820712,-3.9004631453988376e-05,0.12346409031373771
1740927219.899552,None,None,0.013718775512695291,0.011147402929687522,1.975435114503817,-0.000749059260788904,-3.957958384040949e-05,0.1312794390720263
1740927219.9214373,None,None,-0.026982652709960808,-0.03194822695312499,-0.16196946564885462,-0.0007638243156550795,-4.127124896770388e-05,0.13064669002725968
1740927219.9335515,None,None,-0.012617442749023322,0.049454629492187485,-0.15433587786259517,-0.0007722126200440004,-4.2195575987419305e-05,0.130043939082547
1740927219.9523299,None,None,0.004141968872070301,0.11649227597656248,0.09757251908396958,-0.0007732425965667362,-4.23233953003161e-05,0.1304367859650444
1740927219.96417,None,None,0.004141968872070301,0.015935806250000017,-0.01693129770992341,-0.0007741384268403784,-4.238568877859387e-05,0.1303769850806827
1740927219.9901655,None,None,-0.019800047729492176,0.030301016210937504,0.028870229007633696,-0.0007860742491886935,-4.384321378049709e-05,0.1304981338251583
1740927220.002023,None,None,0.02568978381347664,0.11170387265624998,0.0059694656488553655,-0.0007771725115438012,-4.268656283060358e-05,0.13052869785948715
1740927220.0264971,None,None,-0.026982652709960808,0.018330007910156265,0.0059694656488553655,-0.000792396320368598,-4.456151386428158e-05,0.1305591780915473
1740927220.0413086,None,None,0.05442020373535161,0.008753201269531219,0.17390839694656512,-0.0007703708477614782,-4.180064342771314e-05,0.1312534017061989
1740927220.0529902,None,None,-0.041347862670898516,-0.010400412011718763,-0.05509923664122107,-0.0007920363707192192,-4.44858440714777e-05,0.13104244047803512
1740927220.066409,None,None,-0.05092466931152351,0.0039647979492187235,-1.772656488549618,-0.0008167721744947073,-4.684512891676235e-05,0.12404248243855505
1740927220.0790253,None,None,-0.007829039428710827,-0.07025545351562501,-0.09326717557251873,-0.0008235734281063452,-4.7613150091216555e-05,0.12367941367544642
1740927220.0946102,None,None,0.008930372192382796,-0.14447570498046874,-0.11616793893129751,-0.0008226345482937489,-4.737531319690557e-05,0.12322571098266431
1740927220.1148088,None,None,-0.05810727429199214,-0.03673663027343749,1.944900763358779,-0.0008549235494962929,-5.2315760903177546e-05,0.13091831614935578
1740927220.127231,None,None,-0.010223241088867185,0.025512612890625008,0.03650381679389314,-0.0008633627134852457,-5.337567950250045e-05,0.13106902081908647
1740927220.1461368,None,None,0.04484339709472662,-0.01279461367187501,-0.11616793893129751,-0.0008460433309354912,-5.10199962694346e-05,0.1306162451542663
1740927220.163211,None,None,0.013718775512695291,0.0015705962890624758,0.1281068702290078,-0.000843209372812604,-5.065166605350489e-05,0.13112880466580018
1740927220.192727,None,None,-0.03655945935058602,-0.029554025292968744,0.4029160305343513,-0.0008641013808939603,-5.3515861720648225e-05,0.13272751328670498
1740927220.2089305,None,None,0.01611297717285165,-0.03194822695312499,-0.04746564885496163,-0.0008601017761332982,-5.2915669505945215e-05,0.13254630775354254
1740927220.232768,None,None,-0.05810727429199214,0.008753201269531219,-1.8184580152671752,-0.0008888220969907935,-5.583681135898221e-05,0.12536543609598144
1740927220.2487986,None,None,-0.007829039428710827,-0.17081192324218747,2.0746717557251912,-0.0008988348625277049,-5.802877975745619e-05,0.13357028993587963
1740927220.264093,None,None,0.008930372192382796,-0.017583016992187506,-0.0703664122137404,-0.0008985258085549659,-5.7900977832927494e-05,0.1332984919532548
1740927220.2801492,None,None,-0.00543483776855469,0.025512612890625008,-0.16196946564885462,-0.0009048255213905175,-5.86095566356525e-05,0.1326645396494659
1740927220.296876,None,None,0.07117961535644524,0.12367488095703125,-0.11616793893129751,-0.0008750960679939294,-5.4507077294864084e-05,0.13221144624607623
1740927220.3144479,None,None,0.004141968872070301,-0.008006210351562515,0.13574045801526746,-0.0008768346174523438,-5.4740561673115984e-05,0.13275379446632302
1740927220.3314948,None,None,-0.01501164440917968,-0.0008236053710937719,-1.7344885496183204,-0.0008852924399422501,-5.4997525105274484e-05,0.12590472308332495
1740927220.3435357,None,None,-0.03416525769042966,-0.029554025292968744,0.028870229007633696,-0.000905179126847307,-5.76156889031323e-05,0.12602359054177362
1740927220.3601563,None,None,0.020901380493164146,0.018330007910156265,-0.11616793893129751,-0.0008990182546117485,-5.6635601181435555e-05,0.12556921945548927
1740927220.374429,None,None,-0.0006464344482421946,-0.039130831933593735,0.2960458015267178,-0.0009034866588597333,-5.7295503045512295e-05,0.1267438166277096
1740927220.3896365,None,None,0.011324573852539155,0.049454629492187485,0.07467175572519125,-0.0009019830414254032,-5.704043295049405e-05,0.12704365259454775
1740927220.4105265,None,None,0.001747767211914164,0.11888647763671875,0.09757251908396958,-0.0009050003535827256,-5.7413664736786985e-05,0.1274339776255564
1740927220.4383068,None,None,-0.0030406361083983313,0.015935806250000017,0.03650381679389314,-0.0009102187466341972,-5.80590015888338e-05,0.12758295959382088
1740927220.4811087,None,None,-0.00543483776855469,0.10691546933593749,-0.009297709923663966,-0.0009165532192662482,-5.883517126113508e-05,0.12755090032079508
1740927220.5053768,None,None,-0.012617442749023322,-0.15884091494140623,0.242610687022901,-0.000926718965843761,-6.026126794676247e-05,0.1285143008397803
1740927220.5253358,None,None,-0.012617442749023322,-0.005612008691406267,0.1433740458015269,-0.0009368517603142356,-6.163748925626719e-05,0.1290856132863605
1740927220.545925,None,None,-0.0006464344482421946,0.0015705962890624758,0.06703816793893136,-0.000941235046488608,-6.218717849590797e-05,0.12935528407756183
1740927220.5637372,None,None,0.008930372192382796,-0.0223714203125,0.07467175572519125,-0.0009410401112401731,-6.211079115084343e-05,0.12965510445574735
1740927220.5790133,None,None,-0.00543483776855469,-0.12292789003906252,-0.16196946564885462,-0.0009473758415742921,-6.28173121628977e-05,0.12901974688647294
1740927220.5951884,None,None,0.02568978381347664,0.05424303281249998,-0.039832061068702185,-0.0009389248870695214,-6.153764265958454e-05,0.12886690353315622
1740927220.6084175,None,None,-0.017405846069335817,0.020724209570312513,-0.09326717557251873,-0.0009510415554500983,-6.30811359498316e-05,0.12850281372048267
1740927220.6219969,None,None,-0.03895366101074216,0.12367488095703125,-0.03219847328244274,-0.0009738171012406681,-6.613449320973259e-05,0.12837994050985121
1740927220.6352131,None,None,0.03766079211425777,0.03508941953125,-1.7802900763358775,-0.000957187251372435,-6.279805861844764e-05,0.12134904529286006
1740927220.6472101,None,None,-0.0030406361083983313,-0.027159823632812496,-1.772656488549618,-0.0009600865793879683,-6.215809755186869e-05,0.1143472201130485
1740927220.6591358,None,None,0.02568978381347664,0.0039647979492187235,-0.1848702290076334,-0.000951457195974958,-6.072405023091312e-05,0.11361872676755883
1740927220.671459,None,None,0.013718775512695291,-0.029554025292968744,0.12047328244274835,-0.0009489392875059791,-6.030726177418281e-05,0.11409670744474225
1740927220.6830235,None,None,-0.029376854370117167,-0.03673663027343749,0.028870229007633696,-0.0009672071416841441,-6.272834962880063e-05,0.11421274963459571
1740927220.695678,None,None,0.028083985473632778,0.04706042783203124,0.11283969465648869,-0.0009577564817052683,-6.13485402656844e-05,0.11466060573156511
1740927220.7083123,None,None,0.19807230334472647,-0.019977218652343753,0.0059694656488553655,-0.0008647465519584568,-4.8376158655132745e-05,0.11468622075331342
1740927220.7212512,None,None,-0.03416525769042966,-0.04631343691406248,0.021236641221374253,-0.0008841077716354598,-5.099768299854254e-05,0.11477211372377794
1740927220.7330892,None,None,-0.031771056030273304,0.11170387265624998,-0.1848702290076334,-0.0009022298393612749,-5.332650633475878e-05,0.11404355862479078
1740927220.7444727,None,None,0.052026002075195255,-0.008006210351562515,-1.7650229007633587,-0.0008770382330408512,-4.8840592937732516e-05,0.10707090107747388
1740927220.7574837,None,None,-0.04853046765136715,-0.05349604189453128,0.15100763358778657,-0.000903863444370655,-5.253838936878158e-05,0.10766833135458068
1740927220.7747154,None,None,-0.019800047729492176,0.049454629492187485,0.04413740458015303,-0.0009167081535358685,-5.423802190646131e-05,0.1078435519708001
1740927220.7873564,None,None,0.018507178833007787,-0.15644671328124998,0.08230534351145069,-0.0009108179006582604,-5.338636962825494e-05,0.10816961214637479
1740927220.8026555,None,None,0.011324573852539155,-0.019977218652343753,-1.8108244274809158,-0.0009056245404726576,-5.164627761107903e-05,0.10101516174818342
1740927220.8142924,None,None,0.023295582153320282,0.0015705962890624758,-0.05509923664122107,-0.0008969643926484219,-5.0358217962763264e-05,0.10079720147294953
1740927220.8258445,None,None,0.03526659045410163,-0.10856268007812497,-0.20777099236641217,-0.0008819609686078799,-4.8147435416150894e-05,0.09997594956591443
1740927220.8407907,None,None,-0.010223241088867185,-0.01279461367187501,-0.2612061068702287,-0.0008892454455030957,-4.8940216777659844e-05,0.09894343069599179
1740927220.8541896,None,None,-0.007829039428710827,0.11649227597656248,0.0059694656488553655,-0.0008957758005418971,-4.9762649093932584e-05,0.0989664629402331
1740927220.8655632,None,None,-0.05092466931152351,0.030301016210937504,-0.039832061068702185,-0.0009238021293381889,-5.343301609834366e-05,0.09880852322198115
1740927220.8806455,None,None,-0.00543483776855469,0.1308574859375,0.1281068702290078,-0.000929683994897518,-5.420070318742326e-05,0.09931414938492475
1740927220.893145,None,None,0.001747767211914164,0.0039647979492187235,1.9678015267175575,-0.0009344483965078603,-5.576007624088115e-05,0.10708900283827945
1740927220.904501,None,None,0.052026002075195255,-0.04152503359374998,0.01360305343511481,-0.0009113191424433555,-5.262746613002173e-05,0.10714349539705534
1740927220.9164345,None,None,0.013718775512695291,0.02311841123046876,-0.08563358778625929,-0.0009069095917287137,-5.1945068194638614e-05,0.10680587397085096
1740927220.928179,None,None,-0.01501164440917968,-0.01279461367187501,-0.11616793893129751,-0.0009168104811989703,-5.314309624539887e-05,0.10634754066156064
1740927220.941673,None,None,-0.017405846069335817,-0.04391923525390623,-0.0016641221374045223,-0.0009281704656987454,-5.4584223751111434e-05,0.10634155733766168
1740927220.9533522,None,None,-0.026982652709960808,0.03269521787109375,-0.20013740458015228,-0.0009442370553732813,-5.653625748052472e-05,0.10555136012585992
1740927220.9647737,None,None,-0.007829039428710827,0.018330007910156265,0.028870229007633696,-0.0009511046295276918,-5.73833817083688e-05,0.10566588619599049
1740927220.9800253,None,None,-0.010223241088867185,-0.0032178070312500195,0.028870229007633696,-0.0009592378807093211,-5.8392520184359725e-05,0.1057804235875362
1740927220.9916413,None,None,-0.041347862670898516,-0.01279461367187501,-0.14670229007633573,-0.0009830200831930987,-6.135257772807448e-05,0.10520125829945894
1740927221.0029087,None,None,-0.01501164440917968,-0.03673663027343749,0.09757251908396958,-0.0009940314443154256,-6.275085531415538e-05,0.10558716049668238
1740927221.0149345,None,None,-0.012617442749023322,-0.005612008691406267,0.11283969465648869,-0.001003954993258383,-6.400932202635071e-05,0.10603343874478592
1740927221.026456,None,None,-0.03655945935058602,-0.008006210351562515,-0.024564885496182853,-0.001026012214374835,-6.676814130319586e-05,0.10593687950390016
1740927221.0393023,None,None,-0.012617442749023322,-0.027159823632812496,-1.6810534351145034,-0.0010340048254813682,-6.685094112037573e-05,0.09929541533214324
1740927221.0510085,None,None,-0.007829039428710827,0.025512612890625008,-0.009297709923663966,-0.0010418231049491705,-6.773393042311115e-05,0.09925812031911091
1740927221.0674243,None,None,0.04723759875488276,0.039877822851562494,-1.7115877862595417,-0.0010192586801866924,-6.383086773636122e-05,0.09249503853116783
1740927221.081973,None,None,0.03526659045410163,-0.07264965517578126,0.15100763358778657,-0.0010049673018193758,-6.196174953864142e-05,0.09309007184012767
1740927221.0961547,None,None,0.020901380493164146,0.02311841123046876,0.04413740458015303,-0.0009976563033459388,-6.095440624221145e-05,0.09326296948091355
1740927221.1078157,None,None,0.013718775512695291,-0.008006210351562515,-0.0016641221374045223,-0.0009938254498036902,-6.038019456430101e-05,0.09325494992631586
1740927221.121562,None,None,0.0065361705322266594,-0.0223714203125,0.03650381679389314,-0.0009936447073858727,-6.0296453647521925e-05,0.09339774621605838
1740927221.1352942,None,None,-0.041347862670898516,0.0039647979492187235,-1.8108244274809158,-0.0010157453337433864,-6.20639843084363e-05,0.08624187536916723
1740927221.1472595,None,None,0.03766079211425777,0.04466622617187499,-0.0016641221374045223,-0.0009996538101491885,-5.9946150052082086e-05,0.08623281599083445
1740927221.1587732,None,None,-0.02458845104980467,0.030301016210937504,0.18917557251908423,-0.0010158136445648314,-6.197245192269807e-05,0.08697776921145804
1740927221.1701899,None,None,0.01611297717285165,0.0039647979492187235,-0.01693129770992341,-0.0010107335682159936,-6.124287650417791e-05,0.08690856411519954
1740927221.1831427,None,None,-0.017405846069335817,-0.015188815332031258,-0.25357251908396927,-0.0010226649354648275,-6.249704566253611e-05,0.0859044291142305
1740927221.1986742,None,None,0.023295582153320282,0.01354160458984377,0.01360305343511481,-0.0010138612426746753,-6.133539941433431e-05,0.08595575246070895
1740927221.2125607,None,None,-0.08444349255371097,-0.015188815332031258,0.01360305343511481,-0.0010611404935883836,-6.702376393362293e-05,0.08600709818056758
1740927221.2258084,None,None,0.004141968872070301,0.03269521787109375,-0.16196946564885462,-0.0010624858547575876,-6.698644556206419e-05,0.08536483439004353
1740927221.2388446,None,None,0.028083985473632778,-0.01279461367187501,-0.009297709923663966,-0.0010514652264897264,-6.554072248090549e-05,0.08532568551652575
1740927221.2527952,None,None,-0.026982652709960808,-0.027159823632812496,0.04413740458015303,-0.0010692092629551529,-6.759418045261421e-05,0.0854976652013298
1740927221.2641063,None,None,-0.04613626599121101,0.0015705962890624758,0.08993893129771013,-0.0010972891402090282,-7.08845438041502e-05,0.08585065122280594
1740927221.276685,None,None,0.04963180041503912,0.027906814550781256,-0.11616793893129751,-0.0010750091509545286,-6.805334057196872e-05,0.08538944911387288
1740927221.2887502,None,None,-0.010223241088867185,-0.019977218652343753,2.059404580152672,-0.0010869178939011776,-7.047149493560006e-05,0.09352339931494193
1740927221.3022802,None,None,0.05442020373535161,0.03508941953125,-1.7650229007633587,-0.0010594443894843648,-6.619315944094621e-05,0.08654922196322405
1740927221.317184,None,None,0.02568978381347664,0.08297345273437498,-0.009297709923663966,-0.0010492376182714043,-6.4914296195321e-05,0.08651041687756728
1740927221.3302076,None,None,0.03287238879394527,0.015935806250000017,0.23497709923664134,-0.0010353650351452499,-6.335815379755805e-05,0.08743669865473105
1740927221.3440695,None,None,-0.03895366101074216,-0.008006210351562515,-0.0703664122137404,-0.0010589534500896022,-6.600767128855809e-05,0.08715680946091818
1740927221.3555992,None,None,-0.01501164440917968,-0.0032178070312500195,0.0059694656488553655,-0.0010701999033461854,-6.724605465642042e-05,0.08717848545014578
1740927221.3681529,None,None,0.013718775512695291,-0.1516583099609375,-0.039832061068702185,-0.0010661869287737014,-6.669304477685413e-05,0.08701924450949208
1740927221.3878992,None,None,-0.04853046765136715,0.06621404111328125,-0.2154045801526716,-0.0010950479623627447,-6.982057968921608e-05,0.08616636126538986
1740927221.4002573,None,None,0.013718775512695291,0.015935806250000017,-0.06273282442748052,-0.0010912120093718638,-6.926744573923166e-05,0.08591653589430108
1740927221.415147,None,None,0.01611297717285165,0.03508941953125,-0.009297709923663966,-0.0010860683301611622,-6.860305253095248e-05,0.08587780144974007
1740927221.4400525,None,None,0.018507178833007787,0.0015705962890624758,-1.772656488549618,-0.0010770820200718533,-6.654316035229767e-05,0.07887266736706396
1740927221.4525223,None,None,0.023295582153320282,0.01354160458984377,-0.07799999999999985,-0.001067770279523644,-6.538392550972732e-05,0.07856145940631522
1740927221.4682097,None,None,0.0065361705322266594,0.015935806250000017,-0.0016641221374045223,-0.0010674042442747349,-6.528465605107586e-05,0.07855181413894878
1740927221.4889777,None,None,0.0065361705322266594,0.008753201269531219,0.23497709923664134,-0.0010673073293243213,-6.535010406299812e-05,0.07947708500490984
1740927221.5050309,None,None,0.001747767211914164,-0.005612008691406267,1.975435114503817,-0.0010721086031299388,-6.691967276559458e-05,0.08727840245746166
1740927221.51918,None,None,-0.007829039428710827,0.015935806250000017,-0.34517557251908393,-0.0010788532218836586,-6.743296252193851e-05,0.08591316254178077
1740927221.5432315,None,None,0.023295582153320282,0.07100244443359374,-0.09326717557251873,-0.0010691438839162076,-6.627336270063352e-05,0.08554292155071419
1740927221.5559504,None,None,-0.0030406361083983313,-0.13968730166015625,-0.1314351145038164,-0.001073492167716324,-6.664170869403522e-05,0.08502185671738954
1740927221.5712306,None,None,0.028083985473632778,0.015935806250000017,0.0059694656488553655,-0.001061130844359404,-6.526359138344704e-05,0.0850435639255603
1740927221.593585,None,None,0.04005499377441413,-0.0008236053710937719,0.23497709923664134,-0.0010423390944020966,-6.332742642807613e-05,0.08597000647432594
1740927221.612011,None,None,-0.07486668591308598,0.0039647979492187235,-0.13906870229007628,-0.0010853829406401855,-6.788958696763013e-05,0.0854189159543021
1740927221.625035,None,None,-0.022194249389648313,0.11649227597656248,0.10520610687022924,-0.0011005338819723676,-6.95420572418429e-05,0.08583278408160083
1740927221.6415236,None,None,-0.01501164440917968,0.12367488095703125,-0.009297709923663966,-0.0011117644625723273,-7.070119208494638e-05,0.08579438930115998
1740927221.6552515,None,None,-0.041347862670898516,0.015935806250000017,-1.8184580152671752,-0.0011351814028230408,-7.217959347706667e-05,0.07860889530427877
1740927221.666975,None,None,0.018507178833007787,-0.008006210351562515,-0.07799999999999985,-0.0011283664011844613,-7.134567871332335e-05,0.07829800029213366
1740927221.680487,None,None,0.052026002075195255,0.030301016210937504,0.08230534351145069,-0.0011032069072101725,-6.86697186637718e-05,0.07862038111747408
1740927221.6944382,None,None,0.011324573852539155,-0.146869906640625,-0.0016641221374045223,-0.0010999483852896167,-6.828705508460336e-05,0.07861112129768374
1740927221.705957,None,None,0.020901380493164146,0.030301016210937504,-0.08563358778625929,-0.0010912103665820664,-6.72916769817686e-05,0.07827017577519696
1740927221.7208252,None,None,-0.041347862670898516,0.01354160458984377,1.990702290076336,-0.0011193582668843328,-7.127334716119325e-05,0.08613169331301743
1740927221.7455583,None,None,-0.08923189587402347,-0.09180326845703124,-1.719221374045801,-0.0011694652533649399,-7.552055718090297e-05,0.07933857280819621
1740927221.764641,None,None,-0.019800047729492176,0.027906814550781256,0.05177099236641247,-0.001184089418335032,-7.699470685511792e-05,0.07954063292252149
1740927221.776533,None,None,-0.0030406361083983313,-0.17081192324218747,0.12047328244274835,-0.001189657801028746,-7.756325397884988e-05,0.08001416146929824
1740927221.7903464,None,None,0.011324573852539155,-0.005612008691406267,-0.13906870229007628,-0.001186927982829189,-7.713836175352544e-05,0.07946249361976299
1740927221.8023818,None,None,0.04484339709472662,-0.15884091494140623,2.0670381679389314,-0.0011684272728473646,-7.632810965169066e-05,0.08762581911145975
1740927221.8261936,None,None,-0.012617442749023322,0.025512612890625008,-0.10090076335877862,-0.00117867251692895,-7.727883452040914e-05,0.08722618899058047
1740927221.8443425,None,None,0.013718775512695291,0.011147402929687522,0.04413740458015303,-0.0011745071804857444,-7.684139233952212e-05,0.08739947186179516
1740927221.8591533,None,None,-0.03655945935058602,-0.005612008691406267,-0.15433587786259517,-0.0011980866259361455,-7.910944651886582e-05,0.08678874162144226
1740927221.8820574,None,None,0.023295582153320282,-0.0008236053710937719,0.11283969465648869,-0.0011887846433929173,-7.818982527971737e-05,0.08723338290978673
1740927221.896147,None,None,-0.08204929089355462,0.0039647979492187235,-0.009297709923663966,-0.0012382344347055822,-8.313483638323667e-05,0.08719560610268284
1740927221.9160113,None,None,0.04484339709472662,0.008753201269531219,-0.024564885496182853,-0.0012169861031407184,-8.093252441379618e-05,0.08709754087394968
1740927221.92961,None,None,0.011324573852539155,0.008753201269531219,0.10520610687022924,-0.001214461066766778,-8.069703119847839e-05,0.08751211132671965
1740927221.9429975,None,None,0.02568978381347664,-0.017583016992187506,-1.8184580152671752,-0.0012010290029410655,-7.827347526920077e-05,0.0803276109922221
1740927221.9640033,None,None,0.023295582153320282,0.05663723447265623,-0.08563358778625929,-0.0011912708744975416,-7.72047499284709e-05,0.07998725390099187
1740927221.9981034,None,None,0.001747767211914164,-0.03194822695312499,0.0059694656488553655,-0.0011936556288174227,-7.740587723836202e-05,0.08000873009878286
1740927222.014911,None,None,-0.04613626599121101,-0.019977218652343753,0.21970992366412245,-0.0012234412759884754,-8.044374081347101e-05,0.0808745755790266
1740927222.0342124,None,None,0.02568978381347664,-0.13489889833984375,-0.10853435114503807,-0.0012123640320991175,-7.924136608782307e-05,0.08044392054183842
1740927222.059429,None,None,0.028083985473632778,-0.06307284853515627,-0.26883969465648816,-0.0011995124095350417,-7.778176317712598e-05,0.07937996618982528
1740927222.0846298,None,None,0.018507178833007787,0.06621404111328125,-0.09326717557251873,-0.0011921628055419084,-7.697378962274941e-05,0.07900943418832918
1740927222.0993693,None,None,0.030478187133789136,-0.03673663027343749,-0.04746564885496163,-0.001177924950113085,-7.552817224799234e-05,0.07881980168740592
1740927222.116784,None,None,-0.04853046765136715,-0.019977218652343753,-0.08563358778625929,-0.0012084784475447743,-7.842704383742935e-05,0.07847938307145584
1740927222.1370795,None,None,0.03287238879394527,0.015935806250000017,0.08230534351145069,-0.0011931153013136845,-7.695493868369139e-05,0.07880235361515832
1740927222.158003,None,None,-0.053318870971679644,0.10930967099609373,1.9983358778625957,-0.001229577108522204,-8.160632429149333e-05,0.08669424347835512
1740927222.174743,None,None,0.18849549670410148,0.04227202451171874,-0.14670229007633573,-0.001124716717100955,-7.140186091371265e-05,0.08611394112420752
1740927222.199254,None,None,-0.0006464344482421946,-0.01279461367187501,0.08993893129771013,-0.0011273761213158899,-7.171094061796511e-05,0.08646833249335067
1740927222.2169352,None,None,-0.01501164440917968,-0.0008236053710937719,0.021236641221374253,-0.001138177583986038,-7.276068182342014e-05,0.08655139740572906
1740927222.2371576,None,None,-0.00543483776855469,0.121280679296875,-0.08563358778625929,-0.0011434094333958888,-7.321295020023306e-05,0.08621232268766961
1740927222.2558134,None,None,0.02568978381347664,0.049454629492187485,0.12047328244274835,-0.0011310002564136415,-7.209274918556948e-05,0.08668738034804331
1740927222.275789,None,None,-0.029376854370117167,-0.005612008691406267,0.2273435114503819,-0.0011503151585405126,-7.406389126215265e-05,0.08758467997825259
1740927222.2890851,None,None,-0.010223241088867185,-0.17081192324218747,0.11283969465648869,-0.0011585916628355124,-7.491251458562226e-05,0.08802981544681053
1740927222.3064342,None,None,0.1693418834228515,-0.008006210351562515,-0.07799999999999985,-0.0010626985770101863,-6.57362539680356e-05,0.08772118714380765
1740927222.3219514,None,None,0.05442020373535161,-0.15405251162109374,-0.01693129770992341,-0.00103228487368703,-6.284839400260443e-05,0.08765373981765989
1740927222.3485458,None,None,0.01611297717285165,0.0015705962890624758,0.2120763358778628,-0.0010239616843211363,-6.218676867479878e-05,0.08849091357856793
1740927222.3636906,None,None,0.028083985473632778,-0.008006210351562515,0.08230534351145069,-0.0010083586392440472,-6.0764896442776655e-05,0.08881560511079624
1740927222.3877842,None,None,-0.00543483776855469,-0.010400412011718763,0.18917557251908423,-0.0010121431808747564,-6.123437291629751e-05,0.08956250835906558
1740927222.4066663,None,None,0.02568978381347664,0.04227202451171874,-0.08563358778625929,-0.000997477972008926,-5.9818193685955196e-05,0.08922398756694314
1740927222.419866,None,None,-0.01501164440917968,0.03269521787109375,2.0746717557251912,-0.0010084230259586606,-6.183604479182897e-05,0.09741902184829415
1740927222.4332402,None,None,-0.012617442749023322,0.11409807431640623,-0.024564885496182853,-0.0010160047103106784,-6.25268006439983e-05,0.09732298335722728
1740927222.4481792,None,None,0.04723759875488276,-0.03434242861328124,-0.01693129770992341,-0.000988581928915304,-5.990306071148307e-05,0.09725707683211053
1740927222.4611049,None,None,0.030478187133789136,0.0039647979492187235,0.16627480916030546,-0.0009707579545798722,-5.82649404410591e-05,0.09791484116741334
1740927222.484431,None,None,-0.02458845104980467,0.1308574859375,0.028870229007633696,-0.0009849111348917213,-5.960314760036767e-05,0.09802992124113294
1740927222.4969177,None,None,-0.03416525769042966,0.030301016210937504,0.17390839694656512,-0.00100492428794679,-6.155879770630694e-05,0.09871792913259181
1740927222.5089962,None,None,0.013718775512695291,0.0039647979492187235,2.0517709923664125,-0.000998068886130651,-6.166579056294218e-05,0.10682387993272148
1740927222.5206099,None,None,-0.01501164440917968,-0.05110184023437503,0.1433740458015269,-0.0010068298574988795,-6.250556951028504e-05,0.10739264000802756
1740927222.533508,None,None,0.011324573852539155,0.039877822851562494,-0.17723664122137395,-0.0009999301553972328,-6.173184260117026e-05,0.10669500382872042
1740927222.5453782,None,None,0.03526659045410163,0.03269521787109375,0.07467175572519125,-0.0009788775706623116,-5.968383644885905e-05,0.10699230129109275
1740927222.5575135,None,None,-0.03655945935058602,0.01354160458984377,-0.07799999999999985,-0.001000019893453682,-6.164931255543586e-05,0.10668653632046274
1740927222.572278,None,None,0.03766079211425777,-0.04631343691406248,0.08230534351145069,-0.00097741749647946,-5.944234695321719e-05,0.10701392638223331
1740927222.5875108,None,None,0.013718775512695291,0.015935806250000017,0.1433740458015269,-0.0009687475690622929,-5.859468153424092e-05,0.10758256595833122
1740927222.6022675,None,None,0.018507178833007787,0.020724209570312513,-0.0703664122137404,-0.0009570302124487158,-5.7381719994986556e-05,0.10730696691419453
1740927222.617597,None,None,0.04484339709472662,0.1308574859375,2.0746717557251912,-0.0009298840132119026,-5.523826032159517e-05,0.11550443575166922
1740927222.6344113,None,None,-0.022194249389648313,-0.04152503359374998,0.06703816793893136,-0.0009419516438803772,-5.6343488508019395e-05,0.11577279574905584
1740927222.6513371,None,None,-0.055713072631836,0.06142563779296875,-0.06273282442748052,-0.0009741369420231831,-5.941511672979844e-05,0.11552854179918767
1740927222.6670446,None,None,0.05442020373535161,-0.1372931,-0.01693129770992341,-0.000940816079931128,-5.6034352468433034e-05,0.11546513421719214
1740927222.6827052,None,None,-0.0030406361083983313,0.09015605771484375,0.07467175572519125,-0.0009414838738438265,-5.603412687096788e-05,0.11576350844116684
1740927222.7005455,None,None,0.0065361705322266594,-0.055890243554687524,-0.1848702290076334,-0.0009364056966205031,-5.540918693173171e-05,0.11503667390257027
1740927222.7132947,None,None,0.008930372192382796,-0.015188815332031258,0.12047328244274835,-0.0009297751007236184,-5.4689467136387255e-05,0.11551581382940648
1740927222.7258477,None,None,-0.00543483776855469,0.008753201269531219,0.1433740458015269,-0.0009316675319152681,-5.48273981078082e-05,0.11608544673825577
1740927222.7400951,None,None,0.004141968872070301,0.020724209570312513,0.1281068702290078,-0.0009277887121136828,-5.437822326931173e-05,0.11659482218653323
1740927222.7533364,None,None,0.001747767211914164,0.008753201269531219,-1.719221374045801,-0.0009258030733184012,-5.385789829948159e-05,0.10980716117365118
1740927222.7666647,None,None,-0.029376854370117167,0.04706042783203124,-0.07799999999999985,-0.0009420865074856531,-5.5466953906117027e-05,0.10950131459772391
1740927222.7813845,None,None,0.018507178833007787,0.06142563779296875,0.16627480916030546,-0.0009295061131652571,-5.4163895260197935e-05,0.1101602953833852
1740927222.794975,None,None,-0.010223241088867185,-0.01279461367187501,-0.024564885496182853,-0.000934220311975252,-5.46056616375994e-05,0.1100655226902269
1740927222.8094513,None,None,0.03526659045410163,0.04466622617187499,0.17390839694656512,-0.000911308836270787,-5.223056487111359e-05,0.11075468995638213
1740927222.8209054,None,None,0.004141968872070301,0.025512612890625008,0.17390839694656512,-0.0009069911682426038,-5.175755951847813e-05,0.11144393544912928
1740927222.8371348,None,None,-0.06289567761230463,0.018330007910156265,0.059404580152671915,-0.0009433936597627889,-5.54790969076783e-05,0.1116809601958091
1740927222.850167,None,None,0.023295582153320282,0.006358999609374971,0.08993893129771013,-0.0009277392980406585,-5.382678567676067e-05,0.112038611234641
1740927222.8619785,None,None,-0.007829039428710827,0.01354160458984377,1.9678015267175575,-0.0009296337210975074,-5.406326384775948e-05,0.1198139106996585
1740927222.8747315,None,None,-0.017405846069335817,-0.17081192324218747,1.9220000000000002,-0.0009373588882303094,-5.485626636304737e-05,0.12740948997262
1740927222.8947108,None,None,-0.02458845104980467,-0.010400412011718763,-0.039832061068702185,-0.0009509160356691606,-5.618788530488527e-05,0.12725693153196924
1740927222.909657,None,None,0.004141968872070301,-0.0032178070312500195,0.07467175572519125,-0.000946959999413814,-5.569187653079986e-05,0.1275565836856576
1740927222.923211,None,None,0.001747767211914164,-0.03673663027343749,-0.039832061068702185,-0.0009445007486117435,-5.535219254872322e-05,0.12740393116371523
1740927222.9432986,None,None,-0.04374206433105465,-0.03673663027343749,0.06703816793893136,-0.000969802296100979,-5.797588560150797e-05,0.1276733307283817
1740927222.9582264,None,None,-0.026982652709960808,-0.0008236053710937719,-0.01693129770992341,-0.0009851609064575862,-5.956265046873994e-05,0.12761103557756318
1740927222.9738286,None,None,0.028083985473632778,0.1260690826171875,-1.7955572519083969,-0.0009683473805971833,-5.7738878160340196e-05,0.12052308772596752
1740927222.9949694,None,None,0.020901380493164146,0.04466622617187499,-0.04746564885496163,-0.000954242755043102,-5.617673870597745e-05,0.12033893296674986
1740927223.0235589,None,None,0.0065361705322266594,-0.0008236053710937719,0.028870229007633696,-0.0009487527445255063,-5.55410846466106e-05,0.12045623258293006
1740927223.0374668,None,None,0.14061146350097653,-0.015188815332031258,0.13574045801526746,-0.0008603857677243622,-4.586366992788063e-05,0.12099565776320044
1740927223.048983,None,None,-0.007829039428710827,0.025512612890625008,0.2273435114503819,-0.0008626097396581399,-4.6031955169783634e-05,0.12189694658775266
1740927223.07198,None,None,0.1693418834228515,0.0015705962890624758,1.9601679389312978,-0.0007535246829347403,-3.3852971586594904e-05,0.1296429936986756
1740927223.083926,None,None,-0.029376854370117167,0.11170387265624998,-1.8184580152671752,-0.0007702509229978137,-3.5717328961466625e-05,0.12246467806212005
1740927223.0973206,None,None,0.042449195434570264,0.030301016210937504,-0.1696030534351145,-0.0007407960892955493,-3.2391407870109664e-05,0.1217981268736569
1740927223.1133301,None,None,0.04005499377441413,0.10691546933593749,-0.15433587786259517,-0.0007124732901757067,-2.91832236375059e-05,0.12119173224582068
1740927223.126344,None,None,-0.026982652709960808,0.015935806250000017,-0.12380152671755695,-0.000725450339728923,-3.0569462534284546e-05,0.12070580509941954
1740927223.14845,None,None,-0.08444349255371097,0.1308574859375,1.8151297709923666,-0.0007716593388427417,-3.537299895651157e-05,0.12787848826166037
1740927223.1637728,None,None,0.008930372192382796,-0.008006210351562515,-0.12380152671755695,-0.0007629181979209716,-3.4315750812088045e-05,0.1273935528017819
1740927223.1749556,None,None,-0.03416525769042966,-0.008006210351562515,0.04413740458015303,-0.0007807065303862818,-3.6220009983878615e-05,0.12757183881315023
1740927223.1863475,None,None,-0.01501164440917968,0.020724209570312513,0.08993893129771013,-0.0007866493341080324,-3.679155771514247e-05,0.1279310192159762
1740927223.1982696,None,None,-0.04374206433105465,-0.03434242861328124,-0.07799999999999985,-0.0008108789768072323,-3.948424647357397e-05,0.1276268517260658
1740927223.2104907,None,None,0.0687854136962891,-0.048707638574218726,-0.009297709923663966,-0.0007648131652748286,-3.416630732144334e-05,0.12759396732253467
1740927223.2233982,None,None,0.001747767211914164,0.01354160458984377,0.01360305343511481,-0.0007602200702284657,-3.356279532533692e-05,0.1276514802431104
1740927223.2436626,None,None,-0.08204929089355462,0.006358999609374971,0.0059694656488553655,-0.0008081696107197728,-3.9001844460994094e-05,0.12767879466542478
1740927223.2557752,None,None,-0.03416525769042966,0.049454629492187485,-0.04746564885496163,-0.0008266460330255281,-4.1092662759362676e-05,0.1274950041757681
1740927223.2678251,None,None,0.004141968872070301,-0.005612008691406267,0.0059694656488553655,-0.0008211312258800902,-4.0408503137224914e-05,0.12752220705273778
1740927223.2813785,None,None,-0.053318870971679644,-0.0008236053710937719,0.21970992366412245,-0.0008513609741116827,-4.381611925220325e-05,0.1283936263839863
1740927223.3056097,None,None,-0.010223241088867185,0.06621404111328125,-1.719221374045801,-0.0008582751778832774,-4.508361738382188e-05,0.1216064743364996
1740927223.327206,None,None,-0.02458845104980467,0.0039647979492187235,-0.024564885496182853,-0.0008711843342737086,-4.659100756384478e-05,0.12151198980755154
1740927223.3551986,None,None,0.004141968872070301,-0.14447570498046874,0.06703816793893136,-0.0008659106280500502,-4.594834179304833e-05,0.12177928698235868
1740927223.3689127,None,None,-0.029376854370117167,0.08536765439453123,-0.06273282442748052,-0.0008820406916973663,-4.7855084864001475e-05,0.12153400481385596
1740927223.388587,None,None,-0.03416525769042966,-0.14926410830078124,-0.10853435114503807,-0.0009014686866810122,-5.017149364641867e-05,0.1211077385451577
1740927223.402789,None,None,0.01611297717285165,-0.010400412011718763,0.242610687022901,-0.0008885642350648744,-4.857765390747144e-05,0.12206837659869622
1740927223.4152634,None,None,-0.026982652709960808,-0.008006210351562515,-0.039832061068702185,-0.000903437235552566,-5.0345689632023417e-05,0.12191350511288433
1740927223.429745,None,None,0.18131289172363285,0.049454629492187485,0.028870229007633696,-0.0007859137168987662,-3.643975817861572e-05,0.12202996629290548
1740927223.441754,None,None,0.001747767211914164,-0.039130831933593735,0.059404580152671915,-0.0007813923888383761,-3.587713945578745e-05,0.12226700659329875
1740927223.4535358,None,None,0.030478187133789136,0.07100244443359374,-1.7650229007633587,-0.0007620269551056679,-3.416652549345283e-05,0.11529771511783603
1740927223.4655898,None,None,0.004141968872070301,-0.01279461367187501,-0.09326717557251873,-0.0007559693729820641,-3.350610540862835e-05,0.1149305807112809
1740927223.478071,None,None,0.0065361705322266594,-0.15884091494140623,0.05177099236641247,-0.0007480322470625974,-3.2573540326211584e-05,0.11513626061474298
1740927223.489945,None,None,-0.031771056030273304,-0.017583016992187506,-0.1696030534351145,-0.000764965448364332,-3.467890042053421e-05,0.11446754633306333
1740927223.501621,None,None,-0.031771056030273304,0.008753201269531219,-0.33754198473282404,-0.0007824251689884863,-3.691457857910343e-05,0.11313536693490507
1740927223.5138574,None,None,0.05442020373535161,0.121280679296875,0.18917557251908423,-0.0007437180310590264,-3.227113149556177e-05,0.11388345633975265
1740927223.527769,None,None,-0.031771056030273304,-0.16123511660156248,0.09757251908396958,-0.0007601300840120114,-3.4222012814648585e-05,0.11426982179821743
1740927223.540226,None,None,-0.017405846069335817,0.030301016210937504,0.059404580152671915,-0.0007675757307169197,-3.511704718064589e-05,0.11450547815364802
1740927223.5513878,None,None,0.004141968872070301,-0.09898587343749998,-0.07799999999999985,-0.0007615441170314764,-3.44613325968449e-05,0.11419842674370688
1740927223.5643117,None,None,0.004141968872070301,-0.03194822695312499,-1.8108244274809158,-0.0007592270427506052,-3.497474261265579e-05,0.10704683258599222
1740927223.5777004,None,None,0.020901380493164146,0.10212706601562499,0.059404580152671915,-0.0007419251088541457,-3.295264309624283e-05,0.10728130221571235
1740927223.5903811,None,None,0.008930372192382796,0.015935806250000017,0.10520610687022924,-0.0007320826187304573,-3.180084156894668e-05,0.10769672128599253
1740927223.602087,None,None,0.04005499377441413,0.10691546933593749,-1.7421221374045799,-0.000706188689509894,-2.9560684930744823e-05,0.10081546392038424
1740927223.6147428,None,None,-0.03416525769042966,0.015935806250000017,1.9678015267175575,-0.0007195620416620977,-3.0355700166049498e-05,0.1085868967106712
1740927223.6266088,None,None,0.028083985473632778,0.05663723447265623,-0.039832061068702185,-0.0006974462715564623,-2.7812149264013405e-05,0.1084296580811629
1740927223.6380312,None,None,-0.03895366101074216,0.05184883115234373,-0.024564885496182853,-0.0007185613125759546,-3.0386031807542267e-05,0.10833269011645946
1740927223.6502738,None,None,-0.00543483776855469,0.07579084775390624,-1.7497557251908393,-0.0007222159861683945,-3.171717841962245e-05,0.10142140590307752
1740927223.6632845,None,None,-0.0030406361083983313,0.03508941953125,-0.09326717557251873,-0.0007203548554891365,-3.1628271451079174e-05,0.10105195662714107
1740927223.6763997,None,None,-0.03416525769042966,-0.16123511660156248,-1.7802900763358775,-0.0007428076455005345,-3.5244648783080445e-05,0.09401892103831105
1740927223.692189,None,None,0.0065361705322266594,-0.06307284853515627,-1.8108244274809158,-0.0007389842720571809,-3.581091871296761e-05,0.08686417832720526
1740927223.7065144,None,None,0.001747767211914164,0.030301016210937504,0.07467175572519125,-0.0007335935972693484,-3.5270807919497714e-05,0.08715580151877372
1740927223.719312,None,None,-0.01501164440917968,0.018330007910156265,-0.009297709923663966,-0.00073932588566707,-3.60682323326785e-05,0.0871158427164043
1740927223.7373521,None,None,0.04484339709472662,-0.027159823632812496,0.12047328244274835,-0.0007056725248668823,-3.222098920878429e-05,0.08758850351136648
1740927223.7502701,None,None,-0.03655945935058602,0.11649227597656248,-1.7802900763358775,-0.0007297308702987375,-3.60811890406194e-05,0.08055350293212898
1740927223.7667446,None,None,-0.03416525769042966,-0.019977218652343753,0.13574045801526746,-0.0007476131606766162,-3.819822374165768e-05,0.08108549140946464
1740927223.7851486,None,None,0.001747767211914164,-0.008006210351562515,-0.01693129770992341,-0.0007425241570113495,-3.774388482951148e-05,0.08101458797675205
1740927223.798226,None,None,0.001747767211914164,0.02311841123046876,0.03650381679389314,-0.0007372744301585889,-3.7243008152658896e-05,0.08115478586397087
1740927223.8162959,None,None,-0.0030406361083983313,0.0039647979492187235,-0.009297709923663966,-0.0007352658751644716,-3.713446950612191e-05,0.08111414642553195
1740927223.828682,None,None,0.004141968872070301,0.04227202451171874,0.08993893129771013,-0.0007282812852707489,-3.6407655631334886e-05,0.0814655219149879
1740927223.8399732,None,None,-0.03416525769042966,0.020724209570312513,-1.8031908396946563,-0.0007513339873744634,-4.01277416315618e-05,0.07433940170699785
1740927223.8533568,None,None,0.001747767211914164,0.0015705962890624758,-1.726854961832061,-0.0007506432589997745,-4.11601213461732e-05,0.06751371482577782
1740927223.8671708,None,None,-0.026982652709960808,0.039877822851562494,-0.10090076335877862,-0.0007647223306457575,-4.2896397661697303e-05,0.06710928584542177
1740927223.8964217,None,None,-0.04374206433105465,-0.03673663027343749,0.13574045801526746,-0.0007894591143042678,-4.5629681044160594e-05,0.06763956398882812
1740927223.9242704,None,None,-0.055713072631836,-0.05828444521484377,-0.10853435114503807,-0.0008230432837607116,-4.94186642110312e-05,0.06720515041010659
1740927223.9456003,None,None,0.001747767211914164,0.04227202451171874,0.05177099236641247,-0.0008184836376967007,-4.893958397935408e-05,0.06740392823206093
1740927223.965424,None,None,-0.010223241088867185,-0.005612008691406267,0.0059694656488553655,-0.0008219877406715371,-4.935369472419003e-05,0.06742189987751156
1740927223.9805152,None,None,-0.05092466931152351,-0.11335108339843752,0.08993893129771013,-0.0008524190816435308,-5.2569323302590216e-05,0.06777160826717572
1740927223.9955916,None,None,0.011324573852539155,-0.019977218652343753,0.06703816793893136,-0.0008418339307925675,-5.1419839135990616e-05,0.06803099417266617
1740927224.0081608,None,None,0.18131289172363285,0.027906814550781256,0.03650381679389314,-0.0007180025424335816,-3.843737451308084e-05,0.06816990036527522
1740927224.0260804,None,None,0.001747767211914164,0.030301016210937504,-0.12380152671755695,-0.00071314526897375,-3.810964224035919e-05,0.06767569743782609
1740927224.0379844,None,None,-0.02458845104980467,-0.16602351992187497,-1.787923664122137,-0.0007299142269233401,-4.1021645013662286e-05,0.060608459927501426
1740927224.0493958,None,None,-0.010223241088867185,0.011147402929687522,0.059404580152671915,-0.0007326641558722569,-4.1371694721519286e-05,0.060836816615484936
1740927224.070185,None,None,-0.03416525769042966,0.030301016210937504,0.021236641221374253,-0.0007515974049729487,-4.337771333727685e-05,0.06091453000118959
1740927224.081624,None,None,-0.012617442749023322,-0.02476562197265625,-0.12380152671755695,-0.0007566700200423472,-4.4037403664986e-05,0.060419458915058795
1740927224.0931277,None,None,0.011324573852539155,0.01354160458984377,-0.13906870229007628,-0.0007457978011449556,-4.309955483190692e-05,0.059864085508885
1740927224.105105,None,None,-0.053318870971679644,0.07818504941406249,-0.07799999999999985,-0.0007781139908145138,-4.642189473537889e-05,0.05954990616183416
1740927224.1198545,None,None,-0.07486668591308598,-0.0223714203125,-1.8184580152671752,-0.0008294676580703499,-5.2640716269439225e-05,0.0523612331732945
1740927224.1318357,None,None,-0.04613626599121101,-0.015188815332031258,0.01360305343511481,-0.000857513603994459,-5.5359343886609425e-05,0.05240782806279842
1740927224.15112,None,None,-0.031771056030273304,0.018330007910156265,1.9830687022900766,-0.0008715791907021602,-5.546066325846896e-05,0.060233577936608516
1740927224.1672645,None,None,-0.029376854370117167,-0.005612008691406267,0.07467175572519125,-0.0008888143059926552,-5.702116786907126e-05,0.06052282215098503
1740927224.1849604,None,None,-0.08923189587402347,0.008753201269531219,-0.03219847328244274,-0.0009469434608448383,-6.250744313845882e-05,0.06039006057615815
1740927224.2157915,None,None,0.01611297717285165,-0.14926410830078124,0.2273435114503819,-0.0009338954400835044,-6.104195720975646e-05,0.06128250380725017
1740927224.2355065,None,None,-0.012617442749023322,0.025512612890625008,0.07467175572519125,-0.0009405772759720265,-6.153661439207936e-05,0.061572130169949266
1740927224.249323,None,None,-0.08204929089355462,0.06142563779296875,0.4258167938931299,-0.00099369764204872,-6.613978892714514e-05,0.06324882536757463
1740927224.2621427,None,None,0.03766079211425777,-0.027159823632812496,-0.0703664122137404,-0.0009672465069614441,-6.361967739909492e-05,0.06296602837842646
1740927224.2831128,None,None,0.001747767211914164,0.02311841123046876,0.021236641221374253,-0.0009647982288191816,-6.328360151753469e-05,0.06304506075620087
1740927224.2963424,None,None,-0.026982652709960808,0.011147402929687522,0.12047328244274835,-0.0009817261486502742,-6.466475166793826e-05,0.06351613182936287
1740927224.3078926,None,None,0.02568978381347664,-0.0008236053710937719,-0.09326717557251873,-0.0009634364869604495,-6.295548010293542e-05,0.0631431069006033
1740927224.3206263,None,None,0.001747767211914164,0.008753201269531219,0.10520610687022924,-0.0009609729763246259,-6.258802368859331e-05,0.06355401275016584
1740927224.3341038,None,None,-0.007829039428710827,0.1308574859375,0.08230534351145069,-0.0009651195599028957,-6.282993632129535e-05,0.06387458844376076
1740927224.3467002,None,None,0.028083985473632778,-0.0008236053710937719,0.11283969465648869,-0.0009447979841912495,-6.088206142529233e-05,0.06431588054260644
1740927224.3597617,None,None,0.008930372192382796,0.015935806250000017,-1.7955572519083969,-0.0009405257703220747,-6.130173109666136e-05,0.05721948390888079
1740927224.3723247,None,None,0.008930372192382796,0.030301016210937504,0.19680916030534368,-0.000932974666736725,-6.0458808061506464e-05,0.05799148534156285
1740927224.3839335,None,None,-0.031771056030273304,-0.0223714203125,2.0746717557251912,-0.0009504219571478578,-6.092963946843499e-05,0.0661808789411989
1740927224.398086,None,None,0.011324573852539155,0.059031436132812504,0.028870229007633696,-0.0009417343063067438,-6.0098596288284814e-05,0.06629111813041678
1740927224.4096112,None,None,0.05920860705566411,-0.01279461367187501,0.4716183206106872,-0.0008995191696830592,-5.6192689696014845e-05,0.06815019749139765
1740927224.4217534,None,None,-0.07007828259277349,0.059031436132812504,0.059404580152671915,-0.0009463693599095157,-6.0142631598463804e-05,0.0683814453096252
1740927224.4526498,None,None,-0.00543483776855469,0.0039647979492187235,-0.1848702290076334,-0.0009495802055209981,-6.044129256225133e-05,0.06764793948345944
1740927224.464284,None,None,-0.00543483776855469,-0.03434242861328124,-0.07799999999999985,-0.0009527109400638572,-6.068337019693516e-05,0.06733647540991863
1740927224.4790006,None,None,-0.04374206433105465,-0.16841772158203122,0.20444274809160334,-0.0009819512209224047,-6.30142677552818e-05,0.06814059569611254
1740927224.4986947,None,None,-0.017405846069335817,0.011147402929687522,-0.0016641221374045223,-0.0009936049149002835,-6.393256800563216e-05,0.06813080740827132
1740927224.5140667,None,None,0.03287238879394527,0.08057925107421873,0.46398473282442776,-0.0009701672056835732,-6.17266126525923e-05,0.06996028352757762
1740927224.527594,None,None,-0.01501164440917968,-0.03434242861328124,0.21970992366412245,-0.0009799510588276938,-6.241164538294916e-05,0.07082525103950067
1740927224.542358,None,None,0.1430056651611329,-0.0008236053710937719,-0.08563358778625929,-0.0008808747158926348,-5.415618339783014e-05,0.07048435768310019
1740927224.5601292,None,None,0.028083985473632778,0.018330007910156265,0.4029160305343513,-0.0008600088054602254,-5.226216932984721e-05,0.07207310901357451
1740927224.574895,None,None,-0.019800047729492176,-0.0223714203125,0.08993893129771013,-0.0008725001028872449,-5.324652908807959e-05,0.07242594775565635
1740927224.586868,None,None,0.03526659045410163,0.015935806250000017,0.05177099236641247,-0.0008469626104708926,-5.1108364396065676e-05,0.07262812147068406
1740927224.603112,None,None,0.04484339709472662,-0.1325046966796875,0.1433740458015269,-0.0008144796952315813,-4.8380764259317264e-05,0.07319217096275725
1740927224.623325,None,None,0.030478187133789136,0.0039647979492187235,1.8532977099236643,-0.0007901077845343039,-4.575312755334468e-05,0.0805101887153711
1740927224.6426723,None,None,0.05681440539550775,-0.01279461367187501,-0.0703664122137404,-0.0007490520969040146,-4.241425114148387e-05,0.08023132249554363
1740927224.6548352,None,None,0.020901380493164146,0.04466622617187499,-0.1314351145038164,-0.0007327123381315314,-4.1119988474234e-05,0.07971121237575476
1740927224.6671693,None,None,-0.010223241088867185,-0.0008236053710937719,2.0746717557251912,-0.0007358359786710798,-4.066435147456947e-05,0.08790469691814413
1740927224.6790016,None,None,0.020901380493164146,-0.03673663027343749,0.10520610687022924,-0.0007191998826432284,-3.925576829950655e-05,0.08832052238949324
1740927224.6909661,None,None,-0.010223241088867185,0.018330007910156265,-0.024564885496182853,-0.0007242964236427419,-3.9665563418099245e-05,0.08822384013945456
1740927224.7038157,None,None,-0.0030406361083983313,-0.015188815332031258,0.15100763358778657,-0.0007242544524902,-3.959533807792545e-05,0.08882061335459812
1740927224.7244258,None,None,0.0065361705322266594,0.04227202451171874,0.2120763358778628,-0.0007174623950308448,-3.8949728228846314e-05,0.08965868684964323
1740927224.741149,None,None,0.004141968872070301,0.01354160458984377,0.028870229007633696,-0.0007124846145517799,-3.851471562250312e-05,0.08977326306615527
1740927224.7642975,None,None,-0.01501164440917968,-0.015188815332031258,0.028870229007633696,-0.000720904738858933,-3.918015355048302e-05,0.08988784944550535
1740927224.790727,None,None,0.011324573852539155,-0.029554025292968744,-0.01693129770992341,-0.0007109742559836024,-3.8353873992015455e-05,0.08982154237184374
1740927224.8108935,None,None,-0.0006464344482421946,-0.17081192324218747,0.21970992366412245,-0.0007091334025204116,-3.8107638865733807e-05,0.09068989918916975
1740927224.825426,None,None,0.001747767211914164,0.0015705962890624758,0.34948091603053455,-0.0007054730323386296,-3.766278682944724e-05,0.09207095542792806
1740927224.840702,None,None,-0.010223241088867185,-0.055890243554687524,0.242610687022901,-0.0007103343199279943,-3.795845895068117e-05,0.09303010822475305
1740927224.8523443,None,None,-0.012617442749023322,-0.027159823632812496,-0.19250381679389283,-0.0007174000761672959,-3.859640902729546e-05,0.0922707940311885
1740927224.8640745,None,None,-0.03895366101074216,-0.07743805849609375,0.1281068702290078,-0.0007427664721499,-4.064124330402211e-05,0.09277768688026594
1740927224.8759193,None,None,0.02568978381347664,0.015935806250000017,-0.0703664122137404,-0.0007229645017286002,-3.900963370001924e-05,0.09250072656877692
1740927224.8895853,None,None,0.001747767211914164,0.0686082427734375,-1.787923664122137,-0.0007217346638504646,-3.954792273735623e-05,0.08543973099529767
1740927224.901191,None,None,-0.041347862670898516,0.05184883115234373,0.17390839694656512,-0.0007488509018360795,-4.173834469177845e-05,0.08612640244361722
1740927224.9138308,None,None,-0.012617442749023322,-0.16123511660156248,0.028870229007633696,-0.0007560495981770724,-4.2322817712688725e-05,0.08624031907215846
1740927224.925892,None,None,-0.019800047729492176,0.030301016210937504,1.9830687022900766,-0.0007663598198790532,-4.245643465866636e-05,0.09407290923635805
1740927224.9373612,None,None,0.04005499377441413,-0.0008236053710937719,0.06703816793893136,-0.0007364143209476844,-3.992632818625641e-05,0.09433885633280262
1740927224.94944,None,None,0.011324573852539155,0.018330007910156265,0.36474809160305366,-0.0007263028025428025,-3.893880322877438e-05,0.09578071784171448
1740927224.963045,None,None,-0.012617442749023322,0.1260690826171875,-0.0703664122137404,-0.0007335833814236657,-3.9564326122026725e-05,0.09550418744839993
1740927224.974889,None,None,0.001747767211914164,-0.01279461367187501,0.0059694656488553655,-0.0007306508349287175,-3.930649587830148e-05,0.09552910558189766
1740927224.9866598,None,None,-0.03655945935058602,-0.1516583099609375,0.1281068702290078,-0.0007548342872632403,-4.1292377564257356e-05,0.0960364240868796
1740927224.999414,None,None,-0.026982652709960808,-0.017583016992187506,0.31894656488549633,-0.0007722327946154571,-4.264767827964989e-05,0.0972975812935869
1740927225.011784,None,None,0.011324573852539155,-0.027159823632812496,-0.024564885496182853,-0.0007628608494237981,-4.186372332487244e-05,0.09720213116052456
1740927225.024458,None,None,0.020901380493164146,0.0015705962890624758,0.13574045801526746,-0.0007464353945111758,-4.041946313918144e-05,0.09773981621008886
1740927225.0389643,None,None,0.0065361705322266594,0.03748362119140625,0.09757251908396958,-0.000740184119309604,-3.984884624723094e-05,0.09812681204562199
1740927225.0504675,None,None,-0.00543483776855469,0.0039647979492187235,0.31894656488549633,-0.0007422330272315013,-3.990876473590332e-05,0.09938822593477051
1740927225.061971,None,None,-0.022194249389648313,0.0039647979492187235,2.0288702290076337,-0.0007546290208270293,-4.0268837507721094e-05,0.1074036292025408
1740927225.0747013,None,None,-0.026982652709960808,0.020724209570312513,-1.7802900763358775,-0.000774347172413818,-4.257930230841185e-05,0.10037497408686233
1740927225.0918753,None,None,0.042449195434570264,0.011147402929687522,-0.0703664122137404,-0.0007428131227095275,-3.9883788157370935e-05,0.10009896836778927
1740927225.110006,None,None,-0.022194249389648313,-0.027159823632812496,0.15100763358778657,-0.0007571604112560292,-4.107471488818155e-05,0.10069726768731173
1740927225.1299324,None,None,0.023295582153320282,0.02311841123046876,-0.22303816793893105,-0.0007393636844056434,-3.960371754837402e-05,0.09981824620206169
1740927225.142724,None,None,-0.007829039428710827,-0.1516583099609375,1.9296335877862598,-0.0007417698343386694,-3.917265601535153e-05,0.10744161577984648
1740927225.160998,None,None,0.02568978381347664,-0.1325046966796875,0.10520610687022924,-0.0007218671358617834,-3.7394715487811815e-05,0.10786011487540298
1740927225.1745288,None,None,-0.007829039428710827,0.025512612890625008,0.06703816793893136,-0.0007259602648901618,-3.772532043888105e-05,0.10812788708986328
1740927225.1901093,None,None,-0.010223241088867185,0.07100244443359374,0.18917557251908423,-0.0007317153878990031,-3.816714092214858e-05,0.10887807836900741
1740927225.2041626,None,None,0.011324573852539155,-0.029554025292968744,1.9372671755725193,-0.000720421900674676,-3.6535524681310756e-05,0.11653290739605196
1740927225.2169275,None,None,-0.0030406361083983313,0.04227202451171874,-1.772656488549618,-0.0007228194685614178,-3.731356380494433e-05,0.10953558628306523
1740927225.2290747,None,None,-0.055713072631836,-0.055890243554687524,-0.09326717557251873,-0.0007617009529143044,-4.082743263629393e-05,0.1091702861409863
1740927225.2424774,None,None,0.18610129504394535,0.04466622617187499,2.0517709923664125,-0.000624371834990752,-2.7815958357830628e-05,0.11727729704206295
1740927225.258649,None,None,0.013718775512695291,0.059031436132812504,-0.03219847328244274,-0.000612407310992478,-2.668520760868852e-05,0.11715436737993497
1740927225.280178,None,None,-0.041347862670898516,-0.039130831933593735,0.2273435114503819,-0.0006399411016557402,-2.906177642909038e-05,0.11805649142575592
1740927225.2933238,None,None,-0.03895366101074216,-0.008006210351562515,-1.7573893129770992,-0.0006678402632768062,-3.214989446076534e-05,0.11111948038209202
1740927225.3050022,None,None,0.0639970103759766,-0.029554025292968744,-0.09326717557251873,-0.000619788041147645,-2.773375492338579e-05,0.11075420023085028
1740927225.3183494,None,None,-0.029376854370117167,-0.008006210351562515,0.19680916030534368,-0.0006387720627952609,-2.9386872162667516e-05,0.1115345511156019
1740927225.3318603,None,None,-0.00543483776855469,-0.005612008691406267,0.2273435114503819,-0.0006405179464371055,-2.9443556234597223e-05,0.11243559291413824
1740927225.3469076,None,None,0.14061146350097653,0.0686082427734375,0.10520610687022924,-0.0005363453069954797,-1.9664204686522296e-05,0.11285433164916553
1740927225.3593607,None,None,0.013718775512695291,-0.16602351992187497,-0.2306717557251905,-0.0005238901972202762,-1.850823169857256e-05,0.11194645396262061
1740927225.3784742,None,None,-0.07486668591308598,-0.015188815332031258,0.41818320610687043,-0.0005750848438803744,-2.3108880338562715e-05,0.11360120872574425
1740927225.3916214,None,None,-0.007829039428710827,0.020724209570312513,-0.19250381679389283,-0.0005785579665864005,-2.345546464324272e-05,0.11284412450835728
1740927225.4037411,None,None,-0.029376854370117167,-0.0032178070312500195,2.0288702290076337,-0.0005953187267061129,-2.427029269636552e-05,0.12086077138420517
1740927225.4184592,None,None,-0.0030406361083983313,-0.03673663027343749,0.08230534351145069,-0.0005952114296508484,-2.417891856012715e-05,0.12119019745862526
1740927225.433674,None,None,0.03287238879394527,0.06142563779296875,-0.05509923664122107,-0.0005690627801005617,-2.164243812577131e-05,0.12097690736215232
1740927225.4494982,None,None,0.028083985473632778,0.0039647979492187235,-0.11616793893129751,-0.0005462750687716941,-1.9429107710472723e-05,0.12052232117608659
1740927225.4701083,None,None,0.01611297717285165,-0.010400412011718763,0.31894656488549633,-0.0005315439524097688,-1.781556521657724e-05,0.12178620490186479
1740927225.4814458,None,None,-0.04374206433105465,0.05424303281249998,-0.16196946564885462,-0.0005610466575616723,-2.0677725748621355e-05,0.12115073409159283
1740927225.49822,None,None,-0.07247248425292963,-0.027159823632812496,-0.01693129770992341,-0.000611638079410351,-2.5583584806305353e-05,0.1210879719416676
1740927225.5216005,None,None,-0.0006464344482421946,-0.15405251162109374,-0.0016641221374045223,-0.000610019329545919,-2.5396360910108015e-05,0.12108545175399343
1740927225.534534,None,None,-0.022194249389648313,0.0039647979492187235,0.028870229007633696,-0.0006241542895427185,-2.6755562304343134e-05,0.12120348207177448
1740927225.5536435,None,None,-0.05810727429199214,-0.1420815033203125,-1.7955572519083969,-0.0006670087036036318,-3.168767612272108e-05,0.11411543580428371
1740927225.566813,None,None,0.008930372192382796,-0.02476562197265625,0.0059694656488553655,-0.0006587384194564134,-3.086148888004496e-05,0.11414179900839154
1740927225.5785172,None,None,-0.029376854370117167,-0.06307284853515627,0.07467175572519125,-0.0006784768805363489,-3.28057719106495e-05,0.11443948684770704
1740927225.5910623,None,None,-0.03655945935058602,0.121280679296875,-0.024564885496182853,-0.000703794362602846,-3.53602941808923e-05,0.11434522660644386
1740927225.6106842,None,None,-0.06289567761230463,-0.0223714203125,0.18917557251908423,-0.000748455308448749,-3.9796782802328705e-05,0.11509513750626107
1740927225.6238453,None,None,-0.041347862670898516,-0.015188815332031258,0.16627480916030546,-0.0007776671436744568,-4.2711010491157874e-05,0.11575468210290427
1740927225.6370096,None,None,0.061602808715820245,0.0039647979492187235,0.06703816793893136,-0.0007314009552018656,-3.8035030773367006e-05,0.11602233974660785
1740927225.6517444,None,None,0.004141968872070301,0.09494446103515625,0.028870229007633696,-0.0007272109276219843,-3.762039295413481e-05,0.11613924770446113
1740927225.6688778,None,None,-0.010223241088867185,0.01354160458984377,-0.11616793893129751,-0.0007337699947595699,-3.8349942512716156e-05,0.11568327235940759
1740927225.682284,None,None,0.001747767211914164,-0.03194822695312499,0.04413740458015303,-0.0007313885421026869,-3.811237404608141e-05,0.11586035457090077
1740927225.694425,None,None,-0.010223241088867185,0.039877822851562494,0.06703816793893136,-0.0007378372831604122,-3.877177464763059e-05,0.11612788203163008
1740927225.7070484,None,None,-0.017405846069335817,0.12367488095703125,0.059404580152671915,-0.0007496834128876811,-3.999334744569958e-05,0.1163652663409086
1740927225.7210512,None,None,-0.029376854370117167,0.0039647979492187235,-0.03219847328244274,-0.0007706002210677243,-4.218825535154386e-05,0.11624084394311283
1740927225.7391605,None,None,-0.03655945935058602,0.049454629492187485,-0.009297709923663966,-0.0007970037003638961,-4.4954712028740124e-05,0.11620681872055309
1740927225.752056,None,None,-0.04853046765136715,0.07579084775390624,0.12047328244274835,-0.0008323966469140103,-4.8627979030365066e-05,0.11668531640394664
1740927225.766725,None,None,-0.0030406361083983313,0.015935806250000017,-0.14670229007633573,-0.0008345925031649394,-4.8945886177660976e-05,0.11610858142471515
1740927225.7846217,None,None,-0.01501164440917968,0.027906814550781256,-1.8108244274809158,-0.0008470838173368646,-5.0815481310301626e-05,0.10895885352946909
1740927225.7989292,None,None,-0.0030406361083983313,-0.015188815332031258,2.0670381679389314,-0.0008476891854542821,-5.032433652132209e-05,0.11712453599247438
1740927225.8140879,None,None,0.013718775512695291,-0.039130831933593735,-1.7955572519083969,-0.0008388176863028645,-4.992059362513629e-05,0.11003522361624274
1740927225.8320904,None,None,0.01611297717285165,-0.03434242861328124,0.15864122137404602,-0.0008266828711515681,-4.8626299064834e-05,0.11066333694445939
1740927225.8506045,None,None,0.013718775512695291,0.04706042783203124,-0.06273282442748052,-0.0008164183031429542,-4.758284014395488e-05,0.11041715946345232
1740927225.8740478,None,None,-0.010223241088867185,0.0015705962890624758,0.059404580152671915,-0.0008238644275725338,-4.8370972210023674e-05,0.11065333354827957
1740927225.8891785,None,None,0.0065361705322266594,-0.008006210351562515,-0.01693129770992341,-0.0008189466334821482,-4.787495288193824e-05,0.11058801878994161
1740927225.902141,None,None,-0.019800047729492176,-0.029554025292968744,0.059404580152671915,-0.0008336289501958478,-4.9430394386560986e-05,0.11082418045279117
1740927225.9151196,None,None,-0.00543483776855469,0.015935806250000017,-1.7955572519083969,-0.0008386497343207929,-5.036194454613978e-05,0.10373373067819738
1740927225.9290857,None,None,0.018507178833007787,-0.16841772158203122,-0.1314351145038164,-0.0008249964983994919,-4.894143375057639e-05,0.10321498958823136
1740927225.9445212,None,None,-0.019800047729492176,0.015935806250000017,0.11283969465648869,-0.0008398052140402245,-5.0483030422188116e-05,0.10366098311201656
1740927225.9569883,None,None,0.03287238879394527,0.02311841123046876,0.09757251908396958,-0.0008153467921526834,-4.7873354220962275e-05,0.10404674395105311
1740927225.9697611,None,None,0.0065361705322266594,0.12846328427734374,-0.27647328244274805,-0.0008105869740931165,-4.741753396838658e-05,0.10295517513563986
1740927225.9816396,None,None,0.023295582153320282,0.12846328427734374,-1.8184580152671752,-0.0007937410026335511,-4.594133978288934e-05,0.09577297936308755
1740927225.9936326,None,None,0.008930372192382796,0.1260690826171875,0.03650381679389314,-0.000786952234660704,-4.5200375978932017e-05,0.09591625872945829
1740927226.0053408,None,None,-0.05810727429199214,0.04227202451171874,-0.024564885496182853,-0.0008304720957940762,-4.978368192937718e-05,0.09581836502709358
1740927226.0171943,None,None,-0.07965508923339848,0.07579084775390624,0.18154198473282457,-0.0008904868263424203,-5.606122688554229e-05,0.09653453575981506
1740927226.0317261,None,None,0.004141968872070301,-0.015188815332031258,0.09757251908396958,-0.0008880223724145903,-5.575717468352126e-05,0.09691917617128132
1740927226.048689,None,None,-0.055713072631836,-0.010400412011718763,0.01360305343511481,-0.0009306183572318634,-6.0208745563207224e-05,0.0969722282649081
1740927226.065057,None,None,-0.01501164440917968,0.04227202451171874,-0.009297709923663966,-0.0009429339851045897,-6.147022534675708e-05,0.09693484624489013
1740927226.086632,None,None,0.02568978381347664,-0.005612008691406267,0.08993893129771013,-0.0009247095526890462,-5.951204874597977e-05,0.09728942683673034
1740927226.102651,None,None,-0.012617442749023322,0.01354160458984377,0.028870229007633696,-0.000935267327024728,-6.058657680680811e-05,0.09740286589113606
1740927226.1172178,None,None,-0.0006464344482421946,-0.03673663027343749,0.18154198473282457,-0.0009369168946131234,-6.071441396598323e-05,0.09811934507863014
1740927226.1291864,None,None,0.01611297717285165,0.02311841123046876,0.028870229007633696,-0.0009259488534657968,-5.953677469375219e-05,0.09823293217844896
1740927226.143863,None,None,0.0065361705322266594,0.049454629492187485,-0.13906870229007628,-0.0009221398224924076,-5.9121172251448286e-05,0.09768322731371876
1740927226.1674554,None,None,-0.00543483776855469,0.0015705962890624758,0.20444274809160334,-0.0009274477907484665,-5.9641092549809817e-05,0.09849022137349217
1740927226.1805184,None,None,-0.022194249389648313,-0.05110184023437503,-0.04746564885496163,-0.0009454520986547169,-6.150119101927045e-05,0.09830237730004568
1740927226.192644,None,None,0.020901380493164146,0.0039647979492187235,0.242610687022901,-0.0009310711070097688,-5.9969121824513315e-05,0.09926023537467396
1740927226.2090697,None,None,-0.03655945935058602,-0.0008236053710937719,-0.07799999999999985,-0.0009600535033631462,-6.297565378402877e-05,0.098951921065126
1740927226.2214828,None,None,-0.007829039428710827,0.0039647979492187235,-0.024564885496182853,-0.0009675123470134579,-6.373079767321717e-05,0.09885461589276576
1740927226.2336023,None,None,-0.022194249389648313,-0.0008236053710937719,2.0212366412213743,-0.000986857989317546,-6.575166410018736e-05,0.10683768490209584
1740927226.245309,None,None,0.001747767211914164,0.011147402929687522,-0.11616793893129751,-0.0009872285174779654,-6.580117509323402e-05,0.10637984013848781
1740927226.2593539,None,None,0.020901380493164146,-0.01279461367187501,-0.04746564885496163,-0.0009731085387439545,-6.43356493348741e-05,0.10619326617170552
1740927226.2747853,None,None,0.020901380493164146,0.0039647979492187235,0.09757251908396958,-0.0009589953302641907,-6.287440037354754e-05,0.10657951399291178
1740927226.2885742,None,None,-0.026982652709960808,0.03748362119140625,0.03650381679389314,-0.0009812050672533884,-6.520914076661323e-05,0.10672460624547704
1740927226.3065295,None,None,-0.007829039428710827,0.08297345273437498,-1.772656488549618,-0.0009877881934431008,-6.577834905588018e-05,0.09972399762026103
1740927226.3352287,None,None,-0.05810727429199214,0.08057925107421873,0.242610687022901,-0.0010341692646757712,-7.063044839536652e-05,0.10068203799316827
1740927226.348219,None,None,-0.0030406361083983313,-0.04152503359374998,0.26551145038167956,-0.0010389588608372671,-7.113734863572543e-05,0.10173068718447868
1740927226.368007,None,None,-0.022194249389648313,-0.010400412011718763,0.03650381679389314,-0.0010582476210637584,-7.314429878509899e-05,0.10187498393446992
1740927226.3843822,None,None,-0.01501164440917968,-0.05828444521484377,-0.07799999999999985,-0.0010721229463502523,-7.457078522174384e-05,0.10156704219246215
1740927226.4034746,None,None,-0.026982652709960808,0.11409807431640623,-0.024564885496182853,-0.0010953273676815607,-7.697694305895553e-05,0.10147010402521986
1740927226.4196093,None,None,-0.08923189587402347,-0.04152503359374998,1.9143664122137407,-0.001168320357639102,-8.489517182603274e-05,0.10903142031092246
1740927226.4349513,None,None,0.018507178833007787,-0.0008236053710937719,0.08230534351145069,-0.0011575299398613446,-8.381392681244506e-05,0.10935778423996044
1740927226.4518785,None,None,-0.010223241088867185,0.02311841123046876,-0.04746564885496163,-0.0011685477132287463,-8.499336169543122e-05,0.10917162218636257
1740927226.46318,None,None,-0.03895366101074216,0.0039647979492187235,1.9983358778625957,-0.001204255720797572,-8.920061474933973e-05,0.11706579345146532
1740927226.4807189,None,None,-0.0030406361083983313,0.04466622617187499,0.0059694656488553655,-0.0012101731967273238,-8.991877339596873e-05,0.11709188625066154
1740927226.4928102,None,None,0.011324573852539155,-0.005612008691406267,0.3036793893129772,-0.0012055706172082084,-8.960127582126085e-05,0.11829382752125836
1740927226.5041451,None,None,0.028083985473632778,0.030301016210937504,-0.024564885496182853,-0.0011876296338626739,-8.779185486105837e-05,0.1181994508275772
1740927226.5260367,None,None,-0.022194249389648313,-0.0032178070312500195,0.01360305343511481,-0.0012082721505370863,-9.007281926719688e-05,0.11825577801366229
1740927226.5373638,None,None,-0.017405846069335817,0.020724209570312513,-1.7955572519083969,-0.0012224658202501452,-9.112391508782157e-05,0.11116637360833617
1740927226.5607648,None,None,0.008930372192382796,0.12846328427734374,-0.01693129770992341,-0.001219500672197101,-9.08374949951991e-05,0.11110090772585947
1740927226.5787745,None,None,-0.017405846069335817,0.030301016210937504,-0.0703664122137404,-0.0012367204964859573,-9.268268508647621e-05,0.11082435850275181
1740927226.592016,None,None,0.011324573852539155,0.06142563779296875,0.12047328244274835,-0.0012323196542905397,-9.228570739302298e-05,0.11130151434928144
1740927226.6215513,None,None,-0.00543483776855469,0.04706042783203124,0.2120763358778628,-0.0012410128449371264,-9.332630730706312e-05,0.11214053744025151
1740927226.6341004,None,None,-0.010223241088867185,0.01354160458984377,0.0059694656488553655,-0.0012530863376524937,-9.465800173927225e-05,0.11216560935981988
1740927226.6511066,None,None,0.030478187133789136,0.1260690826171875,-0.19250381679389283,-0.0012334601873917668,-9.250981229504491e-05,0.11140674963516692
1740927226.66329,None,None,-0.0030406361083983313,-0.0008236053710937719,0.1281068702290078,-0.0012402786355853554,-9.332302453845181e-05,0.11191407688895597
1740927226.6860573,None,None,-0.010223241088867185,-0.027159823632812496,-0.0016641221374045223,-0.001252438677254013,-9.465857644208475e-05,0.11190890705255174
1740927226.7214618,None,None,-0.04853046765136715,0.0015705962890624758,-1.7955572519083969,-0.0012902902166043572,-9.793886908589674e-05,0.10481831495604882
1740927226.7426703,None,None,-0.010223241088867185,0.0015705962890624758,0.04413740458015303,-0.0013030321241203806,-9.930651659235764e-05,0.10499287852923597
1740927226.754637,None,None,-0.031771056030273304,0.030301016210937504,0.15864122137404602,-0.0013328488137314414,-0.00010257093711375496,0.10561972661448296
1740927226.7671602,None,None,-0.0030406361083983313,0.020724209570312513,0.06703816793893136,-0.0013404293522879694,-0.00010340137344036414,0.1058848641375828
1740927226.7814693,None,None,0.0065361705322266594,0.1308574859375,-1.772656488549618,-0.0013359883721863921,-0.00010196066022151657,0.09888373382853881
1740927226.793423,None,None,0.013718775512695291,0.020724209570312513,-1.787923664122137,-0.0013258997043127236,-9.981403350957388e-05,0.09182117769588495
1740927226.8114169,None,None,-0.017405846069335817,0.01354160458984377,1.876198473282443,-0.0013497510302898556,-0.00010331527071504696,0.09922981019856271
1740927226.8342068,None,None,0.028083985473632778,-0.0008236053710937719,-0.039832061068702185,-0.0013332044070456896,-0.00010144781635846427,0.09907184015050693
1740927226.8516686,None,None,-0.04613626599121101,0.0015705962890624758,-0.0703664122137404,-0.001374158027107447,-0.00010572652837594734,0.09879324996955613
1740927226.8803184,None,None,-0.01501164440917968,0.1308574859375,1.975435114503817,-0.0013971503703062117,-0.0001093477903512424,0.10659499525493203
1740927226.8990178,None,None,0.042449195434570264,0.008753201269531219,-1.7802900763358775,-0.0013644755440979422,-0.00010469638033201485,0.09956388345285862
1740927226.915767,None,None,-0.055713072631836,-0.0008236053710937719,-0.0703664122137404,-0.001413218084366537,-0.00010980193482367717,0.09928538216525852
1740927226.9279394,None,None,-0.019800047729492176,-0.0223714203125,0.11283969465648869,-0.0014349138377797285,-0.00011212773640990241,0.09973045908900335
1740927226.9437041,None,None,-0.04374206433105465,-0.015188815332031258,-0.024564885496182853,-0.0014750162009625808,-0.00011632664628522031,0.09963290341383704
1740927226.9559207,None,None,0.02568978381347664,-0.010400412011718763,0.11283969465648869,-0.0014617087945278725,-0.0001149164513993614,0.10007805064182301
1740927226.9694662,None,None,-0.01501164440917968,-0.01279461367187501,-1.7115877862595417,-0.0014740015407007964,-0.00011489678123572034,0.09331727487410688
1740927226.9814365,None,None,-0.019800047729492176,-0.027159823632812496,0.03650381679389314,-0.0014961208196725682,-0.0001171536190865002,0.09345991797732267
1740927226.992626,None,None,0.04005499377441413,0.02311841123046876,-0.04746564885496163,-0.0014713403747821446,-0.00011435858345688494,0.09327094681172768
1740927227.00401,None,None,0.001747767211914164,-0.03194822695312499,-0.11616793893129751,-0.001476124981207926,-0.00011465589756678608,0.09281060863087434
1740927227.0153737,None,None,0.023295582153320282,0.02311841123046876,-0.04746564885496163,-0.001464348797752884,-0.00011325232254022415,0.09262157171141738
1740927227.0270286,None,None,0.004141968872070301,0.025512612890625008,-0.11616793893129751,-0.0014672523281494263,-0.00011334862629668788,0.0921611687209478
1740927227.0384483,None,None,0.04005499377441413,-0.0032178070312500195,0.2731450381679392,-0.0014435187373750234,-0.0001109667175140537,0.0932383939741246
1740927227.0496728,None,None,0.05681440539550775,-0.04391923525390623,-0.17723664122137395,-0.0014047564770577245,-0.0001066370394348893,0.09253692558088289
1740927227.0642104,None,None,-0.017405846069335817,-0.14447570498046874,0.17390839694656512,-0.0014253327991062997,-0.00010886386761238542,0.09322229145619186
1740927227.076111,None,None,-0.022194249389648313,-0.015188815332031258,0.0059694656488553655,-0.0014491482067145003,-0.00011128135229543587,0.09324447273771692
1740927227.0882585,None,None,0.004141968872070301,0.0039647979492187235,-1.7802900763358775,-0.0014453470205363658,-0.00010916866039757528,0.08621143111832277
1740927227.1013513,None,None,-0.02458845104980467,0.020724209570312513,0.09757251908396958,-0.0014717161896306487,-0.00011187839671160056,0.08659433349169025
1740927227.1134126,None,None,-0.00543483776855469,-0.027159823632812496,0.1281068702290078,-0.0014833244277100675,-0.00011307377346483987,0.08709793120950955
1740927227.1280446,None,None,0.011324573852539155,-0.0032178070312500195,0.1281068702290078,-0.0014818197640018766,-0.0001129121127189027,0.08760163992563678
1740927227.142463,None,None,0.03287238879394527,-0.03194822695312499,0.04413740458015303,-0.0014629799172847537,-0.00011088527771911564,0.08777380153631295
1740927227.1575649,None,None,0.03766079211425777,0.039877822851562494,0.06703816793893136,-0.0014403295844135455,-0.00010850441735357184,0.08803647012081635
1740927227.1694446,None,None,-0.029376854370117167,-0.017583016992187506,-0.10853435114503807,-0.0014696345744417707,-0.00011131935311761553,0.08760574346455724
1740927227.1829493,None,None,0.03766079211425777,-0.0008236053710937719,-0.08563358778625929,-0.0014463373637618464,-0.00010873591950693405,0.08726542593354782
1740927227.20957,None,None,0.013718775512695291,-0.0032178070312500195,-0.25357251908396927,-0.0014410559032176566,-0.00010784074544932741,0.0862617671839592
1740927227.2215304,None,None,0.04484339709472662,0.018330007910156265,-0.0703664122137404,-0.0014119470322985304,-0.00010469763075816586,0.085981589390219
1740927227.235207,None,None,-0.026982652709960808,0.011147402929687522,0.0059694656488553655,-0.0014397453517343147,-0.00010745520151281939,0.08600290127555542
1740927227.2482672,None,None,-0.029376854370117167,0.025512612890625008,-0.0016641221374045223,-0.0014695759220145776,-0.00011039986793506484,0.08599409480139263
1740927227.262089,None,None,-0.00543483776855469,0.006358999609374971,-0.05509923664122107,-0.001480407261435748,-0.00011134803038055149,0.0857742611998635
1740927227.275868,None,None,0.018507178833007787,0.049454629492187485,-0.0016641221374045223,-0.0014725770951484938,-0.00011046211980737293,0.08576547474141374
1740927227.2896492,None,None,0.02568978381347664,0.025512612890625008,0.18917557251908423,-0.001459841656780262,-0.00010929688162151098,0.08651047994542518
1740927227.302229,None,None,-0.07486668591308598,0.0039647979492187235,0.18917557251908423,-0.001526730764315399,-0.00011616263449731252,0.08725563197408258
1740927227.314338,None,None,0.15737087512207037,0.10212706601562499,-0.0016641221374045223,-0.0014089030041606499,-0.00010424383270836884,0.08724716465133442
1740927227.3287966,None,None,-0.026982652709960808,0.03748362119140625,2.0823053435114507,-0.001446094287895063,-0.00011023543991138929,0.09546983116792762
1740927227.3417437,None,None,-0.01501164440917968,0.08057925107421873,-1.8031908396946563,-0.001456143705875555,-0.00010920394367250611,0.0883471865839909
1740927227.3565392,None,None,0.023295582153320282,0.039877822851562494,2.0517709923664125,-0.0014535237473080088,-0.00011119688989549738,0.09644945655066152
1740927227.3718698,None,None,0.001747767211914164,0.020724209570312513,0.1281068702290078,-0.001459031109569696,-0.00011187574052216024,0.09695509576216423
1740927227.3852067,None,None,-0.0030406361083983313,-0.019977218652343753,-0.17723664122137395,-0.0014669514475578794,-0.00011245184889725601,0.0962547968734779
1740927227.3971457,None,None,-0.00543483776855469,0.10452126767578124,-1.8108244274809158,-0.0014693256325355288,-0.00011060874365074353,0.08910216448974034
1740927227.4085624,None,None,-0.007829039428710827,-0.027159823632812496,0.03650381679389314,-0.0014822415623165048,-0.00011189268087390324,0.08924483365212628
1740927227.4201248,None,None,-0.0006464344482421946,-0.05828444521484377,-0.04746564885496163,-0.001489100472295993,-0.00011247589892981565,0.08905588847933707
1740927227.4321213,None,None,-0.0916260975341796,-0.06067864687500002,-1.627618320610687,-0.0015612603109513485,-0.00011771320401899385,0.08262576196669237
1740927227.4445553,None,None,0.004141968872070301,0.12846328427734374,-0.1696030534351145,-0.0015643189744095785,-0.00011772689321735773,0.08195338612105764
1740927227.4587522,None,None,0.008930372192382796,0.07100244443359374,-0.08563358778625929,-0.001563958152263397,-0.00011749908157710908,0.0816125907562533
1740927227.4740436,None,None,-0.026982652709960808,0.0039647979492187235,-0.2306717557251905,-0.0015915988644220381,-0.0001198567131992885,0.08069891264486925
1740927227.4893882,None,None,0.004141968872070301,0.018330007910156265,0.10520610687022924,-0.001596117057761106,-0.000120328067537002,0.08111174651362459
1740927227.5043113,None,None,0.020901380493164146,0.039877822851562494,-0.10090076335877862,-0.0015862502539395703,-0.00011914935655672842,0.08071061535210014
1740927227.5270143,None,None,0.174130286743164,-0.08701486513671874,0.04413740458015303,-0.0014543271708675363,-0.00010625547643551226,0.08088231378616477
1740927227.541138,None,None,0.042449195434570264,-0.03194822695312499,1.975435114503817,-0.0014361761434668414,-0.00010685765280667105,0.0886821670050736
1740927227.5588942,None,None,-0.03416525769042966,0.02311841123046876,0.17390839694656512,-0.0014704934914649907,-0.00011038401676631591,0.08936776690327604
1740927227.5739734,None,None,-0.05810727429199214,-0.15884091494140623,-0.1848702290076334,-0.0015224758784223517,-0.00011517850301786441,0.08863641637809715
1740927227.5957658,None,None,-0.065289879272461,-0.019977218652343753,-1.8031908396946563,-0.0015728750078725332,-0.00011782447955624258,0.08151304427891781
1740927227.611797,None,None,-0.03416525769042966,0.027906814550781256,2.0517709923664125,-0.0016170462147125086,-0.00012454735555448242,0.08961458263243643
1740927227.6267316,None,None,0.013718775512695291,0.04466622617187499,0.11283969465648869,-0.0016136070435423223,-0.00012432500176711206,0.09005920477107127
