timestamp,gps_lat,gps_lng,imu_accel_x,imu_accel_y,imu_gyro_z,estimated_x,estimated_y,estimated_heading
1740927965.2421134,None,None,6.224924316411418e-05,-0.16063177778320303,0.16720610687022885,0.0,0.0,0.0006080133629700981
1740927965.25555,None,None,-0.011908759057617235,0.006962338427734471,0.029801526717557092,-7.727231103096678e-08,-4.713597673048214e-11,0.0007505388517701304
1740927965.2680483,None,None,-0.0454275822998047,0.05005796831054693,0.11377099236641208,-7.720210609106851e-07,-5.539871659112059e-10,0.0012030339470342688
1740927965.2795296,None,None,0.019215862524414096,0.12188401811523444,0.006900763358778761,-9.187277621734443e-07,-6.769412069862826e-10,0.0012398335133186266
1740927965.2913911,None,None,-0.004726154077148381,-0.024162283154296804,0.1290381679389312,-1.412467976252812e-06,-1.4710550009568998e-09,0.001751876265363044
1740927965.3096683,None,None,0.012033257543945242,0.1194898164550782,-1.733557251908397,-8.973386679991377e-07,6.748515595203615e-09,-0.005060070395370602
1740927965.3378243,None,None,0.019215862524414096,0.03808696000976569,0.09850381679389297,-5.835869467180324e-07,6.8668564092684695e-09,-0.004684097879661115
1740927965.3519752,None,None,-0.014302960717773372,-0.17499698774414052,0.15193893129770997,-1.3898664572567848e-06,7.257009454632215e-09,-0.004092824570933194
1740927965.3658924,None,None,0.0551288874267577,-0.06965211469726557,-0.031267175572519346,9.832176719640226e-07,1.2667403516999106e-09,-0.004222391256248482
1740927965.3835435,None,None,0.026398467504882728,-0.01937387983398431,-0.15340458015267178,2.696088871798532e-06,-4.266284401616049e-09,-0.004834483460081751
1740927965.406227,None,None,-0.021485565698242226,-0.17499698774414052,-0.0847022900763359,1.9708422497326285e-06,-3.074404218262945e-09,-0.0051747134807166185
1740927965.4209018,None,None,-0.031062372338867217,0.0285101533691407,1.915297709923664,2.513217762198841e-07,7.094477790808891e-09,0.002412320074442179
1740927965.4333012,None,None,0.021610064184570232,-0.002614468212890575,0.09087022900763353,1.8015312622288286e-06,3.469100025402327e-09,0.002774450779075408
1740927965.4458513,None,None,-0.023879767358398363,0.05484637163085945,-0.12287022900763356,2.382180986114912e-07,7.048044359173593e-09,0.002288716718553887
1740927965.4645722,None,None,0.031186870825195223,-0.07204631635742181,-1.7564580152671758,2.7586060236158286e-06,-4.980195153256196e-10,-0.004681676082702112
1740927965.4784234,None,None,0.03836947580566408,-0.09598833295898429,0.12140458015267175,6.4128850512913075e-06,-6.7649049763455354e-09,-0.004201955950005521
1740927965.492365,None,None,0.0144274592041016,0.0021739351074219204,0.1595725190839694,8.473768894721986e-06,-1.1447856806464023e-08,-0.003570059948830601
1740927965.5040603,None,None,-0.08373480886230467,0.021327548388671957,0.2969770992366412,1.2395286514312698e-06,6.747323563411507e-09,-0.002391715864142615
1740927965.5159354,None,None,0.05752308908691406,-0.060075308056640575,-1.7946259541984735,6.900051143183631e-06,-2.5655619386218393e-08,-0.009523529132932855
1740927965.536027,None,None,-0.06697539724121104,0.014144943408203214,0.06033587786259531,2.9978233241318176e-07,-7.914664404198124e-09,-0.00928701005742879
1740927965.55368,None,None,0.03358107248535158,0.009356540087890719,0.19010687022900763,4.073459323161383e-06,-1.838717328381503e-08,-0.008534309550370512
1740927965.570622,None,None,6.224924316411418e-05,0.016539145068359462,0.05270229007633587,4.367549450692995e-06,-1.9310443053313946e-08,-0.008327314379692292
1740927965.5819528,None,None,-0.00712035573730474,0.04287536333007819,0.04506870229007642,3.7725410925763376e-06,-1.5785647601567302e-08,-0.008150421782319874
1740927965.5980856,None,None,-0.01669716237792973,0.023721750048828205,2.0756030534351146,2.171450938861018e-06,2.1770512948749392e-08,0.00010073606253253702
1740927965.6101863,None,None,0.0144274592041016,-0.06486371137695307,2.083236641221374,4.453418739101767e-06,3.7639756983494256e-08,0.008385182877842264
1740927965.6216023,None,None,0.04315787912597657,0.021327548388671957,-1.7564580152671758,1.0351619963098256e-05,-2.511655900873692e-09,0.001401808976896222
1740927965.640332,None,None,0.05273468576660156,0.12427821977539069,2.0069007633587788,1.8932935152022474e-05,7.3094003039912884e-09,0.009384123262737064
1740927965.6518288,None,None,6.224924316411418e-05,-0.002614468212890575,0.029801526717557092,2.0070317547146326e-05,2.3737772339587368e-08,0.009504727320809677
1740927965.6635776,None,None,0.009639055883789105,0.021327548388671957,0.26644274809160295,2.2756674021884357e-05,4.466512464234662e-08,0.010566549067967229
1740927965.6833882,None,None,0.002456450903320251,0.0285101533691407,0.014534351145038205,2.4369932270769663e-05,6.238412048493144e-08,0.010626490913654585
1740927965.694996,None,None,0.019215862524414096,-0.03852749311523429,0.08323664122137409,2.880917087069768e-05,8.633625850235525e-08,0.010959654708973381
1740927965.706602,None,None,-0.0502159856201172,0.033298556689453196,-0.03890076335877879,2.1698610200469537e-05,8.497468522152638e-08,0.010806940217594044
1740927965.7203588,None,None,0.0048506525634766096,-0.01697967817382806,-0.07706870229007645,2.344482313972681e-05,9.432911267598131e-08,0.010502283504399319
1740927965.7327049,None,None,-0.031062372338867217,0.05963477495117195,2.0221679389312976,1.977458046297872e-05,1.847199251933934e-07,0.018548682535663844
1740927965.7438743,None,None,0.026398467504882728,0.009356540087890719,-0.04653435114503823,2.5274431088066054e-05,2.1651755531351184e-07,0.018366677686269147
1740927965.7614796,None,None,-0.004726154077148381,-0.00022026655273432727,0.09087022900763353,2.5335404006121005e-05,2.3307000106793838e-07,0.01873117487899461
1740927965.77297,None,None,0.019215862524414096,0.026115951708984453,1.9763664122137403,3.0919929971461824e-05,3.8523551932013803e-07,0.02659664378990847
1740927965.784272,None,None,0.028792669165039086,-0.03852749311523429,-0.06180152671755712,3.7658686760506656e-05,4.588035790148743e-07,0.026354897517489588
1740927965.7993133,None,None,-0.014302960717773372,0.026115951708984453,0.09087022900763353,3.611141937478044e-05,4.7459189538568063e-07,0.02672036667581996
1740927965.8108773,None,None,0.016821660864257737,0.009356540087890719,-0.14577099236641233,4.072242460544578e-05,5.351087046875436e-07,0.02614437924027524
1740927965.8221726,None,None,0.0144274592041016,-0.01937387983398431,-0.07706870229007645,4.5111018121517554e-05,6.023409556756057e-07,0.025841523345153362
1740927965.8337402,None,None,0.019215862524414096,0.0021739351074219204,0.06796946564885475,5.0848837274047455e-05,7.010963752028529e-07,0.026115513247112133
1740927965.8479638,None,None,0.007244854223632746,-0.009797073193359318,0.06033587786259531,5.419705123621046e-05,7.732189268027416e-07,0.026359088274114963
1740927965.8600283,None,None,-0.011908759057617235,0.023721750048828205,-0.29080916030534354,5.3049103434711927e-05,7.523009957723355e-07,0.02520577845336674
1740927965.8718655,None,None,0.05752308908691406,-0.1486607694824218,0.20537404580152674,6.821063264656419e-05,1.0164233621883564e-06,0.02602600631129395
1740927965.8855355,None,None,-0.014302960717773372,0.014144943408203214,0.029801526717557092,6.707520345811024e-05,1.0224108997751198e-06,0.02614787333634155
1740927965.8985224,None,None,-0.033456573999023576,0.030904355029296948,-0.09233587786259534,6.102052415717439e-05,9.285482432571347e-07,0.025783866171930712
1740927965.9109807,None,None,0.05273468576660156,-0.026556484814453052,-0.031267175572519346,7.571308416471414e-05,1.187386357319639e-06,0.02566266239957518
1740927965.9266903,None,None,0.002456450903320251,0.0285101533691407,0.06796946564885475,7.867967349928111e-05,1.2609912162353892e-06,0.025936096450333776
1740927965.9377584,None,None,-0.004726154077148381,-0.00022026655273432727,0.17483969465648852,7.996206908623836e-05,1.3177021807936828e-06,0.026634561039851602
1740927965.949629,None,None,-0.011908759057617235,-0.009797073193359318,0.18247328244274796,7.93369629404897e-05,1.340631932433532e-06,0.0273634013054453
1740927965.9647188,None,None,6.224924316411418e-05,0.062028976611328196,0.09087022900763353,8.160947093422419e-05,1.405968680291951e-06,0.027727946702617447
1740927965.9764693,None,None,6.224924316411418e-05,-0.03134488813476555,-0.11523664122137411,8.367740960023138e-05,1.4384196270659686e-06,0.0272727995852098
1740927965.9879496,None,None,-0.06936959890136718,-0.14147816450195305,1.9305648854961832,6.909325314137292e-05,1.436488902975082e-06,0.034953317012014325
1740927966.0018194,None,None,0.031186870825195223,0.006962338427734471,0.16720610687022885,7.933793703480113e-05,1.684238759969888e-06,0.03562218435995102
1740927966.0138872,None,None,0.04555208078613271,-0.03852749311523429,-0.09233587786259534,9.375198522885101e-05,1.997465195927942e-06,0.03525897737269925
1740927966.026689,None,None,0.040763677465820214,0.0572405732910157,0.06796946564885475,0.00010761598726873762,2.339624251750534e-06,0.0355331152002652
1740927966.0425925,None,None,-0.06458119558105468,-0.01937387983398431,-0.09996946564885523,9.155636899043519e-05,1.9752694167549024e-06,0.03513945916721639
1740927966.0543654,None,None,-0.03585077565917971,-0.024162283154296804,-0.06180152671755712,8.305639679602364e-05,1.7716630063990095e-06,0.034897475722618636
1740927966.0657234,None,None,0.059917290747070195,-0.06725791303710932,-0.023633587786259458,0.00010241890848798197,2.241288291772907e-06,0.034807174257454526
1740927966.0827081,None,None,-0.0023319524169922445,0.07399998491210943,-0.0007328244274811269,0.0001039927457116191,2.289092953310086e-06,0.03480786477786273
1740927966.0942812,None,None,0.031186870825195223,0.014144943408203214,-0.016000000000000014,0.00011568295751894655,2.589790929298725e-06,0.03474781269389073
1740927966.1063752,None,None,-0.1842912785888673,-0.17260278608398427,-0.1381374045801529,6.156079136292647e-05,1.1698175157946811e-06,0.034202163049278894
1740927966.1260848,None,None,0.026398467504882728,0.016539145068359462,0.006900763358778761,7.06070134881986e-05,1.3927415122014942e-06,0.03423299188934505
1740927966.1375082,None,None,0.20596359201660142,-0.012191274853515566,0.21300763358778618,0.00013662572025614208,3.1829346519610165e-06,0.035083074579385594
1740927966.1493678,None,None,-0.014302960717773372,0.026115951708984453,0.06033587786259531,0.00013519492745467975,3.167095165543189e-06,0.035326322631224275
1740927966.166389,None,None,0.028792669165039086,0.062028976611328196,0.09087022900763353,0.00014746673578032852,3.5312958216948084e-06,0.03569091469423344
1740927966.1787004,None,None,-0.033456573999023576,-0.01697967817382806,0.21300763358778618,0.00014008520365780264,3.3810291727652734e-06,0.03654093832547304
1740927966.1906796,None,None,0.007244854223632746,0.11709561479492195,0.11377099236641208,0.00014550439813072521,3.566526675640829e-06,0.03699657841102318
1740927966.206651,None,None,6.224924316411418e-05,0.030904355029296948,0.2282748091603053,0.0001488078565237749,3.7209566238966347e-06,0.03790727655690299
1740927966.2181733,None,None,-0.00712035573730474,0.05005796831054693,0.05270229007633587,0.00014947944237687845,3.7607225320333285e-06,0.03812026680439511
1740927966.2297173,None,None,0.16047376047363282,-0.026556484814453052,0.006900763358778761,0.00020659351012909313,5.456754376375484e-06,0.03815122366732917
1740927966.2433906,None,None,0.009639055883789105,0.016539145068359462,-1.748824427480916,0.00021168747639598514,5.174327502045384e-06,0.031205420744754346
1740927966.2562916,None,None,0.016821660864257737,-0.16302597944335928,2.052702290076336,0.00022523715921649856,6.1311092660247105e-06,0.039364538030665676
1740927966.2677047,None,None,-0.02627396901855472,-0.024162283154296804,-0.06180152671755712,0.00022071086242659676,6.001215763670117e-06,0.03912255111675527
1740927966.286191,None,None,0.019215862524414096,0.07160578325195319,-0.031267175572519346,0.00023185550860113256,6.35286737998783e-06,0.03900182780283867
1740927966.299982,None,None,-0.08134060720214853,0.030904355029296948,-0.06180152671755712,0.00020772651228369055,5.594987382357197e-06,0.03875974715339155
1740927966.3122852,None,None,-0.02627396901855472,-0.021768081494140556,-0.023633587786259458,0.00020230597684074995,5.41812707431361e-06,0.03866924788591321
1740927966.3258913,None,None,0.040763677465820214,0.0021739351074219204,-0.00836641221374057,0.0002206519716178163,5.996639678725235e-06,0.03863935849832986
1740927966.3395028,None,None,0.03358107248535158,-0.033739089794921795,-0.18393893129771,0.00023657934729626393,6.442425674998746e-06,0.037911981122270386
1740927966.3627484,None,None,0.031186870825195223,-0.002614468212890575,1.8847633587786259,0.0002559311109893596,7.753088208027898e-06,0.045401951622190656
1740927966.3757033,None,None,0.012033257543945242,0.11230721147460945,0.029801526717557092,0.00026509781920268,8.10217381497797e-06,0.045524344883125685
1740927966.3873394,None,None,0.016821660864257737,0.052452169970703205,-0.19920610687022888,0.0002757433883870713,8.414439644568617e-06,0.044737110730071264
1740927966.4072316,None,None,0.019215862524414096,0.04287536333007819,-1.8098931297709924,0.00028423282448661075,7.995818370326663e-06,0.03755258116944148
1740927966.4186342,None,None,-0.00712035573730474,-0.01937387983398431,0.35041221374045795,0.0002875821960011261,8.240694035416695e-06,0.03894726034850446
1740927966.431713,None,None,-0.01669716237792973,-0.01937387983398431,-0.04653435114503823,0.00028643773066779787,8.169757899308809e-06,0.038765588460536446
1740927966.4477508,None,None,-0.0023319524169922445,-0.16542018110351553,0.04506870229007642,0.00029077649804460135,8.324183720097773e-06,0.038947646016457026
1740927966.4597955,None,None,-0.05261018728027356,-0.17020858442382802,-0.09996946564885523,0.0002756479479679348,7.735237349121896e-06,0.038553739683946674
1740927966.4736173,None,None,0.021610064184570232,-0.14626656782226555,0.09850381679389297,0.000288855799778261,8.219494803065424e-06,0.038947878596810016
1740927966.4866643,None,None,-0.0454275822998047,-0.026556484814453052,1.9534656488549618,0.0002807069611497509,8.85804875854935e-06,0.04670740768780783
1740927966.4979246,None,None,-0.01669716237792973,0.062028976611328196,0.16720610687022885,0.000279095099191329,8.890984243516998e-06,0.047375170940308055
1740927966.5126426,None,None,-0.01669716237792973,-0.021768081494140556,0.1595725190839694,0.00027731045594606266,8.911714137913318e-06,0.04801263666979523
1740927966.5269606,None,None,0.03836947580566408,-0.03134488813476555,0.26644274809160295,0.0002971682939937002,9.774193450396056e-06,0.04907439647135998
1740927966.542337,None,None,0.02400426584472659,0.05484637163085945,-1.7793587786259542,0.0003070250578096598,9.233612512621138e-06,0.042014504481745686
1740927966.558187,None,None,0.03597527414550772,0.026115951708984453,-0.04653435114503823,0.0003260055698716014,9.893920692570812e-06,0.041832959833659485
1740927966.5708058,None,None,-0.031062372338867217,-0.002614468212890575,-0.06943511450381701,0.0003187205802323231,9.561991495812285e-06,0.04156046599775136
1740927966.5834177,None,None,-0.0502159856201172,-0.009797073193359318,-0.1381374045801529,0.00030334927330488644,8.881575262121565e-06,0.041015216364803216
1740927966.5956275,None,None,-0.01669716237792973,-0.1390839628417968,0.10613740458015264,0.00030151421383636416,8.838053199808016e-06,0.041439480677655814
1740927966.6114306,None,None,0.002456450903320251,0.011750741748046967,-0.19157251908396944,0.00030651346787237193,8.88761364369041e-06,0.04068212176792817
1740927966.6239817,None,None,-0.023879767358398363,-0.00022026655273432727,-1.7182900763358777,0.000297235279214054,7.524378668142318e-06,0.033865325791327956
1740927966.6411955,None,None,-0.055004388940429694,-0.009797073193359318,-0.237374045801527,0.00027880071471190733,6.626737732802126e-06,0.032925324423288896
1740927966.6526585,None,None,0.03836947580566408,-0.00022026655273432727,-0.07706870229007645,0.00029822488856793915,7.257246367006961e-06,0.032621411847630344
1740927966.6644893,None,None,0.016821660864257737,0.0859709932128907,-1.733557251908397,0.00030525204974745317,6.450736747603606e-06,0.02574391715463245
1740927966.6798146,None,None,0.002456450903320251,0.01893334672851571,-0.0007328244274811269,0.0003108345624292123,6.5713307210304034e-06,0.025742070984852438
1740927966.6924646,None,None,0.0144274592041016,-0.03134488813476555,-0.2297404580152671,0.0003208272373570921,6.7183492828263115e-06,0.02483150838113507
1740927966.7038655,None,None,-0.00712035573730474,-0.1342955595214843,0.18247328244274796,0.00032310020286803687,6.822234799135785e-06,0.02555646971319076
1740927966.7179346,None,None,0.002456450903320251,0.004568136767578224,-0.09233587786259534,0.0003286147288994364,6.882471156405705e-06,0.02519112194439359
1740927966.7314646,None,None,0.019215862524414096,0.035692758349609444,0.17483969465648852,0.0003417739917651212,7.380382016543568e-06,0.02588575943642262
1740927966.743369,None,None,-0.033456573999023576,0.03808696000976569,0.06796946564885475,0.0003329605976932157,7.027124011714155e-06,0.026156449614319906
1740927966.7576005,None,None,0.002456450903320251,0.12427821977539069,-0.11523664122137411,0.00033839006195406226,7.072080823362375e-06,0.025700339413173373
1740927966.772962,None,None,0.16526216379394532,-0.16781438276367178,0.08323664122137409,0.00041241580090164385,9.648741823904035e-06,0.02603153047598039
1740927966.7854936,None,None,0.019215862524414096,-0.021768081494140556,0.11377099236641208,0.0004268236528391395,1.0132548774936069e-05,0.026483863062538106
1740927966.7987516,None,None,-0.004726154077148381,-0.03134488813476555,0.04506870229007642,0.0004312086955079957,1.0224195847573042e-05,0.026663700822158205
1740927966.8350272,None,None,0.03358107248535158,0.0021739351074219204,0.006900763358778761,0.00045162177016431706,1.0843538839160753e-05,0.02669214860969388
1740927966.8593018,None,None,0.026398467504882728,0.09794200151367194,0.11377099236641208,0.00046961065357369524,1.1448656946016873e-05,0.027144474507136414
1740927966.876321,None,None,0.019215862524414096,-0.021768081494140556,-0.12287022900763356,0.0004842205270834171,1.1770028692080266e-05,0.026658259475315083
1740927966.9178448,None,None,0.0048506525634766096,0.045269564990234434,0.25117557251908385,0.0004939381428905661,1.2191746974437878e-05,0.02765547640631467
1740927966.9297898,None,None,-0.014302960717773372,-0.03613329145507804,-1.7793587786259542,0.0004901858162616815,1.0647872609248024e-05,0.02059990255865045
1740927966.946797,None,None,-0.00712035573730474,-0.012191274853515566,-1.7640916030534353,0.0004894722450777008,9.143554145052821e-06,0.013604295504057212
1740927966.9629,None,None,0.021610064184570232,-0.04810429975585928,-0.19920610687022888,0.0005052959993553792,9.336491891175054e-06,0.012813779218366328
1740927966.978527,None,None,-0.004726154077148381,-0.002614468212890575,0.029801526717557092,0.0005107458993345334,9.363029043083322e-06,0.012931313462007857
1740927966.990693,None,None,-0.0454275822998047,-0.01697967817382806,-0.09233587786259534,0.0004984596027314917,8.736929978734387e-06,0.012564557177987986
1740927967.0062768,None,None,0.021610064184570232,0.06442317827148444,0.1595725190839694,0.0005152407075032746,9.238136092879848e-06,0.013196619446824709
1740927967.0189505,None,None,-0.01669716237792973,-0.0289506864746093,-0.0007328244274811269,0.0005153573656959043,9.094653890280267e-06,0.013193137612771683
1740927967.030515,None,None,-0.00712035573730474,-0.01937387983398431,-0.016000000000000014,0.0005194389877504243,9.06441960374051e-06,0.013129129681477907
1740927967.0469055,None,None,-0.014302960717773372,0.006962338427734471,0.10613740458015264,0.0005207680856114585,9.064960181318754e-06,0.013549353752107784
1740927967.061564,None,None,-0.009514557397460877,0.0021739351074219204,1.9076641221374044,0.0005293558867444644,1.0903384921222967e-05,0.021111770139353975
1740927967.0730686,None,None,-0.0502159856201172,-0.17260278608398427,0.2969770992366412,0.000515547169327481,1.0703550158167044e-05,0.022289506618553622
1740927967.0887587,None,None,0.0144274592041016,-0.17978539106445307,0.08323664122137409,0.0005285866185175941,1.1086816483801217e-05,0.02262002925817247
1740927967.1016738,None,None,-0.023879767358398363,-0.17739118940429677,0.11377099236641208,0.0005253256399959155,1.1039256421596671e-05,0.023071614948322276
1740927967.1143773,None,None,-0.021485565698242226,0.0021739351074219204,0.4191145038167938,0.0005238361515878917,1.133521898432128e-05,0.02473358865926498
1740927967.1278327,None,None,0.0144274592041016,-0.13668976118164056,0.05270229007633587,0.000536616851414381,1.1695784902466878e-05,0.024943328418643693
1740927967.1420422,None,None,-0.019091364038085867,0.05005796831054693,0.09087022900763353,0.0005351444682502644,1.1696190598037728e-05,0.025304361815635255
1740927967.155818,None,None,0.03358107248535158,0.05005796831054693,-1.8175267175572518,0.000550689404914928,1.0333640608801216e-05,0.018101522847326038
1740927967.188128,None,None,0.0048506525634766096,0.04048116166992194,-0.03890076335877879,0.0005594462524384017,1.0460642567335574e-05,0.017947335561418833
1740927967.2267158,None,None,-0.03585077565917971,0.004568136767578224,0.08323664122137409,0.0005509848262872332,1.0237433158132511e-05,0.018277189624261756
1740927967.2388096,None,None,-0.031062372338867217,0.016539145068359462,-0.04653435114503823,0.0005439570940033889,9.934976134627093e-06,0.018092783231281127
1740927967.2530906,None,None,-0.004726154077148381,0.009356540087890719,-1.7259236641221376,0.0005431667794191428,8.12837723750719e-06,0.011253069139581923
1740927967.2667465,None,None,-0.03585077565917971,0.006962338427734471,-0.05416793893129768,0.0005338919030054933,7.745709419196313e-06,0.01103754393014709
1740927967.2820103,None,None,-0.019091364038085867,0.03808696000976569,0.04506870229007642,0.0005319353058461739,7.66490037360136e-06,0.011215247665439194
1740927967.2976587,None,None,-0.004726154077148381,0.07160578325195319,2.0221679389312976,0.0005418711912613059,9.900640716345963e-06,0.019227263447279513
1740927967.3153665,None,None,0.016821660864257737,0.021327548388671957,-0.06180152671755712,0.0005549422122040288,1.0123372013099297e-05,0.01898254585224452
1740927967.3385293,None,None,-0.09091741384277352,0.006962338427734471,-0.06943511450381701,0.0005212626312894747,9.1703570067311e-06,0.018707557754049305
1740927967.3565905,None,None,-0.028668170678710858,0.08836519487304695,0.022167938931297648,0.0005142672576688604,8.984639294715856e-06,0.018795484669619986
1740927967.3687754,None,None,-0.03585077565917971,0.12427821977539069,0.22064122137404585,0.0005044912178974607,8.93818894036274e-06,0.019669767609429876
1740927967.3867435,None,None,0.002456450903320251,-0.024162283154296804,0.2740763358778626,0.0005112541579723073,9.354486085189088e-06,0.020755834632172315
1740927967.3998733,None,None,-0.014302960717773372,0.12427821977539069,-0.12287022900763356,0.0005096126383764481,9.164368142321865e-06,0.020269407873069387
1740927967.4131122,None,None,-0.004726154077148381,0.12427821977539069,-0.34424427480916053,0.0005114425264791679,8.83545250123079e-06,0.01890593497193068
1740927967.428247,None,None,-0.01669716237792973,0.04287536333007819,2.083236641221374,0.0005145416783915446,1.0985049418155685e-05,0.027158736573434292
1740927967.44152,None,None,0.028792669165039086,-0.021768081494140556,0.17483969465648852,0.0005321124179697253,1.1565138641798026e-05,0.027852505444688355
1740927967.45553,None,None,-0.023879767358398363,0.11230721147460945,-0.03890076335877879,0.0005263600117063268,1.1372600537357944e-05,0.027699655575656155
1740927967.4697332,None,None,0.009639055883789105,0.030904355029296948,0.20537404580152674,0.0005356694370717083,1.1785982299742095e-05,0.02851437618088552
1740927967.484429,None,None,-0.03824497731933607,-0.10556513959960928,-0.06180152671755712,0.0005234757678801138,1.1413717963449796e-05,0.028270886965741128
1740927967.4994361,None,None,0.0048506525634766096,0.009356540087890719,-0.06943511450381701,0.0005297747841832355,1.1482197808366637e-05,0.027997124803665823
1740927967.510898,None,None,-0.03824497731933607,-0.005008669873046823,-0.19157251908396944,0.0005170170936744598,1.0965652184568035e-05,0.027239567850184557
1740927967.53131,None,None,-0.03585077565917971,0.023721750048828205,0.05270229007633587,0.0005056214508855408,1.0719208505010929e-05,0.027449403190746752
1740927967.5439875,None,None,0.012033257543945242,-0.005008669873046823,0.1595725190839694,0.0005150804377733417,1.1087069926611756e-05,0.02808250849388053
1740927967.5556786,None,None,0.012033257543945242,0.016539145068359462,-0.30607633587786287,0.0005235221166923364,1.0984434366119237e-05,0.026871515902106947
1740927967.570817,None,None,-0.08612901052246102,-0.00740287153320307,-0.18393893129771,0.0004895307373247788,9.950907385105285e-06,0.026144085521650633
1740927967.5831654,None,None,-0.00712035573730474,0.12427821977539069,2.0756030534351146,0.0004943643024467893,1.200253309436719e-05,0.034364714674419164
1740927967.597761,None,None,-0.0023319524169922445,0.08357679155273445,-1.8175267175572518,0.0004926306189606093,1.0244590334167514e-05,0.027169209713470383
1740927967.6099212,None,None,-0.021485565698242226,-0.005008669873046823,0.17483969465648852,0.0004868620720826233,1.0241221258730083e-05,0.027862578056241066
1740927967.6268115,None,None,0.012033257543945242,-0.1534491728027343,-0.237374045801527,0.0004946755515040464,1.0202585398904214e-05,0.026923715233427875
1740927967.6391647,None,None,0.03836947580566408,-0.15105497114257804,-0.15340458015267178,0.0005142247108060758,1.0539639169881958e-05,0.02631723796770012
1740927967.6507313,None,None,-0.021485565698242226,0.01893334672851571,0.09850381679389297,0.0005084231163299004,1.0464193072499635e-05,0.0267081439082851
1740927967.667635,None,None,-0.0502159856201172,0.023721750048828205,-1.7717251908396947,0.00048636700464431307,8.335347751106205e-06,0.019693924400557398
1740927967.6798537,None,None,-0.04782178395996106,0.1147014131347657,-0.11523664122137411,0.0004681934775545064,7.772498506608747e-06,0.01923762950615909
1740927967.69842,None,None,0.0551288874267577,0.03808696000976569,0.1443053435114503,0.0004950197616321485,8.56102171525889e-06,0.019808885433463066
1740927967.7139206,None,None,0.0144274592041016,-0.055286904736328024,0.3885801526717556,0.0005048639019129792,9.125340777631597e-06,0.02134732949043249
1740927967.7264209,None,None,-0.02627396901855472,-0.002614468212890575,0.006900763358778761,0.0004963564804061903,8.912076300905968e-06,0.02137484379793322
1740927967.7390878,None,None,0.007244854223632746,-0.03134488813476555,0.07560305343511464,0.0005023659130173839,9.113655414020993e-06,0.02167434899785625
1740927967.7518008,None,None,-0.014302960717773372,-0.04571009809570303,-0.05416793893129768,0.0004987889523500104,8.973670485371732e-06,0.02146013903276564
1740927967.7633882,None,None,0.019215862524414096,0.023721750048828205,-0.016000000000000014,0.0005097643000444587,9.22043348851918e-06,0.0213970010656012
1740927967.7751331,None,None,6.224924316411418e-05,-0.17978539106445307,0.1595725190839694,0.0005127593348994875,9.41193033511356e-06,0.02202888603273545
1740927967.7907553,None,None,0.0048506525634766096,0.10751880815429693,0.19774045801526707,0.0005178603314298421,9.682067406190968e-06,0.022811928387229573
1740927967.8023064,None,None,0.002456450903320251,0.026115951708984453,-0.0007328244274811269,0.0005216296425744147,9.763374410992218e-06,0.022809405117832898
1740927967.8140483,None,None,0.026398467504882728,-0.021768081494140556,-0.0007328244274811269,0.0005358337040275489,1.0095638867075018e-05,0.02280687755576204
1740927967.8300738,None,None,-0.014302960717773372,0.0285101533691407,0.17483969465648852,0.0005326857260215917,1.014405223294038e-05,0.02349930874140511
1740927967.8414483,None,None,0.002456450903320251,0.016539145068359462,-0.031267175572519346,0.0005364434403599396,1.0201585803877543e-05,0.02337600684830934
1740927967.8527281,None,None,-0.05739859060058605,-0.06965211469726557,0.1443053435114503,0.0005143157912832492,9.77077247817416e-06,0.023947615738590965
1740927967.8669453,None,None,-0.011908759057617235,-0.07204631635742181,0.04506870229007642,0.0005114708826061961,9.726940740307405e-06,0.024126507343280073
1740927967.879785,None,None,0.012033257543945242,-0.009797073193359318,-0.0007328244274811269,0.0005189009356680723,9.895091436045627e-06,0.02412413627980755
1740927967.8914945,None,None,0.02400426584472659,-0.012191274853515566,0.11377099236641208,0.0005317428792113235,1.0274482116700857e-05,0.0245749422249754
1740927967.9080625,None,None,0.059917290747070195,0.03808696000976569,-0.1381374045801529,0.0005601073010579037,1.084599419505445e-05,0.024028814331532013
1740927967.919819,None,None,0.04555208078613271,0.030904355029296948,0.037435114503816536,0.0005828034863041939,1.1406271623823769e-05,0.024177466391090613
1740927967.9323337,None,None,0.016821660864257737,0.1147014131347657,0.1443053435114503,0.0005933803586909796,1.1751566741891884e-05,0.02474907193519835
1740927967.9560258,None,None,-0.06458119558105468,0.030904355029296948,0.014534351145038205,0.0005683892279536996,1.1157659936710768e-05,0.024807177000550913
1740927967.9747143,None,None,-0.0023319524169922445,-0.014585476513671813,-0.0007328244274811269,0.0005700903473926302,1.119007680508836e-05,0.024804864891530297
1740927967.9916878,None,None,6.224924316411418e-05,0.021327548388671957,-0.09233587786259534,0.0005727103553992247,1.1182155901968212e-05,0.02444004860926093
1740927968.0122073,None,None,-0.014302960717773372,0.021327548388671957,0.029801526717557092,0.0005691685528229015,1.1110407616432031e-05,0.024558502936167452
1740927968.0341754,None,None,0.03358107248535158,0.052452169970703205,0.06033587786259531,0.0005864523414592355,1.1556713272817718e-05,0.024797792726770386
1740927968.0479944,None,None,-0.019091364038085867,-0.014585476513671813,-0.22210687022900766,0.0005806710773223084,1.126372099774449e-05,0.023919476092395052
1740927968.0658987,None,None,0.0048506525634766096,0.035692758349609444,0.006900763358778761,0.0005854293758364567,1.1375373282562187e-05,0.023947216036780516
1740927968.083461,None,None,0.050340484106445205,0.026115951708984453,-0.12287022900763356,0.0006099682371275197,1.1874319955726002e-05,0.023461470989965663
1740927968.1006258,None,None,-0.011908759057617235,-0.060075308056640575,-0.21447328244274821,0.0006075561462470226,1.1670197743965904e-05,0.02261321189612965
1740927968.1208615,None,None,-0.02627396901855472,0.0285101533691407,0.10613740458015264,0.0005990664916537229,1.1530771445769053e-05,0.02303340208074959
1740927968.1438668,None,None,-0.019091364038085867,-0.03852749311523429,1.8313282442748091,0.0005950487661319466,1.2613368355603377e-05,0.030279532914460457
1740927968.157638,None,None,0.016821660864257737,-0.002614468212890575,-0.05416793893129768,0.000604874085150722,1.2805810415753721e-05,0.030066522095999176
1740927968.169646,None,None,0.05273468576660156,0.009356540087890719,-0.15340458015267178,0.0006304407588359609,1.3317395226422934e-05,0.029460846933813727
1740927968.184539,None,None,-0.023879767358398363,-0.060075308056640575,-1.7030229007633588,0.0006215152586470741,1.201676671927154e-05,0.02272422569484878
1740927968.1966274,None,None,0.028792669165039086,0.021327548388671957,0.022167938931297648,0.000636992236209063,1.2398517030511843e-05,0.022812130483046988
1740927968.2100391,None,None,-0.019091364038085867,0.011750741748046967,0.014534351145038205,0.000631677171027222,1.2272896582896439e-05,0.02286984354764287
1740927968.2271733,None,None,-0.01669716237792973,-0.055286904736328024,2.029801526717557,0.0006289373836846157,1.3477805582027057e-05,0.030900239448643188
1740927968.24111,None,None,0.040763677465820214,-0.01937387983398431,2.029801526717557,0.0006511946707151793,1.5283657423099638e-05,0.038931616576889455
1740927968.2535765,None,None,0.012033257543945242,0.0021739351074219204,-0.031267175572519346,0.0006593919552645337,1.546998968489089e-05,0.03881039444853934
1740927968.2680078,None,None,0.0048506525634766096,0.0021739351074219204,-0.19157251908396944,0.0006643894222416114,1.5480983022681333e-05,0.038054974705673004
1740927968.281223,None,None,0.10540712229003901,-0.012191274853515566,-0.09996946564885523,0.0007136487742947186,1.6674273406505826e-05,0.037661802147961485
1740927968.2932687,None,None,0.1939925837158203,0.021327548388671957,0.3962137404580153,0.0008029825101768691,1.9240192454646057e-05,0.039231344852222357
1740927968.3199213,None,None,-0.014302960717773372,-0.00740287153320307,-0.14577099236641233,0.0008017035537843042,1.916678124424522e-05,0.03865712560859479
1740927968.3357716,None,None,-0.02627396901855472,-0.07204631635742181,0.20537404580152674,0.0007954065702112739,1.9179684830878154e-05,0.0394718095321055
1740927968.3573873,None,None,0.03597527414550772,-0.00740287153320307,-1.7946259541984735,0.0008144345521864092,1.8547281578731157e-05,0.03237543522840321
1740927968.3726203,None,None,-0.023879767358398363,-0.13668976118164056,0.12140458015267175,0.0008092745361902248,1.8505489621969918e-05,0.032856999793096996
1740927968.3911927,None,None,-0.028668170678710858,0.035692758349609444,0.2435419847328244,0.000801989219779577,1.8489258524703437e-05,0.0338217158672635
1740927968.4096682,None,None,0.0048506525634766096,0.10273040483398443,0.35041221374045795,0.00080940842940927,1.8950515574791684e-05,0.035209248647929244
1740927968.4269128,None,None,0.0048506525634766096,-0.012191274853515566,-0.031267175572519346,0.0008164677287776921,1.9143073760740672e-05,0.035087283802709396
1740927968.469214,None,None,6.224924316411418e-05,-0.0289506864746093,0.11377099236641208,0.0008216344704169549,1.9386259250994083e-05,0.03553894389996815
1740927968.482066,None,None,-0.014302960717773372,0.026115951708984453,-0.03890076335877879,0.0008203052354988892,1.9339966519921916e-05,0.03538679992649754
1740927968.4939768,None,None,-0.00712035573730474,0.006962338427734471,0.05270229007633587,0.0008221767361189634,1.944716917818076e-05,0.035596916685193485
1740927968.5135188,None,None,0.007244854223632746,-0.17499698774414052,0.037435114503816536,0.0008303488358074859,1.9722120252382035e-05,0.03574665894537786
1740927968.528188,None,None,0.03597527414550772,-0.00740287153320307,0.19010687022900763,0.0008514914914762462,2.048499206740665e-05,0.03650021483690913
1740927968.5475569,None,None,0.0048506525634766096,-0.1534491728027343,-0.031267175572519346,0.0008588536675301309,2.0693701597445993e-05,0.03637833234522754
1740927968.559183,None,None,0.050340484106445205,-0.009797073193359318,-0.09233587786259534,0.0008863467560346528,2.144192837811817e-05,0.036014895838304126
1740927968.5768886,None,None,0.019215862524414096,-0.00740287153320307,2.083236641221374,0.0009033562205154933,2.3582007434397098e-05,0.04425533750484491
1740927968.6045678,None,None,0.02400426584472659,0.0021739351074219204,0.006900763358778761,0.0009197969938916075,2.413504593273393e-05,0.04428546904814467
1740927968.6193094,None,None,-0.04782178395996106,0.0907593965332032,-1.7030229007633588,0.0009021037079479955,2.2291352391164596e-05,0.037553376362329756
1740927968.6311884,None,None,-0.023879767358398363,-0.026556484814453052,0.022167938931297648,0.000897259933813335,2.2180869953430116e-05,0.03764284457778122
1740927968.6432407,None,None,0.03358107248535158,-0.05049850141601553,-0.18393893129771,0.0009175148676058234,2.26657616426198e-05,0.03691724163368036
1740927968.6563256,None,None,-0.02627396901855472,0.011750741748046967,1.9458320610687023,0.0009146653911414993,2.4218933281516116e-05,0.044613709014795666
1740927968.6728196,None,None,0.04315787912597657,-0.012191274853515566,0.10613740458015264,0.0009396950319795208,2.5133239270795964e-05,0.045036194127025565
1740927968.6877985,None,None,-0.0023319524169922445,0.1147014131347657,0.05270229007633587,0.0009446962932006252,2.5384930086030616e-05,0.045247399560993135
1740927968.699151,None,None,-0.014302960717773372,0.006962338427734471,-1.6648549618320612,0.0009415535662197171,2.3884237186635994e-05,0.03866680344794147
1740927968.7197213,None,None,0.002456450903320251,-0.1438723661621093,-0.0847022900763359,0.0009484644585346514,2.404532556782583e-05,0.03833367083590316
1740927968.7323034,None,None,6.224924316411418e-05,0.011750741748046967,-0.22210687022900766,0.0009541151628254861,2.4040941547537904e-05,0.03745714431479695
1740927968.7524602,None,None,-0.033456573999023576,0.011750741748046967,-0.11523664122137411,0.000944980742936752,2.3642788166989378e-05,0.03700306451441787
1740927968.7691028,None,None,0.002456450903320251,0.0021739351074219204,-0.30607633587786287,0.0009513763467242657,2.3573989482759986e-05,0.03579430272045625
1740927968.7902386,None,None,0.012033257543945242,-0.00740287153320307,0.12140458015267175,0.0009628734138693217,2.4058550154370078e-05,0.03627565035392514
1740927968.8039567,None,None,-0.028668170678710858,0.045269564990234434,-0.17630534351145055,0.0009556738461962371,2.3651910416274735e-05,0.03557989760089876
1740927968.821559,None,None,0.040763677465820214,-0.012191274853515566,0.022167938931297648,0.0009798426526428977,2.4466698508359158e-05,0.03566879178246984
1740927968.8335783,None,None,6.224924316411418e-05,0.1194898164550782,-0.15340458015267178,0.000985701036368019,2.45086488847755e-05,0.035063484896574966
1740927968.8450248,None,None,-0.019091364038085867,0.030904355029296948,-0.03890076335877879,0.0009831811039184713,2.4375808515751036e-05,0.03491081448742355
1740927968.856669,None,None,0.0551288874267577,0.023721750048828205,0.006900763358778761,0.0010140741545379174,2.540495688234154e-05,0.03493920067363044
1740927968.8683524,None,None,-0.004726154077148381,0.006962338427734471,0.04506870229007642,0.0010184714194824492,2.5584271459211044e-05,0.035118485028026905
1740927968.8797894,None,None,-0.011908759057617235,0.052452169970703205,0.06033587786259531,0.0010196471785670616,2.5671137162896897e-05,0.03535814297566115
1740927968.8923807,None,None,-0.01669716237792973,0.021327548388671957,-0.0007328244274811269,0.0010184726499428349,2.561865378977953e-05,0.03535637506832331
1740927968.9052248,None,None,-0.014302960717773372,0.062028976611328196,2.083236641221374,0.0010225342379979608,2.7840637578752873e-05,0.04359382036965912
1740927968.9165113,None,None,-0.06936959890136718,-0.024162283154296804,-0.0847022900763359,0.0009970576697740099,2.6901790744686298e-05,0.04326126726800248
1740927968.9274213,None,None,0.0144274592041016,0.030904355029296948,-0.07706870229007645,0.0010091116881976558,2.724601982259853e-05,0.04295882065904783
1740927968.943046,None,None,0.03358107248535158,-0.00740287153320307,-0.03890076335877879,0.0010300640553284036,2.7940805886584858e-05,0.042807202379234376
1740927968.956717,None,None,0.002456450903320251,0.11709561479492195,-0.0007328244274811269,0.0010372130134177035,2.819821217384546e-05,0.04280643234570698
1740927968.9724238,None,None,-0.014302960717773372,-0.05768110639648433,-0.21447328244274821,0.0010363172299930432,2.7950246388999174e-05,0.04196063715184046
1740927968.9849262,None,None,0.04315787912597657,-0.07204631635742181,-0.11523664122137411,0.0010617314095428783,2.8733647986472572e-05,0.041507017444051005
1740927969.0118718,None,None,0.1700505671142578,0.009356540087890719,0.13667175572519086,0.0011459121003652634,3.18881817788033e-05,0.04204918216892423
1740927969.0304332,None,None,-0.004726154077148381,-0.1534491728027343,-0.10760305343511467,0.001151014977577825,3.1971494051681547e-05,0.04162571841829193
1740927969.0439153,None,None,-0.0502159856201172,0.1194898164550782,0.05270229007633587,0.0011356811000235907,3.14834351776207e-05,0.04183589573204564
1740927969.056667,None,None,0.009639055883789105,-0.012191274853515566,-0.03890076335877879,0.0011472028911151163,3.186589325327937e-05,0.04168395702133657
1740927969.0733216,None,None,0.03358107248535158,0.009356540087890719,0.022167938931297648,0.0011699448451872381,3.272674607886266e-05,0.041773388019356
1740927969.086185,None,None,0.026398467504882728,-0.00740287153320307,0.08323664122137409,0.0011898170486889415,3.35563145318003e-05,0.04210422046559012
1740927969.0990431,None,None,0.019215862524414096,0.04048116166992194,-1.748824427480916,0.0012021845213459313,3.202963317253639e-05,0.03519284284120001
1740927969.1172917,None,None,0.012033257543945242,-0.043315896435546786,-0.29080916030534354,0.0012150232103466192,3.2132016598364464e-05,0.03404403169727444
1740927969.1318321,None,None,-0.02627396901855472,0.011750741748046967,-1.7869923664122136,0.0012065720239861724,2.9680686950950683e-05,0.026980679141028037
1740927969.144736,None,None,-0.055004388940429694,-0.002614468212890575,0.16720610687022885,0.0011897228320656003,2.9173092859463764e-05,0.02764114722066141
1740927969.16128,None,None,0.0144274592041016,-0.002614468212890575,0.09087022900763353,0.0012043700482706654,2.974452647521145e-05,0.02799996556586849
1740927969.1782694,None,None,-0.014302960717773372,-0.04092169477539054,-0.05416793893129768,0.001205482751818649,2.964717670375024e-05,0.02778552411592299
1740927969.1925673,None,None,-0.004726154077148381,0.03808696000976569,0.19010687022900763,0.0012116075768772122,3.003262812330924e-05,0.028536630169473512
1740927969.210318,None,None,0.007244854223632746,-0.014585476513671813,0.20537404580152674,0.0012233160561760405,3.064602149559174e-05,0.029348194038165954
1740927969.2233672,None,None,-0.0023319524169922445,0.006962338427734471,0.18247328244274796,0.0012305934190073886,3.107722612109736e-05,0.030069354578785894
1740927969.2382467,None,None,0.012033257543945242,-0.01937387983398431,0.11377099236641208,0.0012443690128241035,3.166107424285238e-05,0.030519058311086603
1740927969.2618198,None,None,-0.023879767358398363,-0.014585476513671813,0.014534351145038205,0.0012412588339590373,3.1516286365162467e-05,0.030576576358860092
1740927969.280259,None,None,0.009639055883789105,-0.021768081494140556,0.1290381679389312,0.001253952564123674,3.2086604301462295e-05,0.031086693152233398
1740927969.2988632,None,None,0.04794628244628907,-0.002614468212890575,-0.023633587786259458,0.0012841944515359462,3.308642417796053e-05,0.030993430921081814
1740927969.3136897,None,None,-0.00712035573730474,-0.012191274853515566,-0.09996946564885523,0.0012888516915813642,3.3071021253913305e-05,0.030598431713596705
1740927969.353397,None,None,0.1293491388916015,0.033298556689453196,0.09087022900763353,0.0013579557418359732,3.559229282179116e-05,0.03095767262350534
1740927969.3692083,None,None,-0.019091364038085867,-0.00022026655273432727,-1.7793587786259542,0.0013528717421446117,3.2956300764157795e-05,0.023924894911189726
1740927969.3816774,None,None,-0.014302960717773372,0.0021739351074219204,0.13667175572519086,0.0013557528941371382,3.314382155148767e-05,0.024464146462839988
1740927969.4000232,None,None,0.012033257543945242,0.004568136767578224,-0.0847022900763359,0.0013702704150447514,3.3440569644852195e-05,0.02412852133642961
1740927969.4149477,None,None,-0.01669716237792973,0.026115951708984453,0.06033587786259531,0.0013718400395166075,3.348596017143146e-05,0.024366106658740422
1740927969.4304261,None,None,0.0144274592041016,0.10991300981445318,0.12140458015267175,0.0013881971904452753,3.413398944020256e-05,0.02484510200642419
1740927969.4434962,None,None,-0.004726154077148381,-0.1342955595214843,-1.7793587786259542,0.0013895321418151167,3.1535800801316055e-05,0.01781173376873964
1740927969.460347,None,None,0.0048506525634766096,-0.17739118940429677,0.1595725190839694,0.0014017488182167936,3.205480611169796e-05,0.018440595588584067
1740927969.4788816,None,None,-0.043033380639648566,-0.00022026655273432727,0.19774045801526707,0.001391477877974998,3.1884058432138924e-05,0.019220420355502348
1740927969.4957385,None,None,0.04315787912597657,0.12427821977539069,0.022167938931297648,0.0014212221959832903,3.279854917019391e-05,0.01930647335846393
1740927969.5107813,None,None,0.02400426584472659,0.014144943408203214,0.014534351145038205,0.0014421972817206656,3.340132203969348e-05,0.019362388392650216
1740927969.5235076,None,None,-0.03824497731933607,0.004568136767578224,0.10613740458015264,0.0014340807471747918,3.31941863178682e-05,0.01978036188412487
1740927969.5364454,None,None,-0.011908759057617235,0.045269564990234434,-1.8098931297709924,0.0014316069241275529,3.0229030040478553e-05,0.012625987065526471
1740927969.5483654,None,None,0.02400426584472659,-0.033739089794921795,-0.3289770992366412,0.001451457474601087,3.0212124751933242e-05,0.011323339490728675
1740927969.5600436,None,None,-0.019091364038085867,-0.024162283154296804,0.25117557251908385,0.001452985365591689,3.0515396630580452e-05,0.012313345519430387
1740927969.5783894,None,None,0.031186870825195223,-0.009797073193359318,0.05270229007633587,0.0014777566741773513,3.123346519456538e-05,0.012519149848236225
1740927969.5905209,None,None,-0.004726154077148381,0.045269564990234434,0.05270229007633587,0.0014855732489663894,3.142889576086831e-05,0.012725014647994281
1740927969.6042714,None,None,-0.04063917897949221,-0.026556484814453052,-1.802259541984733,0.0014693382936266464,2.7894725983953086e-05,0.005600134819195449
1740927969.6175826,None,None,0.031186870825195223,0.014144943408203214,-0.00836641221374057,0.0014940629830420304,2.8454620122750817e-05,0.005563654165418461
1740927969.6298966,None,None,-0.004726154077148381,-0.009797073193359318,0.07560305343511464,0.001502064566344133,2.8659794885026295e-05,0.0058590525928159665
1740927969.6421144,None,None,0.040763677465820214,0.006962338427734471,-1.8175267175572518,0.0015248695794581606,2.6106052668153473e-05,-0.0013269514500901664
1740927969.657771,None,None,-0.011908759057617235,0.009356540087890719,-0.237374045801527,0.0015286209376940392,2.5614879716269705e-05,-0.0022693816871416196
1740927969.670698,None,None,-0.06458119558105468,-0.03852749311523429,-0.17630534351145055,0.0015070619079682632,2.4562337927158176e-05,-0.002970561379002519
1740927969.6823206,None,None,-0.00712035573730474,-0.01937387983398431,-0.06180152671755712,0.0015133482821590534,2.4460521802441028e-05,-0.0032192903676359747
1740927969.700646,None,None,0.05273468576660156,-0.014585476513671813,0.09087022900763353,0.001549263268355639,2.536177646944331e-05,-0.0028646722929252764
1740927969.713548,None,None,-0.05261018728027356,0.023721750048828205,-0.15340458015267178,0.0015334072642003262,2.4555437039918203e-05,-0.0034752669336233608
1740927969.726728,None,None,-0.00712035573730474,-0.01937387983398431,-0.10760305343511467,0.0015395226444239116,2.4373264531298357e-05,-0.0039049020736041714
1740927969.7441115,None,None,0.031186870825195223,0.011750741748046967,-0.29080916030534354,0.0015635660729058254,2.426692548684705e-05,-0.005058528176128937
1740927969.7616627,None,None,0.040763677465820214,0.023721750048828205,0.07560305343511464,0.0015940282115123518,2.4931352662529698e-05,-0.004764317126715467
1740927969.7778337,None,None,-0.03824497731933607,0.011750741748046967,-0.14577099236641233,0.0015852581108354274,2.4341362147495395e-05,-0.005344805910660005
1740927969.7906075,None,None,-0.023879767358398363,0.016539145068359462,0.05270229007633587,0.0015840807524605284,2.4292515381451716e-05,-0.005141027934868863
1740927969.8033886,None,None,-0.0454275822998047,-0.00022026655273432727,-1.8098931297709924,0.0015645223618024726,2.0438963391016223e-05,-0.012297457422361824
1740927969.8169742,None,None,0.016821660864257737,-0.012191274853515566,-0.09996946564885523,0.0015823802160576535,2.0468061803137357e-05,-0.01269794379278999
1740927969.8281803,None,None,0.040763677465820214,0.01893334672851571,0.10613740458015264,0.001613028088662336,2.1095902880247994e-05,-0.012283974109287615
1740927969.8392189,None,None,0.028792669165039086,-0.05049850141601553,0.06033587786259531,0.0016378998451443375,2.150896669431354e-05,-0.012050863812291004
1740927969.8517299,None,None,-0.014302960717773372,-0.0289506864746093,-0.06943511450381701,0.0016411692371723122,2.130428993952786e-05,-0.012330448669073575
1740927969.8631523,None,None,-0.004726154077148381,-0.00740287153320307,0.06033587786259531,0.0016496416111547636,2.143849302443671e-05,-0.012097219066524348
1740927969.874368,None,None,0.1844157770751953,0.004568136767578224,0.022167938931297648,0.0017516941980970022,2.2861883508188434e-05,-0.012014712173263343
1740927969.8858602,None,None,0.03836947580566408,0.05005796831054693,0.037435114503816536,0.0017827210120046819,2.320798011314487e-05,-0.011871802141916969
1740927969.9022896,None,None,0.009639055883789105,0.12188401811523444,-0.0847022900763359,0.00179926057913597,2.309800694320864e-05,-0.012211428941634694
1740927969.9140608,None,None,0.02400426584472659,0.021327548388671957,0.006900763358778761,0.0018234797278474043,2.325775024385142e-05,-0.012189082973229477
1740927969.9259806,None,None,-0.0023319524169922445,-0.005008669873046823,-0.031267175572519346,0.001834616076662362,2.31740825761571e-05,-0.012317490189709821
1740927969.9408605,None,None,0.026398467504882728,-0.033739089794921795,0.28170992366412206,0.0018615610703370076,2.3913268850374586e-05,-0.011209163755955655
1740927969.9530897,None,None,0.03836947580566408,-0.052892703076171776,-0.06180152671755712,0.0018931626068303814,2.397681147810192e-05,-0.011457951142690376
1740927969.965253,None,None,0.040763677465820214,-0.005008669873046823,0.12140458015267175,0.0019271616890360619,2.442902093310543e-05,-0.010982808998371629
1740927969.9790392,None,None,0.0048506525634766096,-0.024162283154296804,-0.19157251908396944,0.0019420034856521646,2.401956980531401e-05,-0.01174421318460627
1740927969.9906425,None,None,0.04555208078613271,0.08836519487304695,-0.0007328244274811269,0.001978332425121356,2.419185025840193e-05,-0.011751611171234563
1740927970.0027084,None,None,0.016821660864257737,0.07878838823242193,0.014534351145038205,0.0020006638093868338,2.4268445337719418e-05,-0.01169863000978436
1740927970.018778,None,None,-0.011908759057617235,-0.012191274853515566,-0.05416793893129768,0.0020083431369260015,2.4081622700349846e-05,-0.011917047100473206
1740927970.0304148,None,None,0.007244854223632746,0.006962338427734471,2.0756030534351146,0.002036439967030186,2.8920637706980864e-05,-0.0037201990042018355
1740927970.0421274,None,None,0.0551288874267577,0.11709561479492195,0.029801526717557092,0.0020783930662508204,2.921797340866008e-05,-0.0036054844893651386
1740927970.0562491,None,None,0.02400426584472659,0.006962338427734471,-0.18393893129771,0.002103926184195447,2.8905522025548594e-05,-0.004335247907417831
1740927970.068345,None,None,0.028792669165039086,0.1194898164550782,2.0221679389312976,0.00214382636710801,3.393387666625273e-05,0.003651654644504591
1740927970.0801148,None,None,-0.0023319524169922445,-0.026556484814453052,-0.016000000000000014,0.0021572072101137202,3.4025421662951185e-05,0.00358665530050549
1740927970.096,None,None,-0.03585077565917971,0.05963477495117195,0.022167938931297648,0.0021537654771606792,3.412969248676259e-05,0.0036724748261636473
1740927970.107968,None,None,0.04315787912597657,-0.00022026655273432727,-0.05416793893129768,0.0021900282400162665,3.423395475341781e-05,0.0034567174208129246
1740927970.1199296,None,None,0.05273468576660156,0.04287536333007819,0.029801526717557092,0.002232051634102239,3.456883590981834e-05,0.0035727218969036027
1740927970.1353898,None,None,0.07667670236816404,-0.01937387983398431,-0.29080916030534354,0.0022849702010821105,3.4126754694690576e-05,0.002422002769516575
1740927970.146777,None,None,0.016821660864257737,0.016539145068359462,-0.06180152671755712,0.0023091671028243766,3.4129953147937785e-05,0.0021759563648106146
1740927970.158386,None,None,-0.07415800222167968,-0.00740287153320307,0.029801526717557092,0.0022873638050999413,3.418709907677851e-05,0.0022918228952810847
1740927970.1707878,None,None,-0.004726154077148381,-0.15823757612304679,0.09850381679389297,0.002301226472306627,3.457448667766955e-05,0.002679177466057615
1740927970.1821167,None,None,-0.019091364038085867,0.026115951708984453,-0.14577099236641233,0.00230622824626375,3.427582564489e-05,0.0021014771369853628
1740927970.1935046,None,None,0.02400426584472659,-0.01937387983398431,0.06033587786259531,0.0023346833482744745,3.461542877272361e-05,0.0023380420578227074
1740927970.2049775,None,None,-0.09091741384277352,0.026115951708984453,0.08323664122137409,0.0023040889586379626,3.4828647737374364e-05,0.002665143001748903
1740927970.2175205,None,None,0.0144274592041016,0.006962338427734471,-0.00836641221374057,0.0023268675518830846,3.496457801492541e-05,0.0026303970552845795
1740927970.229788,None,None,-0.031062372338867217,0.09794200151367194,-0.06943511450381701,0.002325816543783087,3.48550382217154e-05,0.002354385455687456
1740927970.241392,None,None,0.08385930734863267,0.009356540087890719,0.04506870229007642,0.002385062747516574,3.524138408600874e-05,0.002530754369174452
1740927970.2549925,None,None,0.021610064184570232,0.023721750048828205,-0.2297404580152671,0.0024107939117084176,3.4738706929425695e-05,0.0016214182351453389
1740927970.2661262,None,None,-0.028668170678710858,0.12427821977539069,0.06033587786259531,0.0024124534110142736,3.5007979080252553e-05,0.0018580282205063834
1740927970.2773619,None,None,-0.00712035573730474,-0.024162283154296804,0.09850381679389297,0.0024254673758829976,3.542396451943423e-05,0.0022454945161341257
1740927970.2932818,None,None,-0.0023319524169922445,0.009356540087890719,-0.016000000000000014,0.002440216833347997,3.550869392290884e-05,0.002180650429673492
1740927970.3048759,None,None,0.021610064184570232,0.023721750048828205,2.014534351145038,0.0024813759717203085,4.178094412476084e-05,0.010138184512970216
1740927970.316459,None,None,-0.03585077565917971,-0.16063177778320303,0.11377099236641208,0.0024794528323971114,4.230439110430355e-05,0.010587320166171916
1740927970.329382,None,None,0.012033257543945242,0.006962338427734471,0.029801526717557092,0.0025019059791069652,4.262499689206614e-05,0.010704781302341284
1740927970.3426056,None,None,-0.03824497731933607,0.023721750048828205,0.17483969465648852,0.0024990412579218016,4.3341594466544726e-05,0.01139528137703224
1740927970.3543234,None,None,0.007244854223632746,0.045269564990234434,0.06033587786259531,0.002519121283734384,4.3758610883351625e-05,0.011633509924145349
1740927970.3674033,None,None,-0.02627396901855472,0.009356540087890719,-1.733557251908397,0.00250885669226752,3.845584891921862e-05,0.00478447817241139
1740927970.3799508,None,None,0.026398467504882728,0.026115951708984453,0.05270229007633587,0.0025391932141188194,3.8816547344953075e-05,0.0049915149056491805
1740927970.3918564,None,None,-0.004726154077148381,0.03808696000976569,-0.05416793893129768,0.002552505287478234,3.879901874988335e-05,0.004776377572333759
1740927970.403706,None,None,-0.01669716237792973,-0.024162283154296804,1.9610992366412212,0.0025740951497552284,4.529074734861031e-05,0.01252303501880641
1740927970.4187944,None,None,0.04794628244628907,0.006962338427734471,0.36567938931297705,0.002618209525688909,4.67680344681784e-05,0.013967816703268987
1740927970.430877,None,None,0.02400426584472659,-0.033739089794921795,0.16720610687022885,0.002648498819207719,4.7594238152727396e-05,0.014628705129842854
1740927970.4427185,None,None,0.0144274592041016,-0.012191274853515566,-0.06180152671755712,0.002672205182747706,4.766493390462127e-05,0.014384948439611665
1740927970.4557474,None,None,-0.03824497731933607,0.021327548388671957,-0.10760305343511467,0.0026675898870848363,4.750242981658826e-05,0.013960198493907958
1740927970.4669752,None,None,-0.043033380639648566,-0.033739089794921795,0.04506870229007642,0.002661332876828937,4.782935029533929e-05,0.014138535958677817
1740927970.4787188,None,None,0.026398467504882728,0.014144943408203214,0.06796946564885475,0.0026921921207323255,4.834259977444994e-05,0.014407374648617818
1740927970.491015,None,None,0.019215862524414096,0.06921158159179694,0.014534351145038205,0.0027190266070617345,4.8671656820692936e-05,0.014465146638536206
1740927970.5025074,None,None,-0.019091364038085867,0.009356540087890719,-0.06180152671755712,0.002724865683256303,4.8673606294108105e-05,0.01422134501070002
1740927970.5146909,None,None,-0.033456573999023576,0.0572405732910157,-0.07706870229007645,0.0027227587808456547,4.8586897609319967e-05,0.013917185542021229
1740927970.5289462,None,None,-0.03824497731933607,0.026115951708984453,0.09850381679389297,0.0027192269164271355,4.908771021105432e-05,0.014306594841704996
1740927970.541662,None,None,0.009639055883789105,-0.00740287153320307,0.25117557251908385,0.0027425024491848195,5.021667333130981e-05,0.015299209805591806
1740927970.5533001,None,None,0.06709989572753905,-0.00022026655273432727,0.022167938931297648,0.0027951808614267767,5.068319400187727e-05,0.015387261744164778
1740927970.5648415,None,None,-0.02627396901855472,-0.13190135786132806,-1.8098931297709924,0.0027834171224672454,4.44966648621172e-05,0.008237610017054541
1740927970.5774646,None,None,6.224924316411418e-05,0.009356540087890719,-0.06180152671755712,0.0027997183980942256,4.4472003987389903e-05,0.007992807049140764
1740927970.5892117,None,None,-0.055004388940429694,-0.00740287153320307,0.2740763358778626,0.0027887753669360517,4.5516432812009196e-05,0.009074875129868962
1740927970.601483,None,None,0.012033257543945242,-0.04092169477539054,0.21300763358778618,0.002813465182328712,4.6502189237924514e-05,0.009915868959095773
1740927970.6133306,None,None,0.0551288874267577,0.033298556689453196,-0.016000000000000014,0.002859944411395512,4.6773896872765936e-05,0.009852299803649735
1740927970.6249847,None,None,-0.009514557397460877,0.05963477495117195,-0.031267175572519346,0.002871424741051149,4.684630408750965e-05,0.009728407265827816
1740927970.637714,None,None,-0.02627396901855472,0.07878838823242193,0.22064122137404585,0.0028757305528971213,4.779290305359157e-05,0.010599665772095913
1740927970.6494994,None,None,-0.03585077565917971,-0.03613329145507804,-0.06180152671755712,0.0028723262358520156,4.769140489065158e-05,0.01035527314861026
1740927970.6620286,None,None,0.016821660864257737,0.12427821977539069,2.014534351145038,0.0029144389588515785,5.5326417769865745e-05,0.01831339095058986
1740927970.6737056,None,None,0.012033257543945242,0.030904355029296948,-0.10760305343511467,0.0029366272191349053,5.522017968825934e-05,0.017889287655453952
1740927970.6856143,None,None,-0.04782178395996106,-0.009797073193359318,0.029801526717557092,0.0029271042129180793,5.546366892459861e-05,0.01800791383987941
1740927970.701039,None,None,-0.07655220388183603,-0.009797073193359318,1.9687328244274809,0.002917261389443353,6.28139099051228e-05,0.025786207664448398
1740927970.7137022,None,None,0.05273468576660156,0.04048116166992194,-0.07706870229007645,0.0029613359104116574,6.296143277668605e-05,0.025483879184970113
1740927970.7284226,None,None,-0.0502159856201172,-0.012191274853515566,0.11377099236641208,0.0029504307416433656,6.351676751980672e-05,0.025935368454577633
1740927970.7432108,None,None,-0.0023319524169922445,-0.00740287153320307,-0.09996946564885523,0.002963953137837505,6.341514085755459e-05,0.025542540598371858
1740927970.7546427,None,None,0.15329115549316397,-0.00022026655273432727,-0.1381374045801529,0.0030635640890681777,6.373594052967991e-05,0.02499885964658225
1740927970.7658787,None,None,-0.019091364038085867,-0.005008669873046823,-0.11523664122137411,0.0030687028742762824,6.355034494593568e-05,0.02454552154585663
1740927970.7776146,None,None,-0.02627396901855472,-0.002614468212890575,0.04506870229007642,0.0030710755605287375,6.392900420094648e-05,0.024725357977585818
1740927970.789703,None,None,-0.01669716237792973,0.062028976611328196,0.06033587786259531,0.0030787517198659813,6.439656844068716e-05,0.02496551186228069
1740927970.801571,None,None,0.028792669165039086,-0.021768081494140556,-0.016000000000000014,0.0031111033655920623,6.477039504518556e-05,0.024904129168767428
1740927970.8139513,None,None,-0.014302960717773372,0.021327548388671957,-1.7946259541984735,0.003104771282458211,5.8158023366160414e-05,0.017816488899379587
1740927970.8255355,None,None,-0.019091364038085867,0.021327548388671957,-0.07706870229007645,0.0031102241824005287,5.804045917485173e-05,0.01751268452786848
1740927970.8378363,None,None,0.04555208078613271,0.014144943408203214,-0.04653435114503823,0.0031521010432969763,5.834344082915966e-05,0.017329451864175886
1740927970.8493257,None,None,-0.05979279226074219,-0.033739089794921795,-0.06180152671755712,0.0031350169685055583,5.8083204889792875e-05,0.0170858632092145
1740927970.8627765,None,None,0.0048506525634766096,-0.15823757612304679,-0.2831755725190841,0.0031520486274470624,5.7269210828822706e-05,0.015967735741210937
1740927970.874503,None,None,0.007244854223632746,-0.00740287153320307,-0.06180152671755712,0.0031723888539380227,5.731953265684547e-05,0.01572392578446627
1740927970.8859382,None,None,-0.03585077565917971,-0.012191274853515566,0.06033587786259531,0.0031695160116629126,5.762656103016605e-05,0.015962550225312348
1740927970.9011335,None,None,-0.019091364038085867,0.1194898164550782,-0.17630534351145055,0.003173868602023923,5.7089577305472045e-05,0.01526640613689775
1740927970.913137,None,None,0.026398467504882728,0.023721750048828205,-0.05416793893129768,0.0032049169067158018,5.7258956631236764e-05,0.015052632065437027
1740927970.9248598,None,None,-0.019091364038085867,-0.03613329145507804,0.04506870229007642,0.0032112272640740366,5.7582899511953535e-05,0.01523083053327626
1740927970.9407396,None,None,-0.0023319524169922445,0.01893334672851571,-0.06180152671755712,0.003226023074601891,5.757296421206125e-05,0.014986889696102295
1740927970.9522498,None,None,-0.023879767358398363,0.004568136767578224,-0.00836641221374057,0.0032290242282966924,5.765668690307276e-05,0.014953989170227413
1740927970.9638677,None,None,0.0144274592041016,-0.024162283154296804,-0.11523664122137411,0.003252782672600595,5.7520208327969043e-05,0.01449892049291676
1740927970.9781137,None,None,0.016821660864257737,-0.012191274853515566,0.006900763358778761,0.0032790829118450352,5.787997318802828e-05,0.014526252167461423
1740927970.9900115,None,None,-0.033456573999023576,-0.1534491728027343,-0.19920610687022888,0.0032750327631850774,5.7149932288571895e-05,0.013739410850070386
1740927971.0017009,None,None,0.028792669165039086,-0.014585476513671813,-0.016000000000000014,0.003307968030368898,5.7480318092451344e-05,0.013676158198297577
1740927971.014523,None,None,0.1939925837158203,-0.024162283154296804,-0.016000000000000014,0.00343581385301528,5.872708395517606e-05,0.013612912406959972
1740927971.0266259,None,None,-0.03585077565917971,-0.04092169477539054,0.10613740458015264,0.0034342198435835304,5.921433370380205e-05,0.014032103822829056
1740927971.0483449,None,None,-0.028668170678710858,-0.04092169477539054,-0.11523664122137411,0.0034346093001110943,5.885148760605344e-05,0.013576889102824468
1740927971.0654237,None,None,0.019215862524414096,0.004568136767578224,0.2282748091603053,0.003465375122510647,6.013441998073289e-05,0.014478546619963435
1740927971.0782862,None,None,0.016821660864257737,0.009356540087890719,0.19774045801526707,0.003494642863241692,6.129313866515012e-05,0.015259729426678532
1740927971.090471,None,None,0.019215862524414096,-0.002614468212890575,0.10613740458015264,0.003524629047093494,6.210496949007988e-05,0.015679185018649268
1740927971.1023262,None,None,0.0144274592041016,-0.014585476513671813,-0.09996946564885523,0.0035502031332228655,6.205643159200934e-05,0.015284544985496636
1740927971.1137753,None,None,0.062311492407226554,-0.005008669873046823,-0.023633587786259458,0.003604330022372727,6.259674483059487e-05,0.015191384310093084
1740927971.1252587,None,None,-0.014302960717773372,-0.043315896435546786,0.2282748091603053,0.0036167466034000848,6.373891839609061e-05,0.01609327752430275
1740927971.1369593,None,None,0.031186870825195223,0.006962338427734471,0.05270229007633587,0.0036539394834470863,6.443126662234637e-05,0.01630177618234033
1740927971.1511936,None,None,0.009639055883789105,-0.043315896435546786,0.022167938931297648,0.003678588640535982,6.487793933419739e-05,0.016389686206449462
1740927971.1629488,None,None,-0.08852321218261716,0.004568136767578224,-1.7793587786259542,0.003629941620748541,5.71977174835451e-05,0.009361315113112098
1740927971.1790743,None,None,-0.06218699392089855,0.016539145068359462,-0.130503816793893,0.0036111473191112317,5.651377728486114e-05,0.008845033865238312
1740927971.1949422,None,None,-0.011908759057617235,0.03808696000976569,-0.031267175572519346,0.003622220053378073,5.654061233276746e-05,0.00872068360691635
1740927971.2063315,None,None,0.05752308908691406,0.030904355029296948,-0.023633587786259458,0.003673925622284014,5.700718026583394e-05,0.008626485206951454
1740927971.2205284,None,None,0.02400426584472659,0.08836519487304695,0.09850381679389297,0.0037075501855552196,5.7794998480857066e-05,0.00901473536273302
1740927971.2326932,None,None,-0.011908759057617235,-0.13668976118164056,-0.17630534351145055,0.003717776814909798,5.720782035855551e-05,0.008317528861781517
1740927971.2478385,None,None,0.021610064184570232,-0.01937387983398431,0.05270229007633587,0.0037497691547680443,5.7785269738342566e-05,0.00852482846724821
1740927971.2659638,None,None,-0.009514557397460877,0.011750741748046967,0.022167938931297648,0.0037633448037545755,5.805576699019172e-05,0.008611554994141863
1740927971.2816951,None,None,-0.03824497731933607,-0.060075308056640575,-0.11523664122137411,0.0037586756720179334,5.757167222083033e-05,0.008155543165533106
1740927971.296193,None,None,-0.031062372338867217,-0.002614468212890575,1.8313282442748091,0.003776117625806226,6.553832376627698e-05,0.015388550142525572
1740927971.307773,None,None,0.016821660864257737,-0.009797073193359318,2.083236641221374,0.003823790184222417,7.49313000218327e-05,0.023617766123119166
1740927971.3190625,None,None,0.031186870825195223,0.014144943408203214,-1.7869923664122136,0.0038436888527146663,6.76663710964904e-05,0.016560626054657426
1740927971.3334951,None,None,0.016821660864257737,-0.043315896435546786,1.8465954198473282,0.003889598284053852,7.610198735350201e-05,0.02385523109002542
1740927971.3450243,None,None,0.012033257543945242,-0.03613329145507804,-1.7106564885496183,0.00389914690198263,6.90260999454037e-05,0.01709965478197838
1740927971.3564312,None,None,-0.011908759057617235,0.10033620317382819,0.014534351145038205,0.003911059395167853,6.930991235293219e-05,0.01715757161566085
1740927971.3706276,None,None,-0.004726154077148381,-0.033739089794921795,0.18247328244274796,0.00392878147621929,7.037666436763071e-05,0.017878857017893827
1740927971.3833423,None,None,0.03597527414550772,-0.0289506864746093,-0.2297404580152671,0.003966820164993406,6.98855709665711e-05,0.016971997016163847
1740927971.395194,None,None,0.02400426584472659,0.08357679155273445,0.037435114503816536,0.004000575055542061,7.05019760037184e-05,0.017120335193940756
1740927971.4066517,None,None,0.019215862524414096,-0.014585476513671813,-0.016000000000000014,0.004031157640994956,7.085727274116042e-05,0.0170576206016015
1740927971.4193811,None,None,-0.011908759057617235,0.014144943408203214,0.05270229007633587,0.004043947593786257,7.132100414519127e-05,0.01726626142788071
1740927971.4309464,None,None,-0.03824497731933607,-0.12711295454101557,-0.09233587786259534,0.004039498593586778,7.096117518836407e-05,0.0169020245742863
1740927971.4423356,None,None,-0.009514557397460877,-0.01697967817382806,-0.0007328244274811269,0.004052950848822678,7.119290303381517e-05,0.01689955947325608
1740927971.4541228,None,None,0.026398467504882728,0.10512460649414068,-0.04653435114503823,0.004087503227012591,7.145717943140096e-05,0.016716176847078518
1740927971.4652014,None,None,-0.04063917897949221,0.11230721147460945,0.2282748091603053,0.004084614515237276,7.251689019472529e-05,0.017618245387290593
1740927971.4761503,None,None,0.019215862524414096,0.0859709932128907,0.037435114503816536,0.00411564371536739,7.311915731693192e-05,0.01776664458832733
1740927971.4871318,None,None,0.031186870825195223,-0.052892703076171776,0.19774045801526707,0.004155629007619165,7.454095637960237e-05,0.01854826430351513
1740927971.4980316,None,None,0.07907090402832018,-0.00022026655273432727,0.07560305343511464,0.004223576957514306,7.575554892156145e-05,0.018847566624117247
1740927971.5098503,None,None,0.02400426584472659,0.009356540087890719,0.18247328244274796,0.0042598488817538445,7.709595795765207e-05,0.019569035130063646
1740927971.5208716,None,None,0.04555208078613271,-0.14626656782226555,0.06796946564885475,0.0043082327331178645,7.807955659403605e-05,0.019838325569457967
1740927971.5323908,None,None,0.002456450903320251,-0.01937387983398431,0.022167938931297648,0.004330371104385334,7.855541171801552e-05,0.01992672934940844
1740927971.5437105,None,None,-0.019091364038085867,0.1194898164550782,0.06033587786259531,0.004339863985104411,7.9053268284703e-05,0.02016589539509868
1740927971.5555284,None,None,0.08625350900878903,-0.04092169477539054,0.12140458015267175,0.004413970730463569,8.06205461839236e-05,0.020646318644250244
1740927971.5668492,None,None,-0.014302960717773372,0.011750741748046967,-1.68775572519084,0.0044090587285858015,7.295483093220184e-05,0.01398072404573688
1740927971.5781393,None,None,-0.004726154077148381,0.006962338427734471,-0.1686717557251911,0.004425642294672813,7.243594480220722e-05,0.013314345094953146
1740927971.5895011,None,None,0.03597527414550772,0.01893334672851571,-0.031267175572519346,0.004468534762676562,7.28676147473926e-05,0.013190605388377043
1740927971.6009004,None,None,0.02400426584472659,0.006962338427734471,-0.20683969465648877,0.0045025908809579514,7.237180462911796e-05,0.012373350014005005
1740927971.612467,None,None,0.012033257543945242,0.09554779985351569,-0.1686717557251911,0.004529952614353383,7.195762892087346e-05,0.01170672748759611
1740927971.623681,None,None,-0.028668170678710858,0.0021739351074219204,-0.16103816793893122,0.0045325855194959875,7.126364655447241e-05,0.011070151698939842
1740927971.6351585,None,None,0.012033257543945242,0.021327548388671957,-0.03890076335877879,0.004561370784191701,7.145736719495016e-05,0.01091591744657719
1740927971.6462877,None,None,-0.031062372338867217,-0.005008669873046823,0.022167938931297648,0.004564444104778287,7.162534116660767e-05,0.011002876415354045
1740927971.6597679,None,None,0.0144274592041016,-0.005008669873046823,0.09087022900763353,0.004596091018121656,7.246981378708644e-05,0.011361228914210951
1740927971.6707764,None,None,-0.055004388940429694,-0.014585476513671813,0.09087022900763353,0.004585069868200882,7.280519661813888e-05,0.011719637223442577
1740927971.6817472,None,None,-0.03824497731933607,0.04048116166992194,0.23590839694656474,0.004585613339323485,7.398527160253169e-05,0.012650994853253973
1740927971.693027,None,None,0.040763677465820214,-0.17260278608398427,2.014534351145038,0.004654053448413246,8.45973613490487e-05,0.02060787421995426
1740927971.7048762,None,None,0.050340484106445205,-0.03852749311523429,2.014534351145038,0.0047285176290050406,9.539657720082363e-05,0.028566017428494732
1740927971.7162864,None,None,0.04315787912597657,0.12188401811523444,-0.06943511450381701,0.00477586526369281,9.583449898313522e-05,0.02829399812659194
1740927971.7329738,None,None,0.03597527414550772,0.014144943408203214,0.2740763358778626,0.004822903589217831,9.796441587355933e-05,0.029378730521309578
1740927971.7443984,None,None,-0.02627396901855472,0.01893334672851571,0.07560305343511464,0.0048293418535008395,9.861997832370982e-05,0.029679658180917674
1740927971.7579126,None,None,-0.04782178395996106,0.0021739351074219204,0.014534351145038205,0.004821559793173309,9.877689215404413e-05,0.02973938927853479
1740927971.7693942,None,None,0.007244854223632746,-0.0289506864746093,-1.7564580152671758,0.00482795794040488,9.03400655057696e-05,0.022803952225670568
1740927971.7808912,None,None,0.03358107248535158,0.11709561479492195,0.014534351145038205,0.004871020231592507,9.112139066074786e-05,0.022862536875415198
1740927971.7925231,None,None,-0.004726154077148381,0.023721750048828205,-0.18393893129771,0.004888192679127262,9.055501567110945e-05,0.022137173597287573
1740927971.8040206,None,None,0.012033257543945242,-0.009797073193359318,-0.09996946564885523,0.004916838464535099,9.056189423373868e-05,0.021743348248397954
1740927971.815398,None,None,-0.01669716237792973,0.04287536333007819,-0.19157251908396944,0.0049265923936222256,8.983178621973001e-05,0.02098762744053166
1740927971.8269897,None,None,-0.00712035573730474,-0.012191274853515566,-0.21447328244274821,0.004942042619081456,8.905507381416109e-05,0.020141321860366615
1740927971.8391519,None,None,0.0048506525634766096,0.04048116166992194,-0.03890076335877879,0.004967055900800064,8.929603516398676e-05,0.01998835322597461
1740927971.850414,None,None,-0.01669716237792973,0.0021739351074219204,-0.1686717557251911,0.004977105936686174,8.865420807842569e-05,0.019322777566025854
1740927971.8629115,None,None,0.028792669165039086,-0.12232455122070307,-1.8098931297709924,0.004996627227381062,7.975426528394715e-05,0.012174577349840374
1740927971.8741102,None,None,-0.031062372338867217,-0.002614468212890575,-0.10760305343511467,0.004998798552114065,7.922979224690999e-05,0.01174894819439352
1740927971.8852866,None,None,-0.0502159856201172,0.05005796831054693,0.04506870229007642,0.0049905194745452595,7.933520920010357e-05,0.011926280496342279
1740927971.896698,None,None,6.224924316411418e-05,0.03808696000976569,0.07560305343511464,0.005014042645338481,8.006881434743255e-05,0.012224259846028766
1740927971.910153,None,None,0.05273468576660156,0.11230721147460945,0.10613740458015264,0.0050712619924933935,8.145320900047133e-05,0.012642904956927383
1740927971.921458,None,None,-0.019091364038085867,0.026115951708984453,-0.023633587786259458,0.005081843178843036,8.148936612638086e-05,0.012549047447386441
1740927971.9333992,None,None,0.007244854223632746,0.006962338427734471,-1.7869923664122136,0.005088027173822925,7.224765202243407e-05,0.005490297049449415
1740927971.944603,None,None,0.04315787912597657,-0.03852749311523429,2.014534351145038,0.005162776155088422,8.382550309042688e-05,0.013445632054210142
1740927971.9572206,None,None,0.007244854223632746,0.016539145068359462,0.06796946564885475,0.005191409221143695,8.460644642480883e-05,0.013713751402310017
1740927971.9690764,None,None,-0.05979279226074219,-0.055286904736328024,0.04506870229007642,0.005177188426098956,8.466524830672681e-05,0.013891457218674404
1740927971.9802954,None,None,-0.04063917897949221,-0.014585476513671813,-1.8098931297709924,0.005152355045527602,7.474015009354285e-05,0.006742530581718378
1740927971.9913127,None,None,-0.03824497731933607,0.016539145068359462,0.029801526717557092,0.005151376439317418,7.485664832938623e-05,0.00685882951862175
1740927972.002601,None,None,0.03836947580566408,0.030904355029296948,0.06033587786259531,0.0051994591440348275,7.581720145086289e-05,0.007095776818025845
1740927972.0149038,None,None,0.019215862524414096,-0.04810429975585928,2.0221679389312976,0.005259480444419182,8.743121515622995e-05,0.015081530288107612
1740927972.0262904,None,None,-0.0023319524169922445,-0.005008669873046823,-0.04653435114503823,0.005280289233178009,8.750393342877693e-05,0.014897710551978248
1740927972.0379102,None,None,0.05273468576660156,-0.04571009809570303,-0.03890076335877879,0.00533651129046914,8.809587409068894e-05,0.014744018940464454
1740927972.0490165,None,None,0.019215862524414096,-0.01697967817382806,-0.20683969465648877,0.005369553909089834,8.74659916473948e-05,0.013926984354522557
1740927972.0615454,None,None,-0.03824497731933607,-0.012191274853515566,0.3580458015267174,0.005372841825227961,8.948119494014801e-05,0.015340963140446702
1740927972.0732272,None,None,0.16286796213378896,0.009356540087890719,0.07560305343511464,0.005501736691718475,9.168260092653609e-05,0.01563961922103034
1740927972.0847952,None,None,0.031186870825195223,0.09554779985351569,-0.04653435114503823,0.0055454372961671996,9.207165230323228e-05,0.015455897436462791
1740927972.0963566,None,None,-0.009514557397460877,-0.03134488813476555,-0.09996946564885523,0.005562492855762017,9.180358175814187e-05,0.015061086820162998
1740927972.1086836,None,None,-0.00712035573730474,-0.10077673627929679,-0.10760305343511467,0.005580998868415432,9.150631335319177e-05,0.014636062671527311
1740927972.1200151,None,None,-0.0502159856201172,0.014144943408203214,-1.8175267175572518,0.005550045335030368,8.107602197969994e-05,0.007457254116528489
1740927972.131797,None,None,0.02400426584472659,0.023721750048828205,-0.04653435114503823,0.0055895546457278575,8.132145207365288e-05,0.0072722228350223135
1740927972.1430197,None,None,-0.004726154077148381,-0.055286904736328024,-0.06180152671755712,0.005610465691797792,8.122642158447569e-05,0.0070268735110310876
1740927972.1548784,None,None,0.012033257543945242,0.052452169970703205,0.014534351145038205,0.00564324548904349,8.171109906660585e-05,0.0070830070160803555
1740927972.1665277,None,None,-0.0023319524169922445,0.06681737993164069,-0.04653435114503823,0.005666032455211288,8.172048075203648e-05,0.006897960866841311
1740927972.1777954,None,None,-0.011908759057617235,0.011750741748046967,0.20537404580152674,0.0056858842275469956,8.311179665316497e-05,0.007707861251435373
1740927972.1892507,None,None,-0.028668170678710858,0.045269564990234434,-0.06180152671755712,0.005691290945053301,8.281807399140752e-05,0.007462643567837369
1740927972.200662,None,None,-0.08612901052246102,-0.17739118940429677,0.21300763358778618,0.005662688494828455,8.36621303518378e-05,0.008302804242594818
1740927972.212689,None,None,6.224924316411418e-05,0.0572405732910157,-1.8098931297709924,0.005663302333231059,7.33448148198256e-05,0.0011533075467258375
1740927972.2238612,None,None,-0.009514557397460877,0.033298556689453196,0.17483969465648852,0.005683972874686027,7.455181965117413e-05,0.0018417412760445926
1740927972.2354841,None,None,-0.011908759057617235,0.026115951708984453,-0.07706870229007645,0.00569969976350431,7.426203902357811e-05,0.0015353549907460107
1740927972.2466643,None,None,6.224924316411418e-05,-0.00740287153320307,0.19774045801526707,0.005726834227478695,7.568626271244496e-05,0.0023143521970628847
1740927972.2669647,None,None,0.0048506525634766096,0.0285101533691407,0.17483969465648852,0.005756793161077505,7.701681800631741e-05,0.0030030490651078816
1740927972.2791548,None,None,-0.00712035573730474,0.016539145068359462,-1.7946259541984735,0.0057528852773483935,6.656707565472667e-05,-0.004086846991287296
1740927972.290133,None,None,-0.01669716237792973,0.009356540087890719,0.11377099236641208,0.00576823096784491,6.733671368760209e-05,-0.003640334835102458
1740927972.3123343,None,None,-0.004726154077148381,-0.15105497114257804,0.25117557251908385,0.0057931575888658755,6.901615295166909e-05,-0.0026510134705935344
1740927972.3337405,None,None,0.028792669165039086,0.04048116166992194,-1.7869923664122136,0.005812991860432162,5.87492422056599e-05,-0.00971154702926886
1740927972.3491578,None,None,-0.033456573999023576,-0.009797073193359318,-0.016000000000000014,0.005815889782688577,5.860261819376583e-05,-0.009778386702360397
1740927972.3650212,None,None,-0.023879767358398363,0.052452169970703205,-0.05416793893129768,0.005824388357088166,5.829824400783437e-05,-0.009995939426179924
1740927972.3780928,None,None,0.021610064184570232,0.06681737993164069,0.07560305343511464,0.00586453121311415,5.904519859028634e-05,-0.009700926524701853
1740927972.3897555,None,None,0.007244854223632746,-0.16542018110351553,-0.06943511450381701,0.005893368672375934,5.8827138697314265e-05,-0.009978670938171773
1740927972.4046867,None,None,0.1892041803955078,0.006962338427734471,0.07560305343511464,0.006044696618931259,6.0432120710947944e-05,-0.009683542815087447
1740927972.418883,None,None,0.016821660864257737,-0.009797073193359318,0.12140458015267175,0.006083646933054012,6.136450447634579e-05,-0.009207448544250374
1740927972.432499,None,None,-0.014302960717773372,-0.00740287153320307,0.3885801526717556,0.006105688563492132,6.377018141008145e-05,-0.0076759967433624
1740927972.447749,None,None,-0.0023319524169922445,0.033298556689453196,0.029801526717557092,0.006130693504304911,6.406761742570412e-05,-0.007561296690487155
1740927972.4604187,None,None,0.0048506525634766096,0.011750741748046967,-0.09996946564885523,0.006158718476957508,6.36020589363899e-05,-0.007959084877528699
1740927972.4737573,None,None,0.04794628244628907,0.09794200151367194,0.014534351145038205,0.006217082048217859,6.400343075116608e-05,-0.007904646954767393
1740927972.4857924,None,None,0.031186870825195223,0.004568136767578224,-0.14577099236641233,0.006262420986048819,6.33332985061767e-05,-0.008483308607442449
1740927972.4972756,None,None,0.050340484106445205,0.023721750048828205,-0.130503816793893,0.00632101564818745,6.28026363861608e-05,-0.009001723100093489
1740927972.5112376,None,None,0.03597527414550772,0.0285101533691407,-0.09233587786259534,0.006370938268595086,6.243050588265965e-05,-0.009369436633334454
1740927972.523056,None,None,0.026398467504882728,-0.005008669873046823,2.0603358778625953,0.006444839945076355,7.544557209129519e-05,-0.001234986123491457
1740927972.5409365,None,None,0.002456450903320251,-0.055286904736328024,-0.07706870229007645,0.006472651797367387,7.512407295253821e-05,-0.0015410825194416364
1740927972.553445,None,None,-0.06218699392089855,-0.03852749311523429,0.04506870229007642,0.006458954077572849,7.538113084484076e-05,-0.0013648246537450257
1740927972.567163,None,None,-0.019091364038085867,0.04048116166992194,-0.14577099236641233,0.00647109261759388,7.45612455569739e-05,-0.001942246979664744
1740927972.5795166,None,None,-0.004726154077148381,-0.026556484814453052,-0.130503816793893,0.006493037233797794,7.386898875570384e-05,-0.002459438605856449
1740927972.591271,None,None,-0.02627396901855472,-0.04810429975585928,0.12140458015267175,0.006504137615223237,7.472098226008425e-05,-0.001981762642080641
1740927972.604467,None,None,0.021610064184570232,-0.00740287153320307,-0.07706870229007645,0.006544458716319819,7.44268797637293e-05,-0.0022878635648271323
1740927972.617362,None,None,0.03358107248535158,-0.16542018110351553,-0.016000000000000014,0.006593920233854935,7.45418872604029e-05,-0.0023527941874068982
1740927972.6294508,None,None,-0.028668170678710858,0.05963477495117195,-1.8098931297709924,0.006575632804317093,6.295444264020743e-05,-0.009502825103179208
1740927972.643319,None,None,-0.01669716237792973,0.006962338427734471,-0.130503816793893,0.006590019127789169,6.215044979263442e-05,-0.010021119437943487
1740927972.6558688,None,None,0.03836947580566408,0.023721750048828205,-0.2831755725190841,0.006639335092626689,6.044442134777518e-05,-0.011142435310791624
1740927972.670198,None,None,-0.07415800222167968,-0.009797073193359318,-1.8175267175572518,0.006590310697798976,4.8546993559070824e-05,-0.01832392050233836
1740927972.6819644,None,None,0.016821660864257737,-0.026556484814453052,0.13667175572519086,0.006631542321119972,4.945543734111379e-05,-0.017788287580838072
1740927972.6932619,None,None,6.224924316411418e-05,-0.01937387983398431,-0.09233587786259534,0.006658138726866275,4.884347048466491e-05,-0.018156996543992193
1740927972.7073822,None,None,-0.0023319524169922445,0.033298556689453196,-0.00836641221374057,0.006684398243347756,4.8773444828850657e-05,-0.018194072931751445
1740927972.7192144,None,None,-0.05261018728027356,0.045269564990234434,0.06033587786259531,0.006677536145543881,4.914591919788876e-05,-0.017959773087083773
1740927972.7328796,None,None,-0.02627396901855472,-0.17499698774414052,-0.06943511450381701,0.006686317003648952,4.868497909428208e-05,-0.018237914653468145
1740927972.7445366,None,None,0.050340484106445205,-0.00022026655273432727,0.19010687022900763,0.006750996028246051,4.99146266575774e-05,-0.01749096406430022
1740927972.7573571,None,None,-0.07176380056152354,-0.12471875288085932,2.014534351145038,0.006760158157414964,6.333213980764404e-05,-0.009538246479749709
1740927972.770224,None,None,-0.07894640554199217,-0.0289506864746093,0.04506870229007642,0.006733991908456001,6.375690617811664e-05,-0.009362666267895186
1740927972.7812881,None,None,0.0144274592041016,0.04287536333007819,-0.09996946564885523,0.006768895071362011,6.313337421155368e-05,-0.009759835673312707
1740927972.7951972,None,None,0.016821660864257737,0.11709561479492195,0.1595725190839694,0.006809464210155371,6.422765362505148e-05,-0.00913197282831721
1740927972.8071005,None,None,0.02400426584472659,-0.021768081494140556,0.014534351145038205,0.006852846404567838,6.433988297214812e-05,-0.009076807850312646
1740927972.8185966,None,None,-0.02627396901855472,0.05963477495117195,-0.03890076335877879,0.00686114739825097,6.416572192329769e-05,-0.009232661518022385
1740927972.8339205,None,None,-0.014302960717773372,-0.043315896435546786,0.014534351145038205,0.006878313625812278,6.43313455102188e-05,-0.009177466669802101
1740927972.8456013,None,None,6.224924316411418e-05,-0.03134488813476555,-0.18393893129771,0.006902247462078287,6.313874247965875e-05,-0.00990610171451219
1740927972.858787,None,None,0.0048506525634766096,-0.009797073193359318,1.9916335877862594,0.006962485564990878,7.654574932787515e-05,-0.0020424049937867207
1740927972.871197,None,None,0.04315787912597657,0.033298556689453196,2.0679694656488548,0.0070498670681447195,9.044365483266504e-05,0.006124076156878758
1740927972.8835847,None,None,-0.004726154077148381,-0.0289506864746093,-1.7869923664122136,0.007045618030121068,7.853906568587932e-05,-0.0009332751881211947
1740927972.8949738,None,None,0.012033257543945242,-0.03134488813476555,-0.29080916030534354,0.0070760151270877905,7.66341486834586e-05,-0.002082597927605628
1740927972.9065049,None,None,-0.0023319524169922445,0.033298556689453196,0.15193893129770997,0.0071033996780297355,7.774025183653837e-05,-0.0014834727227003106
1740927972.9182255,None,None,0.028792669165039086,0.01893334672851571,-0.14577099236641233,0.0071477048211362375,7.676778989684751e-05,-0.0020600292185562917
1740927972.9366398,None,None,0.019215862524414096,0.014144943408203214,-0.03890076335877879,0.0071872555093473005,7.653325092790953e-05,-0.0022145887957338377
1740927972.9527247,None,None,-0.019091364038085867,0.03808696000976569,-1.8175267175572518,0.007173216495264287,6.429547865558523e-05,-0.009393807801125672
1740927972.9658418,None,None,0.026398467504882728,-0.03852749311523429,-0.031267175572519346,0.007218326592618702,6.403922461372247e-05,-0.009519371657939566
1740927972.977579,None,None,6.224924316411418e-05,-0.04571009809570303,0.3122442748091603,0.007250654976092787,6.618234109126503e-05,-0.008288251552643285
1740927972.9890983,None,None,0.0048506525634766096,-0.060075308056640575,-0.19157251908396944,0.00727850424515291,6.487958613850846e-05,-0.00904671165605027
1740927973.0016968,None,None,-0.01669716237792973,0.016539145068359462,-0.06180152671755712,0.007293478003286657,6.451451489861112e-05,-0.009292752033992671
1740927973.0171542,None,None,0.05752308908691406,-0.13190135786132806,0.05270229007633587,0.007361742685541207,6.471493174017319e-05,-0.009086553284988457
1740927973.0344412,None,None,0.09104191232910153,0.004568136767578224,0.1595725190839694,0.007455364709577081,6.553358984025475e-05,-0.008458205856538052
1740927973.0472617,None,None,6.224924316411418e-05,0.01893334672851571,2.052702290076336,0.007515664314733612,7.968549278612974e-05,-0.00035295118770178706
1740927973.059288,None,None,0.03358107248535158,0.021327548388671957,0.022167938931297648,0.007567315242027463,7.979633502509746e-05,-0.0002658452527153994
1740927973.0711856,None,None,0.0144274592041016,-0.024162283154296804,-0.04653435114503823,0.007604773034112719,7.949359944227142e-05,-0.00045006235409782624
1740927973.0837703,None,None,-0.043033380639648566,-0.04810429975585928,0.014534351145038205,0.00760319669870644,7.979729714603444e-05,-0.0003931384603960572
1740927973.0954685,None,None,0.028792669165039086,0.021327548388671957,-0.031267175572519346,0.007650884346718065,7.95492082317149e-05,-0.0005170617953995331
1740927973.1075675,None,None,0.012033257543945242,0.04766376665039068,-0.17630534351145055,0.007684772376743881,7.833823703036453e-05,-0.0012138238332144197
1740927973.1212795,None,None,0.007244854223632746,-0.15105497114257804,-0.023633587786259458,0.007717880345010819,7.820400740440082e-05,-0.0013077277974118404
1740927973.1347523,None,None,-0.028668170678710858,-0.17978539106445307,0.05270229007633587,0.007727116832269377,7.8721776765318e-05,-0.0011001716365948713
1740927973.148288,None,None,0.040763677465820214,0.011750741748046967,-1.8098931297709924,0.007755121473315711,6.586234714269327e-05,-0.00824871397533235
1740927973.1636302,None,None,0.012033257543945242,-0.15105497114257804,0.11377099236641208,0.007794443905085209,6.661614594006747e-05,-0.007801059475892256
1740927973.1758876,None,None,0.002456450903320251,0.014144943408203214,-0.14577099236641233,0.007822943720637205,6.556160591028083e-05,-0.008378353957276574
1740927973.1878853,None,None,-0.05739859060058605,-0.16781438276367178,0.07560305343511464,0.007812980349309264,6.628897554080817e-05,-0.008081450287098323
1740927973.1996078,None,None,-0.01669716237792973,-0.15584337446289054,-0.00836641221374057,0.007829989323972476,6.627795527965132e-05,-0.008116089725134218
1740927973.212736,None,None,0.0144274592041016,0.10273040483398443,0.12140458015267175,0.007870985398857066,6.707859032107845e-05,-0.007638183453651955
1740927973.225821,None,None,0.1844157770751953,0.011750741748046967,0.07560305343511464,0.00803130436439736,6.688921490144853e-05,-0.007340993352679849
1740927973.2384498,None,None,-0.011908759057617235,-0.012191274853515566,-1.7793587786259542,0.008023687046902423,5.4084211683797165e-05,-0.014369796782102246
1740927973.2505352,None,None,0.06709989572753905,0.014144943408203214,0.06033587786259531,0.00810250874159758,5.414191462255001e-05,-0.014134003499507046
1740927973.2639325,None,None,-0.004726154077148381,0.014144943408203214,0.09087022900763353,0.008131467271232515,5.471438106207627e-05,-0.013777581890302931
1740927973.2754538,None,None,-0.0023319524169922445,-0.005008669873046823,-0.03890076335877879,0.008159974010703579,5.433477471225876e-05,-0.013933586051215694
1740927973.2876496,None,None,-0.043033380639648566,-0.01937387983398431,0.07560305343511464,0.008161587195224081,5.498157156660607e-05,-0.013637385900802036
1740927973.3049846,None,None,0.03597527414550772,0.006962338427734471,0.029801526717557092,0.008218270566538018,5.492194574799375e-05,-0.013521957675398042
1740927973.3208349,None,None,-0.01669716237792973,-0.13668976118164056,-0.023633587786259458,0.008236907906851089,5.472221290707162e-05,-0.013617542761019235
1740927973.3354206,None,None,0.026398467504882728,-0.005008669873046823,-0.06943511450381701,0.008285357232495199,5.3959488916630715e-05,-0.013893980500875912
1740927973.3472774,None,None,0.059917290747070195,0.045269564990234434,0.05270229007633587,0.008359966118150475,5.391039786724864e-05,-0.013688052857324386
1740927973.3626924,None,None,-0.009514557397460877,0.0021739351074219204,-0.11523664122137411,0.00838266535382101,5.2974330649554935e-05,-0.014145349976205939
1740927973.3753242,None,None,-0.04063917897949221,0.030904355029296948,0.22064122137404585,0.008388981917446794,5.472698517890711e-05,-0.013276208434274258
1740927973.3963625,None,None,-0.03585077565917971,-0.00022026655273432727,-0.0007328244274811269,0.008394651078118053,5.4808945635946224e-05,-0.013281180475209313
1740927973.4081223,None,None,-0.031062372338867217,-0.01697967817382806,-0.09233587786259534,0.008401975772069761,5.4176870694606215e-05,-0.01364789687027356
1740927973.4227178,None,None,-0.0023319524169922445,0.05484637163085945,2.0221679389312976,0.008466580967920443,6.939699653784353e-05,-0.005663733565017908
1740927973.4360938,None,None,0.0048506525634766096,0.05963477495117195,0.09850381679389297,0.008502318782949363,7.006746507551353e-05,-0.00527545957224256
1740927973.4479094,None,None,0.05273468576660156,-0.01697967817382806,2.0069007633587788,0.008605910788854016,8.49994052222681e-05,0.0026498080135728243
1740927973.4632034,None,None,0.0048506525634766096,-0.05768110639648433,0.28934351145038173,0.008644927331789178,8.721676623628814e-05,0.003793128447649948
1740927973.4752016,None,None,0.0144274592041016,0.04287536333007819,-0.04653435114503823,0.008684904020246029,8.681851231590573e-05,0.0036101388770416664
1740927973.489407,None,None,-0.0502159856201172,0.01893334672851571,0.25117557251908385,0.008683915125973,8.909386226840469e-05,0.004602825452565911
1740927973.5048084,None,None,-0.06936959890136718,0.026115951708984453,0.06796946564885475,0.008665597894233363,9.006782553681918e-05,0.004872111779853589
1740927973.5170875,None,None,-0.01669716237792973,0.021327548388671957,0.09087022900763353,0.008685177837894844,9.090769570633009e-05,0.005231902847208471
1740927973.5311832,None,None,-0.028668170678710858,-0.03134488813476555,0.05270229007633587,0.00869537831438201,9.151855980233188e-05,0.005440995894148759
1740927973.5426972,None,None,0.02400426584472659,0.009356540087890719,0.15193893129770997,0.008745156518445658,9.261158414727727e-05,0.006042057066660934
1740927973.5551987,None,None,-0.011908759057617235,0.0021739351074219204,0.3580458015267174,0.008772898835356507,9.551484586123408e-05,0.007457158523172974
1740927973.5668278,None,None,-0.021485565698242226,0.04287536333007819,0.06796946564885475,0.00878839310500657,9.621705358899879e-05,0.007726870013975542
1740927973.5802653,None,None,0.026398467504882728,-0.1390839628417968,-0.09996946564885523,0.008835332503838647,9.536484837669502e-05,0.0073333975649519535
1740927973.593671,None,None,-0.031062372338867217,-0.00022026655273432727,-0.26790839694656476,0.008837916916541885,9.34806491968824e-05,0.006276570797137989
1740927973.6121874,None,None,0.02400426584472659,-0.04571009809570303,0.09850381679389297,0.008886886110534988,9.419340918746019e-05,0.006666658879631572
1740927973.6277127,None,None,-0.00712035573730474,0.009356540087890719,0.029801526717557092,0.008912229652686933,9.452125912792899e-05,0.006785452170048326
1740927973.6393898,None,None,-0.004726154077148381,-0.01937387983398431,-1.7869923664122136,0.008906260925231536,8.052843906489233e-05,-0.00027076842445687005
1740927973.6526628,None,None,0.07188829904785154,-0.1295071562011718,-0.1381374045801529,0.008986296411117133,7.913012925360391e-05,-0.0008163100859765944
1740927973.663872,None,None,0.009639055883789105,-0.005008669873046823,2.0374351145038165,0.009061366670679498,9.521059412258941e-05,0.007229939919775012
1740927973.6754658,None,None,0.026398467504882728,-0.12232455122070307,0.15193893129770997,0.009113768750235222,9.637891606437455e-05,0.00783117163778643
1740927973.69145,None,None,0.019215862524414096,0.011750741748046967,-0.17630534351145055,0.009155096048576318,9.498616185142754e-05,0.007136158473226988
1740927973.702757,None,None,0.021610064184570232,0.04048116166992194,-0.19157251908396944,0.009198084142263816,9.345934666890334e-05,0.006380725452723881
1740927973.7138507,None,None,-0.04782178395996106,-0.00740287153320307,-0.14577099236641233,0.00919156260705889,9.256573264938079e-05,0.005805993418551303
1740927973.7251425,None,None,-0.07415800222167968,0.12188401811523444,-0.06943511450381701,0.009167043840651722,9.236507316134569e-05,0.005532608883329553
1740927973.7377377,None,None,0.002456450903320251,-0.12232455122070307,0.029801526717557092,0.009199869227382317,9.265712447552193e-05,0.005651129742487609
1740927973.7499657,None,None,-0.028668170678710858,-0.055286904736328024,0.06033587786259531,0.009210575538368135,9.330953327720515e-05,0.005890225992836818
1740927973.7624137,None,None,0.012033257543945242,0.10033620317382819,0.06033587786259531,0.009250871005109455,9.381622983218253e-05,0.006129377291310344
1740927973.7760415,None,None,0.03597527414550772,0.1147014131347657,0.037435114503816536,0.009308339105750851,9.40634644874867e-05,0.006278131615163094
1740927973.7876754,None,None,-0.05739859060058605,-0.06486371137695307,0.11377099236641208,0.009299122312428873,9.5245752923813e-05,0.00672830328209716
1740927973.7998624,None,None,-0.031062372338867217,0.0859709932128907,0.18247328244274796,0.009310143238293008,9.689091320260605e-05,0.007449874500659765
1740927973.8139503,None,None,-0.009514557397460877,0.014144943408203214,-1.7411908396946565,0.009300778559247432,8.290667461340921e-05,0.0005745951427735489
1740927973.82662,None,None,0.016821660864257737,0.09794200151367194,0.04506870229007642,0.009344567308965677,8.325265682864992e-05,0.0007525370992473898
1740927973.8521078,None,None,0.012033257543945242,0.0811825898925782,-0.10760305343511467,0.009382086158016015,8.237770256717482e-05,0.00032757217292882684
1740927973.8680062,None,None,-0.055004388940429694,-0.00022026655273432727,0.10613740458015264,0.009374461784050261,8.343678440054394e-05,0.0007465982720561641
1740927973.880521,None,None,0.05752308908691406,-0.04810429975585928,0.022167938931297648,0.009447694487279544,8.347608203060278e-05,0.0008341583677447942
1740927973.8916492,None,None,-0.033456573999023576,0.1194898164550782,2.0756030534351146,0.009492907110342997,0.00010049539817386376,0.009031090191701757
1740927973.9071584,None,None,0.031186870825195223,-0.012191274853515566,0.037435114503816536,0.009546710549925794,0.00010079257741326711,0.009180265047110057
1740927973.9224486,None,None,-0.031062372338867217,0.052452169970703205,2.0756030534351146,0.009593200838892507,0.00011788557792789578,0.01737851447758928
1740927973.9345198,None,None,-0.011908759057617235,0.033298556689453196,2.052702290076336,0.009652715898384229,0.00013479540769724814,0.025487638846765963
1740927973.9477205,None,None,-0.021485565698242226,0.0021739351074219204,0.04506870229007642,0.00966674062099428,0.00013538574367068666,0.02566951808183927
1740927973.9601684,None,None,0.04315787912597657,-0.00740287153320307,2.052702290076336,0.009766299557089134,0.00015225951200313763,0.03377992290432266
1740927973.9739342,None,None,0.021610064184570232,-0.05049850141601553,-0.016000000000000014,0.009810649744785618,0.00015234938401378543,0.0337219037019056
1740927973.9866514,None,None,0.07188829904785154,0.006962338427734471,0.26644274809160295,0.009897726081893307,0.00015474296359385516,0.034779259240157526
1740927974.0025198,None,None,0.05273468576660156,-0.04571009809570303,0.07560305343511464,0.009967410849645466,0.0001556669333119557,0.03508304901560864
1740927974.0165875,None,None,0.002456450903320251,0.12188401811523444,0.09850381679389297,0.010000601751114856,0.00015683185059228204,0.03547722505220348
1740927974.0299284,None,None,0.007244854223632746,0.026115951708984453,-0.2297404580152671,0.010031160999248027,0.00015531494171887469,0.03457511434525241
1740927974.0458124,None,None,-0.023879767358398363,0.08836519487304695,-0.0847022900763359,0.010041521779133027,0.00015496206077278201,0.034245549249089784
1740927974.0607119,None,None,0.0551288874267577,-0.04571009809570303,0.10613740458015264,0.010114165242820257,0.00015629165669586338,0.03466957818163338
1740927974.0795586,None,None,6.224924316411418e-05,-0.002614468212890575,-1.748824427480916,0.010110775233933474,0.00014223300455443587,0.027768062695186398
1740927974.1018448,None,None,0.007244854223632746,0.033298556689453196,0.022167938931297648,0.010147093482684697,0.0001427891352076988,0.027859278563876273
1740927974.1138191,None,None,-0.06458119558105468,-0.16781438276367178,0.06033587786259531,0.010130739706033568,0.00014347940829094875,0.02810114350322311
1740927974.1292408,None,None,-0.00712035573730474,0.01893334672851571,0.08323664122137409,0.010157312756443004,0.00014449754814805851,0.028433479745990965
1740927974.1427398,None,None,0.03597527414550772,-0.00022026655273432727,-0.023633587786259458,0.010213957815758389,0.00014477549258542772,0.028343808831392158
1740927974.1540575,None,None,-0.01669716237792973,-0.00740287153320307,0.11377099236641208,0.010234196455417845,0.00014603474883786164,0.028796669031371378
1740927974.1681044,None,None,-0.019091364038085867,-0.07444051801757806,1.8618625954198473,0.010286353584070283,0.00016188873762350024,0.036152979339445675
1740927974.1794693,None,None,-0.01669716237792973,-0.012191274853515566,0.22064122137404585,0.010308017557263861,0.00016408443293525527,0.03702905591837672
1740927974.1908858,None,None,-0.014302960717773372,0.12188401811523444,0.09087022900763353,0.010328854452549161,0.00016520582039375147,0.0373927350354003
1740927974.2074573,None,None,-0.021485565698242226,-0.005008669873046823,-0.031267175572519346,0.01034188460933141,0.00016526319817566372,0.03727407321798057
1740927974.222207,None,None,0.016821660864257737,-0.024162283154296804,-0.0007328244274811269,0.010384138294230122,0.0001657861843958232,0.03727593991938398
1740927974.2334807,None,None,0.019215862524414096,0.016539145068359462,-0.1381374045801529,0.010425657249653492,0.00016519310627526753,0.03673512373809599
1740927974.2448878,None,None,0.040763677465820214,-0.03613329145507804,-1.7946259541984735,0.010451295033769587,0.00015082667440415785,0.02965254264200015
1740927974.2560763,None,None,-0.014302960717773372,0.009356540087890719,-0.00836641221374057,0.010471119436834249,0.00015109689869645675,0.02962283107108093
1740927974.2685618,None,None,-0.03824497731933607,-0.005008669873046823,0.06033587786259531,0.010474254693578886,0.00015177086697907246,0.02986436904061596
1740927974.2810476,None,None,-0.031062372338867217,0.023721750048828205,-0.21447328244274821,0.010477222455001694,0.00015016118231760714,0.02902066494802598
1740927974.2949414,None,None,0.002456450903320251,0.011750741748046967,-0.03890076335877879,0.010508762347887723,0.0001502765736789839,0.02887015433032576
1740927974.3099892,None,None,0.02400426584472659,0.016539145068359462,-1.8098931297709924,0.010521906801590384,0.0001355868981836783,0.0217258102893161
1740927974.3214862,None,None,0.021610064184570232,0.030904355029296948,-1.7869923664122136,0.01053431946134395,0.00012102845039702288,0.01467071186725766
1740927974.3333943,None,None,6.224924316411418e-05,0.006962338427734471,-0.12287022900763356,0.010563742849165269,0.0001203494521150919,0.014186171330985977
1740927974.3467302,None,None,0.04555208078613271,-0.17020858442382802,-0.17630534351145055,0.010626508362638112,0.00011959197903972321,0.013490552043857015
1740927974.358058,None,None,0.0048506525634766096,-0.021768081494140556,0.19010687022900763,0.010666078092790054,0.00012161108838832706,0.014241772665112704
1740927974.3697836,None,None,0.002456450903320251,0.0021739351074219204,-0.00836641221374057,0.010699934120514705,0.00012192931588504141,0.0142093248936665
1740927974.3828468,None,None,0.009639055883789105,0.006962338427734471,0.022167938931297648,0.010739874011251782,0.00012257010766728176,0.01429745017623413
1740927974.3946528,None,None,-0.0023319524169922445,-0.04810429975585928,-0.33661068702290065,0.010763725855830557,0.00012004733932883197,0.012968741767081769
1740927974.4065351,None,None,6.224924316411418e-05,0.014144943408203214,-0.14577099236641233,0.01079327625328964,0.0001191649945939381,0.012393447427718205
1740927974.4184897,None,None,0.028792669165039086,-0.012191274853515566,-0.031267175572519346,0.01084694914652556,0.00011950480159242128,0.012270251434786793
1740927974.4340122,None,None,-0.031062372338867217,0.1147014131347657,0.037435114503816536,0.010856783344932298,0.00011992302703032551,0.01241830766110213
1740927974.4459152,None,None,0.026398467504882728,0.004568136767578224,0.029801526717557092,0.010909933684816997,0.00012076918936313617,0.01253627018080409
1740927974.457604,None,None,0.05752308908691406,-0.021768081494140556,0.10613740458015264,0.010988431498604031,0.00012254583641239258,0.012955716721505642
1740927974.4729843,None,None,0.03358107248535158,-0.021768081494140556,-0.031267175572519346,0.011046310799394325,0.00012294179844193697,0.012832600485980462
1740927974.4854543,None,None,0.05273468576660156,0.016539145068359462,0.08323664122137409,0.0111213040348145,0.00012449722948064453,0.013161647111399732
1740927974.4971623,None,None,-0.011908759057617235,0.006962338427734471,-0.03890076335877879,0.01114494384464624,0.00012444235909451045,0.013008387364270495
1740927974.5107193,None,None,-0.004726154077148381,0.004568136767578224,0.09087022900763353,0.011176669405360478,0.00012557556720143773,0.013367569028041825
1740927974.523946,None,None,0.019215862524414096,-0.00022026655273432727,0.13667175572519086,0.01122757795860554,0.0001273233671299565,0.01390768663106888
1740927974.5352213,None,None,-0.04782178395996106,-0.03134488813476555,-1.733557251908397,0.011189407809653593,0.00011216110485808398,0.007062315494324928
1740927974.5494356,None,None,-0.033456573999023576,-0.01697967817382806,2.0069007633587788,0.01123868183546046,0.0001297638059304805,0.014986902973044253
1740927974.5634892,None,None,-0.011908759057617235,-0.16781438276367178,-0.06943511450381701,0.011261336735496449,0.00012944787783513546,0.014713349804576153
1740927974.5749638,None,None,0.012033257543945242,0.06681737993164069,-0.10760305343511467,0.01130150129083563,0.0001290054457273915,0.01428903071807646
1740927974.5861099,None,None,0.03597527414550772,-0.024162283154296804,-0.2297404580152671,0.011357606666716572,0.00012770018220181642,0.013382327602245694
1740927974.6005623,None,None,-0.043033380639648566,-0.06486371137695307,0.10613740458015264,0.011360425844809988,0.00012864315957830511,0.013801810958170091
1740927974.613176,None,None,0.002456450903320251,-0.06486371137695307,0.3275114503816794,0.011402432060534139,0.00013194967125416656,0.01509557898843846
1740927974.625534,None,None,0.03597527414550772,0.04287536333007819,0.20537404580152674,0.0114675821091006,0.00013449515188763622,0.015907247706220037
1740927974.6374495,None,None,-0.004726154077148381,-0.026556484814453052,0.15193893129770997,0.011500587959843265,0.0001362144409523782,0.016508007800169228
1740927974.6500459,None,None,-0.019091364038085867,0.016539145068359462,-0.05416793893129768,0.011518262117018783,0.00013598048392677271,0.016294940610889205
1740927974.6623282,None,None,0.028792669165039086,-0.03852749311523429,-0.0007328244274811269,0.011573780437556245,0.0001366601302640873,0.016292861745266916
1740927974.6749704,None,None,-0.033456573999023576,0.10991300981445318,-0.06943511450381701,0.011580207218764736,0.00013615502271866107,0.01601944407549302
1740927974.7029285,None,None,0.0048506525634766096,0.026115951708984453,0.22064122137404585,0.01162202949455577,0.00013858961197452642,0.016891485437651142
1740927974.7244685,None,None,0.03597527414550772,-0.00022026655273432727,-0.2831755725190841,0.01167727914710381,0.00013682933664536793,0.015774125155915298
1740927974.7364798,None,None,-0.023879767358398363,0.11230721147460945,0.09850381679389297,0.01169472779733449,0.00013791087057952827,0.016163779242612215
1740927974.7483356,None,None,0.016821660864257737,-0.005008669873046823,0.11377099236641208,0.011743752948752855,0.0001395211819416846,0.016613792922409793
1740927974.767806,None,None,6.224924316411418e-05,0.03808696000976569,-0.016000000000000014,0.011777219418187757,0.0001398142881426676,0.01655140640048745
1740927974.7824917,None,None,-0.06697539724121104,-0.16781438276367178,0.09850381679389297,0.011761392853533637,0.00014048672281727337,0.016941141864383804
1740927974.8069541,None,None,-0.004726154077148381,-0.033739089794921795,2.029801526717557,0.011834085145440348,0.00015915735657799247,0.024957503111085112
1740927974.829557,None,None,-0.009514557397460877,-0.009797073193359318,-1.8098931297709924,0.011821319060077327,0.00014322948247322148,0.017812499282446784
1740927974.845214,None,None,0.031186870825195223,0.1147014131347657,-0.07706870229007645,0.011877196121993389,0.00014329177170365945,0.017509107073994917
1740927974.8599179,None,None,-0.0502159856201172,0.0285101533691407,-0.031267175572519346,0.011871259920753769,0.0001429479651478353,0.01738649113726256
1740927974.8778455,None,None,-0.023879767358398363,0.009356540087890719,1.999267175572519,0.011928594402463683,0.00016123613691955795,0.025282245074495432
1740927974.8974595,None,None,-0.011908759057617235,0.014144943408203214,0.16720610687022885,0.011955610303734859,0.00016311335812451647,0.025944637636425547
1740927974.911509,None,None,0.059917290747070195,0.0021739351074219204,-0.10760305343511467,0.012032399087872752,0.00016326606248696256,0.02552194123953861
1740927974.9256952,None,None,0.04794628244628907,-0.03134488813476555,2.0221679389312976,0.01214563070659611,0.00018263404792970107,0.03350938342837549
1740927974.9372294,None,None,0.026398467504882728,-0.026556484814453052,2.0221679389312976,0.012241898534743887,0.00020187280343028906,0.0414980821904964
1740927974.948705,None,None,6.224924316411418e-05,-0.055286904736328024,-0.30607633587786287,0.01226764140575406,0.00019974446520077028,0.04029405197064599
1740927974.96175,None,None,0.04794628244628907,-0.0911999296386718,2.029801526717557,0.012380716877810912,0.00021945542569452967,0.04831388584099525
1740927974.9754276,None,None,-0.019091364038085867,0.0021739351074219204,0.037435114503816536,0.012398730982757318,0.00022030704799489207,0.048467331880569106
1740927974.986674,None,None,-0.01669716237792973,0.05963477495117195,-1.7564580152671758,0.012380043092100177,0.00020479312975969338,0.04153687876174668
1740927975.0031006,None,None,-0.04782178395996106,0.011750741748046967,-0.023633587786259458,0.012374803108587422,0.0002046412864671075,0.04144792006292098
1740927975.0200462,None,None,0.04555208078613271,-0.021768081494140556,-1.7869923664122136,0.012404176281718778,0.00018958392350689328,0.03439565547592727
1740927975.0331972,None,None,0.03836947580566408,0.033298556689453196,-0.06943511450381701,0.012465756682144906,0.00019014599983007438,0.034124584263250095
1740927975.0492618,None,None,0.021610064184570232,-0.014585476513671813,-0.00836641221374057,0.012515851584332148,0.00019105703164115116,0.03409457663474458
1740927975.062501,None,None,0.0144274592041016,-0.15105497114257804,0.11377099236641208,0.012563152381675963,0.00019300631079129072,0.0345468261646682
1740927975.078954,None,None,0.02400426584472659,0.03808696000976569,0.2282748091603053,0.012620524270783312,0.0001961719568027914,0.03545127100368723
1740927975.0918255,None,None,0.019215862524414096,-0.03134488813476555,-0.130503816793893,0.012666475603918953,0.00019598398803403962,0.034939062991459206
1740927975.1132786,None,None,-0.01669716237792973,0.009356540087890719,0.33514503816793884,0.012694674226137303,0.0001995681325506125,0.03626549594593455
1740927975.1248367,None,None,-0.0023319524169922445,-0.01937387983398431,-0.04653435114503823,0.012725657946034667,0.00019984921598461525,0.036084920898659
1740927975.1432507,None,None,-0.04782178395996106,0.0021739351074219204,0.26644274809160295,0.012727912712458047,0.00020232114161500373,0.037140160486751325
1740927975.1545157,None,None,0.04315787912597657,-0.0289506864746093,0.05270229007633587,0.012796519293838226,0.0002042566125704487,0.037351524846773135
1740927975.1661203,None,None,-0.011908759057617235,-0.026556484814453052,-1.7869923664122136,0.012781744919118758,0.00018818215924059405,0.030298253325733743
1740927975.1797938,None,None,-0.004726154077148381,0.12427821977539069,-1.7564580152671758,0.012773730908499804,0.00017242749247859752,0.023364375550141668
1740927975.1925323,None,None,-0.019091364038085867,0.08357679155273445,-0.0007328244274811269,0.012793678471401965,0.00017277205791727603,0.023362371522313595
1740927975.2105355,None,None,6.224924316411418e-05,0.021327548388671957,-0.10760305343511467,0.01282624798721592,0.00017243364523307402,0.02293834899805607
1740927975.2218869,None,None,-0.004726154077148381,0.07399998491210943,1.9763664122137403,0.012901308348714769,0.00019155882798618142,0.03074342441272649
1740927975.234955,None,None,-0.011908759057617235,-0.012191274853515566,1.9687328244274809,0.012970028992891064,0.00021057624485167498,0.038519608636838426
1740927975.2473578,None,None,-0.019091364038085867,0.016539145068359462,-0.07706870229007645,0.012987040351086561,0.0002103075397449318,0.03821858294217545
1740927975.2622275,None,None,-0.004726154077148381,-0.009797073193359318,0.04506870229007642,0.013018050939783142,0.0002114320245241387,0.03839976266775946
1740927975.2804372,None,None,-0.04782178395996106,-0.03613329145507804,0.06033587786259531,0.013015433526424702,0.00021194075118850876,0.03864121497819238
1740927975.2926984,None,None,-0.009514557397460877,0.01893334672851571,-1.7640916030534353,0.01300208215306136,0.0001959081718846679,0.03167841175073072
1740927975.305908,None,None,0.019215862524414096,0.09794200151367194,-0.09233587786259534,0.013049236437319887,0.00019613045530564603,0.03131582473123206
1740927975.3505032,None,None,-0.05261018728027356,0.011750741748046967,-0.023633587786259458,0.013041361752205844,0.00019569198956818958,0.031224440347499858
1740927975.3789117,None,None,0.019215862524414096,0.09315359819335944,0.15193893129770997,0.013093921640932892,0.00019822751524249937,0.031826312891852164
1740927975.4033628,None,None,0.05752308908691406,0.0285101533691407,-0.15340458015267178,0.013170017898972998,0.00019860663248411073,0.031222531047088338
1740927975.4211726,None,None,-0.004726154077148381,0.026115951708984453,0.28170992366412206,0.013206998351775367,0.00020195493102788994,0.032336786304564005
1740927975.4420123,None,None,-0.021485565698242226,0.021327548388671957,-0.17630534351145055,0.01322035989375235,0.00020065479747431904,0.03164261157590677
1740927975.4671428,None,None,-0.055004388940429694,-0.026556484814453052,1.9610992366412212,0.013255142161245974,0.00021898108310806235,0.039388365576880364
1740927975.4957216,None,None,-0.004726154077148381,-0.00022026655273432727,-1.7793587786259542,0.01324486857201632,0.00020280712853793575,0.03236525215791192
1740927975.5092618,None,None,0.012033257543945242,0.033298556689453196,-0.03890076335877879,0.013287545745780192,0.00020345037356965761,0.032213569166938655
1740927975.526783,None,None,-0.05739859060058605,-0.00022026655273432727,0.06796946564885475,0.013277627334002862,0.00020374540621977615,0.03248384398525506
1740927975.5387788,None,None,0.0048506525634766096,-0.043315896435546786,0.1443053435114503,0.013318541233330681,0.000205988971135774,0.03305556370715469
1740927975.552423,None,None,0.03358107248535158,-0.012191274853515566,-1.6724885496183206,0.013341403663111383,0.00019155231515604994,0.026453334936154524
1740927975.5657573,None,None,0.02400426584472659,-0.01937387983398431,-0.00836641221374057,0.0133948041003622,0.00019271975924921037,0.026421160171530463
1740927975.5780237,None,None,0.009639055883789105,-0.005008669873046823,0.022167938931297648,0.013437611176445376,0.00019389421854329152,0.026509542198956924
1740927975.5897105,None,None,-0.04063917897949221,-0.009797073193359318,-0.05416793893129768,0.013438743650684237,0.00019332761000973462,0.0262965066021376
1740927975.6033652,None,None,0.002456450903320251,-0.05049850141601553,0.014534351145038205,0.013475557797655129,0.00019428418486138407,0.026354704599668072
1740927975.6171842,None,None,-0.028668170678710858,-0.01937387983398431,-0.17630534351145055,0.013483286524415454,0.00019279106160894588,0.025659338314949952
1740927975.6308045,None,None,0.05752308908691406,0.009356540087890719,0.13667175572519086,0.013566705755103822,0.00019603472166424755,0.026199685205911632
1740927975.642958,None,None,-0.014302960717773372,-0.009797073193359318,-0.016000000000000014,0.013589655798433823,0.00019636665223027506,0.02613727067927568
1740927975.654892,None,None,-0.011908759057617235,0.1194898164550782,-0.1381374045801529,0.013611700416976857,0.00019558185063497192,0.02559255375321796
1740927975.6684272,None,None,0.03358107248535158,-0.021768081494140556,0.22064122137404585,0.013678174795160526,0.00019915344761576117,0.026464432065095255
1740927975.6810944,None,None,-0.02627396901855472,0.033298556689453196,0.2588091603053435,0.013697806228921439,0.00020186689904381634,0.027487169951167654
1740927975.6934288,None,None,-0.05739859060058605,-0.01937387983398431,-0.0007328244274811269,0.013686475039754125,0.00020145940793656584,0.02748522524203281
1740927975.706688,None,None,0.16047376047363282,-0.01697967817382806,1.9763664122137403,0.013893896490591999,0.00022445425673707262,0.0352901237464175
1740927975.7256875,None,None,-0.009514557397460877,0.011750741748046967,-0.09233587786259534,0.013918678370180937,0.00022423099736485215,0.03492770998491519
1740927975.7381773,None,None,0.0048506525634766096,0.0021739351074219204,0.26644274809160295,0.013963112843550026,0.00022774250548958827,0.03598190065105863
1740927975.7510583,None,None,0.02400426584472659,-0.002614468212890575,-0.10760305343511467,0.014014384269921154,0.00022809651611056914,0.03555925224970897
1740927975.7648542,None,None,0.016821660864257737,-0.00022026655273432727,0.11377099236641208,0.014065120870656691,0.00023043042015941827,0.03601063770608324
1740927975.7772317,None,None,0.02400426584472659,0.023721750048828205,-0.09996946564885523,0.014116845018575954,0.00023088541360823068,0.03561808131295507
1740927975.7990317,None,None,0.03358107248535158,0.014144943408203214,-0.09996946564885523,0.014176449296908845,0.00023156164056225642,0.03522543008562179
1740927975.8112347,None,None,-0.02627396901855472,-0.0289506864746093,-0.17630534351145055,0.01418647610436799,0.00023019739719699946,0.03453128599670432
1740927975.8290052,None,None,-0.00712035573730474,-0.012191274853515566,0.08323664122137409,0.014217789772891376,0.0002317471036638189,0.03486183335117248
1740927975.8420095,None,None,-0.014302960717773372,0.04766376665039068,0.12140458015267175,0.01424418004403305,0.0002335094301604809,0.035343124461129555
1740927975.8602052,None,None,-0.014302960717773372,0.004568136767578224,0.05270229007633587,0.014268919589299045,0.00023461145990928675,0.035553190261676026
1740927975.8727286,None,None,-0.0502159856201172,0.006962338427734471,0.04506870229007642,0.014264517075671517,0.00023482510758055447,0.0357331376134803
1740927975.884946,None,None,-0.014302960717773372,-0.17978539106445307,-0.031267175572519346,0.014287038542574484,0.00023510681186327125,0.03561165403258488
1740927975.8971794,None,None,0.028792669165039086,-0.002614468212890575,0.04506870229007642,0.014346009954278907,0.00023711823537442083,0.035791528415766966
1740927975.908672,None,None,-0.019091364038085867,0.004568136767578224,-1.7564580152671758,0.014324995686360722,0.00022057746791121413,0.02885790786576709
1740927975.9224265,None,None,-0.021485565698242226,-0.060075308056640575,-1.8175267175572518,0.014301085164797734,0.00020333635309763274,0.021682001510622412
1740927975.933755,None,None,-0.033456573999023576,-0.1342955595214843,0.12140458015267175,0.014312736183449686,0.0002045835322405436,0.022160984783059817
1740927975.944995,None,None,-0.028668170678710858,-0.024162283154296804,-0.05416793893129768,0.014323992762422874,0.00020423970783618048,0.021946784576461233
1740927975.9580207,None,None,0.05273468576660156,-0.17739118940429677,2.0374351145038165,0.014449250960410746,0.00022608416395945114,0.02999139472286208
1740927975.969522,None,None,-0.014302960717773372,0.09554779985351569,0.06033587786259531,0.014474240824461974,0.0002272254914592964,0.030230606945451155
1740927975.980991,None,None,0.012033257543945242,0.07160578325195319,0.07560305343511464,0.014520812503762108,0.00022912829017225864,0.030530116122228657
1740927975.9930074,None,None,-0.03585077565917971,-0.009797073193359318,2.0450687022900764,0.014574280332364674,0.0002490693819694753,0.038606270562118156
1740927976.0054548,None,None,0.0551288874267577,0.023721750048828205,2.0603358778625953,0.014700978283844477,0.0002713310708940799,0.04674395996470797
