timestamp,gps_lat,gps_lng,imu_accel_x,imu_accel_y,imu_gyro_z,estimated_x,estimated_y,estimated_heading
1740926259.8595219,None,None,-0.05224626862792947,-0.024310723657226585,0.175175572519084,0.0,0.0,0.0006369928165375194
1740926259.8718407,None,None,-0.0019680337646481583,-0.009945513696289099,-1.7408549618320612,1.2667715491597234e-07,2.0625480845040243e-09,-0.005963843141341207
1740926259.883323,None,None,0.005214571215820474,-0.15120341164550782,-0.14543511450381663,-5.495097728500635e-07,3.834425712868189e-09,-0.006623420576696206
1740926259.8946526,None,None,-0.018727445385742003,0.021179107885742177,0.007236641221374018,-1.6128249110040754e-06,7.082342569440913e-09,-0.0066495661514090545
1740926259.911948,None,None,0.201539107348633,0.12173557761230466,0.09120610687022901,2.5414045382500315e-06,-2.1443455753098236e-08,-0.006325123917134746
1740926259.9241483,None,None,0.036339192797851805,-0.033887530297851576,-0.03856488549618309,4.930127709546315e-06,-3.6077233486080733e-08,-0.006498015109731762
1740926259.9365203,None,None,-0.0235158487060545,0.0475153261474609,1.8698320610687023,6.3318944734214e-06,-2.0665676654766034e-08,0.0008567079971715996
1740926259.958802,None,None,-0.013939042065429508,0.030755914526367167,-0.1683358778625954,7.074405767069669e-06,-1.570132587251438e-08,0.000193675968585591
1740926259.9717584,None,None,-0.004362235424804517,-0.15838601662597657,-0.05383206106870242,8.134081570477486e-06,-1.3537190714965537e-08,-1.883316573836848e-05
1740926259.9832623,None,None,0.0411275961181643,-0.16796282326660156,0.030137404580152793,1.1638553907812173e-05,-1.6108154891699963e-08,0.00010044529954011139
1740926260.0049107,None,None,-0.004362235424804517,0.02836171286621092,-0.10726717557251897,1.2975998406256189e-05,-1.6892420911476797e-08,-0.00032430107486807066
1740926260.017426,None,None,0.033944991137695446,-0.014733917016601594,0.04540458015267168,1.6878308063395086e-05,-1.77122603290934e-08,-0.0001445891654781987
1740926260.0340672,None,None,0.18477969572753916,-0.16796282326660156,-0.1378015267175572,3.1730795200530365e-05,-3.7314024709257506e-08,-0.0006911601516842932
1740926260.0474484,None,None,-0.011544840405273149,0.009208099584960883,-0.0690992366412213,3.464319584499435e-05,-4.138790312046139e-08,-0.0009657368531703518
1740926260.0605369,None,None,-0.03069845368652313,0.0475153261474609,-0.06146564885496186,3.584244996258424e-05,-4.537523845813037e-08,-0.0012102268587896724
1740926260.073622,None,None,-0.006756437084960654,-0.033887530297851576,-0.015664122137404757,3.8730326898785294e-05,-4.884622161286913e-08,-0.0012730089868094325
1740926260.0850117,None,None,-0.049852066967773334,0.0020254946044921396,-0.030931297709923644,3.7533997150956696e-05,-4.947305714173412e-08,-0.0013964146130417403
1740926260.096304,None,None,-0.018727445385742003,0.09779356101074216,0.11410687022900756,3.888349633200879e-05,-3.8350577772184535e-08,-0.0009436647204839422
1740926260.1131673,None,None,-0.09534189851074193,0.01160230124511713,0.10647328244274812,3.2063096521726167e-05,-1.700774164296594e-08,-0.0005209323181726424
1740926260.1250277,None,None,0.005214571215820474,-0.007551312036132851,0.030137404580152793,3.447654955656514e-05,-1.412413287157805e-08,-0.00040132478554715954
1740926260.136732,None,None,0.012397176196289328,0.033150116186523415,1.9767022900763358,4.1407923833687194e-05,1.982361209446356e-07,0.007455698697138092
1740926260.155918,None,None,0.014791377856445465,-0.05543534523925786,0.12174045801526723,4.51858998716361e-05,2.2406348476747813e-07,0.007941914777795541
1740926260.1678267,None,None,-0.07139988190917945,-0.17035702492675786,0.0759389312977099,3.844216641999073e-05,2.3790590784398497e-07,0.008246076737837785
1740926260.1809487,None,None,-0.02112164704589814,-0.007551312036132851,0.18280916030534344,3.7285671484275924e-05,2.5926432970725344e-07,0.00897516442637211
1740926260.1977448,None,None,-0.02112164704589814,0.01878490622558593,-0.0232977099236642,3.54424406658263e-05,2.530798957313803e-07,0.008884753671314156
1740926260.2102807,None,None,0.01000297453613297,-0.0051571103759766035,-0.10726717557251897,3.749386031231427e-05,2.4748488927821087e-07,0.008460247543491414
1740926260.2259703,None,None,-0.016333243725585644,-0.08655996682128908,0.02250381679389335,3.612565153431446e-05,2.436161999278421e-07,0.008551642639527953
1740926260.2402673,None,None,-0.035486857006835626,-0.014733917016601594,-0.20650381679389307,3.130074949217692e-05,2.0049137310993624e-07,0.007732098401743123
1740926260.251998,None,None,0.0411275961181643,0.006813897924804635,-0.13016793893129774,3.7939953452823255e-05,2.146646798407013e-07,0.007215901239838927
1740926260.271322,None,None,-0.013939042065429508,-0.0626179502197266,0.007236641221374018,3.662013583260743e-05,2.0644753879010007e-07,0.0072460850845010635
1740926260.2836583,None,None,-0.028304252026366994,-0.012339715356445347,0.02250381679389335,3.274986534084915e-05,1.8592377249055822e-07,0.007336951168725486
1740926260.3106945,None,None,-0.018727445385742003,0.0475153261474609,-0.1378015267175572,2.9874138235943074e-05,1.548278621559797e-07,0.0067900803692567254
1740926260.3257103,None,None,0.002820369555664337,0.025967511206054672,-0.0232977099236642,3.064785035160197e-05,1.5314175992459767e-07,0.006698564505576792
1740926260.3390539,None,None,-0.0019680337646481583,-0.009945513696289099,-0.09963358778625953,3.0520027018547046e-05,1.4069724900218387e-07,0.006303311623867907
1740926260.3545327,None,None,0.02197398283691432,-0.014733917016601594,-0.06146564885496186,3.484279427484382e-05,1.566305406801663e-07,0.006059792314972835
1740926260.366444,None,None,0.02197398283691432,-0.04825274025878912,-0.015664122137404757,3.9553114354866944e-05,1.7889164380478555e-07,0.005998410212095173
1740926260.3782651,None,None,-0.047457865307616975,0.004419696264648387,-0.19887022900763363,3.089620522915622e-05,1.1162039827580238e-07,0.005208147907356555
1740926260.395348,None,None,0.02915658781738295,0.021179107885742177,-0.030931297709923644,3.69967964801334e-05,1.4077582465201834e-07,0.005085841239249187
1740926260.409273,None,None,0.01000297453613297,0.03793851950683591,0.10647328244274812,3.9761299023701844e-05,1.613389355356498e-07,0.005510123274739326
1740926260.422069,None,None,0.026762386157226814,-0.15120341164550782,0.014870229007633462,4.6082786722539027e-05,1.9504957808342549e-07,0.0055700322739820635
1740926260.438908,None,None,-0.025910050366210635,-0.014733917016601594,-0.008030534351144869,4.152753500564544e-05,1.6637235196193488e-07,0.0055388280141324495
1740926260.4505174,None,None,-0.05464047028808583,-0.0051571103759766035,-0.1683358778625954,3.0174236256245666e-05,8.738695730533951e-08,0.004869892803042299
1740926260.4655874,None,None,0.005214571215820474,-0.021916521997070337,-0.2370381679389313,3.132060382340549e-05,7.379474816717931e-08,0.003927557550559133
1740926260.478017,None,None,-0.009150638745117012,0.006813897924804635,-0.2141374045801525,2.9309220722671264e-05,4.537673945051158e-08,0.0030761924711097473
1740926260.4893062,None,None,0.0004261678955079784,0.042726922827148406,-0.08436641221374064,2.950969894151249e-05,3.91496671247173e-08,0.002740928691312559
1740926260.5022357,None,None,0.014791377856445465,0.06906314108886716,-0.04619847328244253,3.315187825362635e-05,5.345312812420367e-08,0.002557443275060849
1740926260.5159726,None,None,0.005214571215820474,-0.05782954689941411,-0.11490076335877841,3.464712426078449e-05,5.1577303240729225e-08,0.0021006573242967454
1740926260.527333,None,None,0.036339192797851805,0.054697931127929644,0.03777099236641224,4.3981018445172837e-05,9.696218347891459e-08,0.0022510791798203
1740926260.539013,None,None,-0.006756437084960654,0.11455297263183589,0.02250381679389335,4.304565932584702e-05,9.106086967474724e-08,0.0023407887635032805
1740926260.55084,None,None,-0.004362235424804517,0.1337065859130859,-1.8324580152671754,4.129558229597256e-05,-4.335293363733354e-08,-0.004947290214930202
1740926260.5649993,None,None,-0.057034671948241966,-0.012339715356445347,-0.030931297709923644,2.7181534060754377e-05,-1.0682711662298545e-07,-0.005071043175395691
1740926260.5768788,None,None,-0.04506366364746084,0.11934137595214839,-0.05383206106870242,1.540054164150102e-05,-1.486255407496171e-07,-0.0052858737669729695
1740926260.5885515,None,None,-0.04506366364746084,0.12173557761230466,0.0759389312977099,3.071300283824827e-06,-1.7242663254830844e-07,-0.004984620499525871
1740926260.6062758,None,None,-0.0019680337646481583,-0.14641500832519533,0.04540458015267168,1.784019627057348e-06,-1.608642457654954e-07,-0.0048047572169725656
1740926260.6180503,None,None,-0.04266946198730448,0.030755914526367167,1.9461679389312978,-9.77183931233742e-06,-8.351959694137652e-08,0.0029338306916496353
1740926260.6342146,None,None,0.02915658781738295,0.07863994772949215,-1.8324580152671754,-3.6968741581447077e-06,-1.3964517955084243e-07,-0.004352676873429493
1740926260.6463237,None,None,-0.006756437084960654,-0.017128118676757842,0.03777099236641224,-6.553177475624245e-06,-1.3265563558145145e-07,-0.00420308646459662
1740926260.65804,None,None,0.05070440275878929,0.0810341493896484,-0.10726717557251897,6.967191059385712e-06,-1.0391483484908025e-07,-0.0046301785585381415
1740926260.677205,None,None,-0.004362235424804517,0.004419696264648387,-0.15306870229007652,5.100001928751762e-06,-1.0248516379701069e-07,-0.005239407680122932
1740926260.6887207,None,None,0.01000297453613297,0.025967511206054672,0.14464122137404578,7.503426949353784e-06,-9.175048802064998e-08,-0.004665010617190073
1740926260.7014241,None,None,0.06985801604003927,-0.0003687070556641081,-0.15306870229007652,2.7870224549637716e-05,-7.611528968772689e-08,-0.0052741783574742716
1740926260.7141972,None,None,-0.025910050366210635,-0.15599181496582032,-0.20650381679389307,2.0126757788252673e-05,-8.092449965451021e-08,-0.006095821997458076
1740926260.7260313,None,None,-0.049852066967773334,-0.024310723657226585,-0.03856488549618309,4.737605748187017e-06,-7.929498247305427e-08,-0.006249892670412572
1740926260.7384872,None,None,-0.028304252026366994,0.04033272116699216,-0.03856488549618309,-4.617894600988425e-06,-7.040193716572098e-08,-0.006403965681794591
1740926260.7562208,None,None,-0.09534189851074193,-0.13923240334472659,0.053038167938931347,-3.5386257034922056e-05,-4.3473139724443016e-08,-0.006193910723426304
1740926260.768241,None,None,-0.06182307526855446,-0.15120341164550782,-0.015664122137404757,-5.6763293939805586e-05,-9.53978844089082e-09,-0.006256916772435177
1740926260.7798402,None,None,-0.035486857006835626,0.13131238425292965,-1.8400916030534349,-7.05499849011185e-05,7.520097724680157e-08,-0.013571558658245844
1740926260.7916648,None,None,0.16562608244628918,0.023573309545898424,1.9767022900763358,-1.956986056748335e-05,-4.78186556825058e-08,-0.005716590826170008
1740926260.806432,None,None,0.014791377856445465,0.023573309545898424,0.03777099236641224,-1.5877279297913218e-05,-5.0729173360287426e-08,-0.005567127225868407
1740926260.818016,None,None,-0.013939042065429508,-0.17035702492675786,2.007236641221374,-2.1737942103579674e-05,-1.4314870803468429e-07,0.0024094604544692127
1740926260.8354664,None,None,-0.006756437084960654,-0.007551312036132851,1.991969465648855,-2.543320435949752e-05,-2.627370953960898e-07,0.01032595432411706
1740926260.8469481,None,None,-0.013939042065429508,0.0020254946044921396,-0.1683358778625954,-3.1339750135805935e-05,-2.637283770629443e-07,0.009658222477319003
1740926260.8582904,None,None,-0.05464047028808583,-0.07937736184082034,0.06067175572519079,-5.1341711896541156e-05,-2.705668201242283e-07,0.00990043760835793
1740926260.8758998,None,None,0.014791377856445465,-0.01952232033691409,-0.04619847328244253,-4.811263122276558e-05,-2.9574949007839786e-07,0.009718006638028133
1740926260.8874204,None,None,0.19914490568847665,0.1337065859130859,-0.2675725190839695,1.9329319371134225e-05,-2.948404884845491e-07,0.008655955822988459
1740926260.8986888,None,None,-0.049852066967773334,-0.05543534523925786,-0.3515419847328243,2.0325342625024807e-06,-2.659241165924014e-07,0.007260194681792882
1740926260.9103458,None,None,0.0076087728759768325,-0.15838601662597657,1.991969465648855,3.7770577760538475e-06,-4.3681319139500713e-07,0.015175060790430704
1740926260.926378,None,None,-0.02112164704589814,-0.002762908715820356,-1.8477251908396948,-3.5561426390715204e-06,-2.8970720272942955e-07,0.007836111700606926
1740926260.9385953,None,None,-0.09534189851074193,-0.0003687070556641081,-0.1683358778625954,-3.821890923705404e-05,-3.2958371350376696e-07,0.0071682196617939686
1740926260.9501147,None,None,0.005214571215820474,-0.014733917016601594,-0.04619847328244253,-3.7701284036086965e-05,-3.33780870197841e-07,0.0069854569086343484
1740926260.9683993,None,None,0.017185579516601823,-0.002762908715820356,0.03777099236641224,-3.280077650921769e-05,-3.3595822897392534e-07,0.007136222790685124
1740926260.980972,None,None,0.01000297453613297,-0.14162660500488283,-0.1836030534351143,-3.0267522769835003e-05,-3.185037853070978e-07,0.006407675622926572
1740926260.9923177,None,None,0.012397176196289328,0.030755914526367167,0.030137404580152793,-2.6818764067876433e-05,-3.1820307533381676e-07,0.006528027155552563
1740926261.0036614,None,None,-0.037881058666991985,0.02836171286621092,-0.03856488549618309,-4.1898812573577155e-05,-3.5507752372762855e-07,0.006375514182641327
1740926261.015257,None,None,-0.03309265534667949,0.12412977927246091,-0.015664122137404757,-5.562924875999688e-05,-3.9471714404419404e-07,0.006313935591751952
1740926261.0269313,None,None,-0.09534189851074193,0.01639070456542968,-0.1225343511450383,-9.31319657409693e-05,-4.906337791308944e-07,0.005827926221957622
1740926261.0387197,None,None,0.024368184497070455,-0.009945513696289099,-0.2370381679389313,-8.629261040208847e-05,-4.48862221469016e-07,0.004887161712965587
1740926261.0533898,None,None,-0.016333243725585644,0.03554431784667966,0.0759389312977099,-9.486830290432649e-05,-4.898755059241142e-07,0.0051891592029927654
1740926261.0668757,None,None,-0.04027526032714834,0.006813897924804635,-0.030931297709923644,-0.00011276045386525918,-5.45591558846013e-07,0.005066810730557802
1740926261.0786898,None,None,-0.011544840405273149,-0.15359761330566407,-0.15306870229007652,-0.00011995685856970034,-5.488083914637196e-07,0.004459485131395558
1740926261.1000862,None,None,0.014791377856445465,0.1337065859130859,0.014870229007633462,-0.00011719525053981427,-5.462771044078037e-07,0.004518908293510591
1740926261.1114914,None,None,-0.004362235424804517,-0.017128118676757842,-0.32100763358778606,-0.00012152587159198004,-5.019654160186354e-07,0.0032448008112303194
1740926261.1262305,None,None,-0.04266946198730448,-0.14162660500488283,-0.1378015267175572,-0.00014105137493985775,-5.355546053464139e-07,0.0026979481045845384
1740926261.14061,None,None,0.014791377856445465,0.0475153261474609,0.29731297709923665,-0.0001387759204967562,-5.892514674271928e-07,0.003878428960358991
1740926261.1521084,None,None,-0.047457865307616975,-0.024310723657226585,-0.09200000000000008,-0.00016066644754228932,-6.398684360416724e-07,0.0035135152510780815
1740926261.169395,None,None,0.012397176196289328,-0.014733917016601594,0.053038167938931347,-0.00015942226581532653,-6.482254720830632e-07,0.003724312943375414
1740926261.180757,None,None,0.01000297453613297,-0.033887530297851576,-0.14543511450381663,-0.00015884745373666908,-6.081779772235931e-07,0.0031473031621033778
1740926261.19215,None,None,0.033944991137695446,0.04033272116699216,0.030137404580152793,-0.00014877581065097899,-5.808040944715674e-07,0.003267136395616044
1740926261.2084181,None,None,-0.0019680337646481583,0.04033272116699216,0.10647328244274812,-0.00015291816710650028,-6.229032767903371e-07,0.0036899572960771786
1740926261.22291,None,None,-0.018727445385742003,-0.0051571103759766035,-0.04619847328244253,-0.0001637115662775852,-6.440097394155202e-07,0.0035068712128163305
1740926261.2348557,None,None,0.012397176196289328,0.006813897924804635,-0.17596946564885485,-0.00016194705692227696,-5.81791043119698e-07,0.002808746633849746
1740926261.2466192,None,None,-0.004362235424804517,-0.017128118676757842,-0.2141374045801525,-0.00016685995334262576,-5.246155006080086e-07,0.00195909809740955
1740926261.2578886,None,None,-0.057034671948241966,0.1289181825927734,-0.19123664122137418,-0.00019337749366004814,-5.39771721912844e-07,0.0012002641382815832
1740926261.2694921,None,None,0.012397176196289328,0.0020254946044921396,-1.870625954198473,-0.00018994012536440813,1.3684352328162672e-07,-0.006222760010161096
1740926261.280818,None,None,0.01000297453613297,-0.017128118676757842,-0.13016793893129774,-0.00018957363049292388,2.2681151918233383e-07,-0.006740165056063247
1740926261.2924228,None,None,-0.05464047028808583,-0.03149332863769533,-0.06146564885496186,-0.00021589516803532344,2.23082775684686e-07,-0.006985000031426855
1740926261.31727,None,None,-0.028304252026366994,0.023573309545898424,-0.1836030534351143,-0.00023169629527585827,3.064500636534008e-07,-0.007714446672352949
1740926261.3294375,None,None,0.005214571215820474,-0.009945513696289099,0.06067175572519079,-0.00023422550726494184,3.28429519812326e-07,-0.007474775938864309
1740926261.3410237,None,None,0.01957978117675796,-0.02909912697753908,0.21334351145038166,-0.00023098847531532083,2.89955647043001e-07,-0.006629375690568003
1740926261.353767,None,None,-0.009150638745117012,0.006813897924804635,-0.09963358778625953,-0.00023912831562476508,3.621516771044632e-07,-0.007025537832226293
1740926261.3660593,None,None,-0.0235158487060545,-0.033887530297851576,-0.008030534351144869,-0.0002535343168069605,3.9054561761287646e-07,-0.007058331372246183
1740926261.3776402,None,None,0.02197398283691432,-0.002762908715820356,-1.8553587786259542,-0.0002461696955011119,1.3182540271980324e-06,-0.01441919210931703
1740926261.3893795,None,None,-0.004362235424804517,0.03793851950683591,0.03777099236641224,-0.00025277575831148213,1.3683783083910914e-06,-0.014271163518715569
1740926261.4054585,None,None,-0.004362235424804517,-0.002762908715820356,1.877465648854962,-0.00026253196912642894,4.868503602545661e-07,-0.006825913997876965
1740926261.4169798,None,None,-0.03069845368652313,0.042726922827148406,-0.2523053435114502,-0.00027985906037678867,6.553951890290868e-07,-0.007827506351730476
1740926261.4288464,None,None,0.01957978117675796,-0.02909912697753908,1.9767022900763358,-0.0002801263320887927,-3.725084406587921e-07,1.1523790269899262e-05
1740926261.4402657,None,None,0.0004261678955079784,-0.002762908715820356,1.9690687022900764,-0.0002883844541160892,-1.461445164496913e-06,0.007820911045189291
1740926261.4517417,None,None,0.01957978117675796,0.04990952780761715,0.175175572519084,-0.0002852699597847473,-1.603407133748486e-06,0.00851655242233625
1740926261.463178,None,None,-0.011544840405273149,-0.02909912697753908,0.014870229007633462,-0.00029496568463649014,-1.6514682856264514e-06,0.008576514136310998
1740926261.4799852,None,None,-0.006756437084960654,0.025967511206054672,0.19807633587786255,-0.0003030982932252324,-1.810581401323097e-06,0.00936298776940817
1740926261.4914985,None,None,-0.028304252026366994,-0.045858538598632814,-0.14543511450381663,-0.00031985907055113164,-1.7724811008875605e-06,0.00878735131067799
1740926261.5088353,None,None,0.0076087728759768325,0.013996502905273434,0.23624427480916044,-0.00032228581115228044,-1.962377161238288e-06,0.00972511489661264
1740926261.5229943,None,None,-0.016333243725585644,0.023573309545898424,0.12937404580152667,-0.0003347233225883621,-2.099824746707048e-06,0.010239194733229826
1740926261.5343862,None,None,0.026762386157226814,-0.033887530297851576,-0.13016793893129774,-0.00032832704057772385,-2.0527575545232305e-06,0.009724235295256851
1740926261.5463595,None,None,0.0004261678955079784,-0.03628173195800782,0.06830534351145046,-0.00033346178486345077,-2.143798681057338e-06,0.009996128820340261
1740926261.5635707,None,None,0.036339192797851805,-0.01952232033691409,1.9843358778625955,-0.000327190476178377,-3.5112387829927233e-06,0.01786442486689695
1740926261.5782423,None,None,-0.004362235424804517,0.0475153261474609,-1.8400916030534349,-0.00033007722340715,-2.318885755188011e-06,0.010571432287192414
1740926261.5902357,None,None,0.0076087728759768325,0.042726922827148406,-0.15306870229007652,-0.0003314909026728831,-2.2473531065143406e-06,0.009965751604741382
1740926261.6045887,None,None,-0.02112164704589814,0.006813897924804635,-0.16070229007633596,-0.0003452498543280031,-2.198419886909714e-06,0.009329747039774107
1740926261.6212592,None,None,0.05309860441894543,0.023573309545898424,0.007236641221374018,-0.00032753315813859827,-2.1757212764019483e-06,0.009359397224163457
1740926261.634382,None,None,-0.009150638745117012,0.009208099584960883,-0.008030534351144869,-0.000336286030880694,-2.2165819242816043e-06,0.0093285229067289
1740926261.647841,None,None,0.017185579516601823,0.01160230124511713,-1.710320610687023,-0.00033001380805402456,-9.563868378714464e-07,0.002550153754050803
1740926261.663545,None,None,0.036339192797851805,0.013996502905273434,0.10647328244274812,-0.0003193891019919105,-9.933208769653543e-07,0.0029722700584595414
1740926261.677042,None,None,-0.07618828522949195,0.01160230124511713,-1.710320610687023,-0.0003532315467450321,1.8158955598321742e-07,-0.0038064082259008022
1740926261.688422,None,None,-0.028304252026366994,0.006813897924804635,0.03777099236641224,-0.0003708536751890071,1.2945522760053254e-07,-0.0036574059817494333
1740926261.7020752,None,None,0.15365507414550805,0.05948633444824214,-0.17596946564885485,-0.0003093244282031398,4.779047358087094e-07,-0.00435547999659154
1740926261.713672,None,None,0.02915658781738295,0.02836171286621092,0.06067175572519079,-0.0003011961922425492,4.7242036697430345e-07,-0.004115786342033457
1740926261.7250981,None,None,0.03873339445800794,0.013996502905273434,0.007236641221374018,-0.00028857381212144494,5.141411856580141e-07,-0.004087822968249468
1740926261.736593,None,None,-0.05224626862792947,0.01639070456542968,1.9461679389312978,-0.00031945538562945904,-1.0638327449000624e-06,0.003623722765795938
1740926261.7584002,None,None,-0.04027526032714834,0.12412977927246091,-0.13016793893129774,-0.0003408961723955464,-1.0129349425922408e-06,0.0031081847870609676
1740926261.7703424,None,None,0.002820369555664337,-0.15120341164550782,-0.04619847328244253,-0.00034410459920349674,-9.837652624114664e-07,0.0029253271545435504
1740926261.7825127,None,None,0.01957978117675796,0.0714573427490234,-0.30574045801526717,-0.0003394509567282985,-7.294218565333568e-07,0.0017140457147843738
1740926261.798603,None,None,-0.016333243725585644,-0.01952232033691409,-0.1378015267175572,-0.00035067161629641103,-6.426443514968598e-07,0.001168065891147472
1740926261.8103156,None,None,-0.009150638745117012,0.013996502905273434,-1.8553587786259542,-0.0003551717693091921,8.367682770982626e-07,-0.006183132264996596
1740926261.825616,None,None,-0.04506366364746084,-0.017128118676757842,0.10647328244274812,-0.000379728390009535,7.233801254757135e-07,-0.0057622652201569915
1740926261.837712,None,None,0.01000297453613297,0.045121124487304654,-0.09200000000000008,-0.0003802156207513331,8.23608199035041e-07,-0.006127671817420543
1740926261.848983,None,None,-0.09055349519042943,0.042726922827148406,-0.10726717557251897,-0.0004244264701050763,8.645201467613354e-07,-0.006553588585118141
1740926261.8646877,None,None,0.0411275961181643,-0.002762908715820356,2.007236641221374,-0.0004166011997727914,-7.614248869119829e-07,0.0013972906789757817
1740926261.8766515,None,None,0.0076087728759768325,0.0475153261474609,-0.1225343511450383,-0.00041834349099708436,-6.600798298210845e-07,0.0009119047524435346
1740926261.888006,None,None,0.18717389738769552,0.05709213278808589,0.12174045801526723,-0.0003423230040826383,-6.568146815875216e-07,0.001394130346767539
1740926261.899913,None,None,0.0411275961181643,0.12652398093261716,-0.16070229007633596,-0.000327991815560977,-5.001286461209628e-07,0.0007575827413862621
1740926261.916124,None,None,-0.006756437084960654,0.01878490622558593,-0.1836030534351143,-0.00033419991875267537,-3.5225229373901915e-07,3.0260107243208724e-05
1740926261.9279544,None,None,0.06267541105957042,0.01160230124511713,-0.10726717557251897,-0.00031035077870520913,-2.2914073016384296e-07,-0.00039476837926811657
1740926261.9438658,None,None,0.02915658781738295,-0.01952232033691409,0.03777099236641224,-0.00030097214854974124,-2.487310031149593e-07,-0.00024536113688868966
1740926261.9591882,None,None,0.01000297453613297,0.08342835104980464,-0.015664122137404757,-0.0002996113119593991,-2.3438661102829827e-07,-0.0003075797985079291
1740926261.9706671,None,None,0.017185579516601823,-0.0674063535400391,-0.19123664122137418,-0.00029467717407030187,-7.169155221598572e-08,-0.0010651797374081782
1740926261.9833875,None,None,0.017185579516601823,0.0020254946044921396,-0.17596946564885485,-0.00028964908933205126,7.589848287658962e-08,-0.0017623882421204384
1740926261.997781,None,None,-0.07139988190917945,-0.14880920998535158,1.9767022900763358,-0.0003273030599767363,-1.5604682898217852e-06,0.006065756100447823
1740926262.011449,None,None,0.03873339445800794,-0.009945513696289099,-0.14543511450381663,-0.00031323773379002647,-1.4275097778863053e-06,0.005490452584492915
1740926262.0230403,None,None,-0.011544840405273149,0.023573309545898424,-1.8629923664122137,-0.00031762530049733224,5.0079125465912734e-08,-0.0018867183371191216
1740926262.0380378,None,None,-0.025910050366210635,-0.11050198342285161,-0.11490076335877841,-0.0003316792617328918,1.2352226401985338e-07,-0.0023421283083538123
1740926262.0506475,None,None,-0.02112164704589814,-0.0051571103759766035,-1.8400916030534349,-0.000340717115719254,1.5577891992466738e-06,-0.00962922319460009
1740926262.0631807,None,None,0.005214571215820474,0.033150116186523415,-0.11490076335877841,-0.0003415805001953836,1.6501668738337425e-06,-0.010085619320245804
1740926262.0764427,None,None,0.024368184497070455,0.03793851950683591,-0.17596946564885485,-0.00033394188843500827,1.7927705546715353e-06,-0.010783862853666995
1740926262.0881295,None,None,0.005214571215820474,-0.17035702492675786,-0.0690992366412213,-0.0003346702137788258,1.844804450070628e-06,-0.011059000743381247
1740926262.1051204,None,None,-0.004362235424804517,0.025967511206054672,-0.04619847328244253,-0.0003395698317025262,1.8790107063542542e-06,-0.01124347618313051
1740926262.116974,None,None,-0.0019680337646481583,0.023573309545898424,-1.8171908396946566,-0.00034049341148647665,3.2711244450061066e-06,-0.01843999856179037
1740926262.135939,None,None,0.045915999438476796,-0.033887530297851576,-0.2217709923664124,-0.00032325546955098554,3.4200233377829254e-06,-0.019320554797470708
1740926262.1519382,None,None,0.0004261678955079784,0.01878490622558593,-0.11490076335877841,-0.0003257072841022357,3.4984072869639474e-06,-0.019778060873706083
1740926262.1664815,None,None,-0.025910050366210635,0.021179107885742177,-0.09200000000000008,-0.0003396689718066117,3.5845296318604383e-06,-0.02014492302793572
1740926262.1782165,None,None,0.03155078947753931,0.11934137595214839,0.06830534351145046,-0.00032898547299968213,3.4966906436732175e-06,-0.019877153497025325
1740926262.195475,None,None,-0.013939042065429508,-0.002762908715820356,-0.06146564885496186,-0.00033770421536083526,3.555470764484056e-06,-0.02012307279233564
1740926262.2078874,None,None,0.014791377856445465,-0.012339715356445347,0.0759389312977099,-0.00033417952969127114,3.4739391795970085e-06,-0.019825039359902343
1740926262.2230237,None,None,-0.0019680337646481583,-0.045858538598632814,0.053038167938931347,-0.00033780574420655315,3.434953057088039e-06,-0.019617602322797478
1740926262.2349873,None,None,-0.09055349519042943,0.03554431784667966,-0.1225343511450383,-0.0003798145845170709,3.7059949369650077e-06,-0.02010513052607322
1740926262.2470202,None,None,-0.009150638745117012,0.013996502905273434,-0.13016793893129774,-0.0003869327389288356,3.839138852921794e-06,-0.020622903503177473
1740926262.2603436,None,None,0.1512608724853517,0.01639070456542968,-0.03856488549618309,-0.0003242685070106939,3.5167513065839785e-06,-0.020778108716936715
1740926262.2763045,None,None,0.05070440275878929,0.1337065859130859,-0.00039694656488542535,-0.0003044498559271512,3.3702897907958516e-06,-0.020782224890012083
1740926262.288217,None,None,0.0004261678955079784,0.12412977927246091,0.06830534351145046,-0.00030627427313746625,3.299454971998249e-06,-0.02051437865835548
1740926262.3149707,None,None,-0.018727445385742003,-0.01952232033691409,0.26677862595419843,-0.0003166735797692678,3.152298751465956e-06,-0.019460902496205797
1740926262.3302422,None,None,-0.006756437084960654,0.009208099584960883,-1.8477251908396948,-0.0003192880713828536,4.422127640215276e-06,-0.026776455620192846
1740926262.3429234,None,None,-0.03069845368652313,-0.014733917016601594,0.12174045801526723,-0.00033488303629314233,4.428000889313424e-06,-0.026297878708559517
1740926262.357147,None,None,0.045915999438476796,0.013996502905273434,-0.015664122137404757,-0.0003170668590981857,4.257454113403278e-06,-0.026363032311178345
1740926262.368559,None,None,-0.025910050366210635,-0.014733917016601594,0.21334351145038166,-0.00033051406407796647,4.200332922200564e-06,-0.02552181362042682
1740926262.3810673,None,None,0.036339192797851805,-0.09853097512207032,0.06830534351145046,-0.00031677384407923176,3.991516187997223e-06,-0.025254470651543137
1740926262.3970976,None,None,-0.07139988190917945,-0.0003687070556641081,-1.7408549618320612,-0.00034781297977068686,5.406856963870647e-06,-0.032146868699488
1740926262.4117606,None,None,-0.013939042065429508,-0.11529038674316411,0.030137404580152793,-0.00035621016062831667,5.451281610477195e-06,-0.03203143299202262
1740926262.4268475,None,None,0.012397176196289328,0.045121124487304654,-0.008030534351144869,-0.0003531468100134367,5.397340936071317e-06,-0.032066986322160866
1740926262.441949,None,None,-0.011544840405273149,0.12173557761230466,-0.16070229007633596,-0.0003602781961016532,5.560087252833951e-06,-0.03270666536345951
1740926262.453737,None,None,0.012397176196289328,0.006813897924804635,-1.8324580152671754,-0.0003553499416937045,6.6346414796760155e-06,-0.03996181716318566
1740926262.4653435,None,None,-0.05464047028808583,0.12173557761230466,-1.8400916030534349,-0.00037967460232084385,8.095785113082748e-06,-0.04724798347806204
1740926262.482992,None,None,-0.09534189851074193,-0.014733917016601594,-0.19123664122137418,-0.0004238112996321619,8.853405386105401e-06,-0.04801041606382269
1740926262.496028,None,None,-0.006756437084960654,0.0475153261474609,-0.15306870229007652,-0.0004299403769884621,9.070591769049691e-06,-0.04862184850051779
1740926262.509211,None,None,-0.0881592935302733,0.045121124487304654,-0.0232977099236642,-0.0004718276719292425,9.813449272533776e-06,-0.04871980593978656
1740926262.5272725,None,None,0.0004261678955079784,-0.03628173195800782,0.04540458015267168,-0.00047568183653675603,9.90798940785124e-06,-0.048545873118927114
1740926262.539401,None,None,0.03873339445800794,0.0523037294677734,-0.08436641221374064,-0.00046266246923218986,9.768906521037325e-06,-0.04888531938004762
1740926262.5517356,None,None,0.02197398283691432,0.11694717429199214,0.06830534351145046,-0.00045686991284449134,9.64239416606864e-06,-0.048620682322378275
1740926262.563841,None,None,0.03873339445800794,-0.04107013527832032,-0.015664122137404757,-0.00044350783176368846,9.39789627748972e-06,-0.04868817865899676
1740926262.5754046,None,None,-0.04266946198730448,-0.13204979836425784,-0.1683358778625954,-0.0004653429897168471,9.987651569113848e-06,-0.04935965901645012
1740926262.5899565,None,None,-0.04266946198730448,0.01160230124511713,-0.17596946564885485,-0.00048747519612178544,1.0622663724660562e-05,-0.05006136110258962
1740926262.602478,None,None,-0.018727445385742003,0.004419696264648387,0.19807633587786255,-0.0004998305624883638,1.0807436217097717e-05,-0.0492832528244092
1740926262.6137154,None,None,-0.016333243725585644,0.004419696264648387,-0.13016793893129774,-0.0005109239023423074,1.1197555289523323e-05,-0.04980359353293281
1740926262.6253936,None,None,-0.018727445385742003,0.009208099584960883,-0.15306870229007652,-0.0005231706744879533,1.164589598421112e-05,-0.050414536522283455
1740926262.6461852,None,None,0.0076087728759768325,-0.02909912697753908,0.053038167938931347,-0.000524251551510068,1.1672756064768135e-05,-0.05021012185498301
1740926262.6580064,None,None,-0.0019680337646481583,0.025967511206054672,-0.03856488549618309,-0.0005293898262008084,1.1867877692482776e-05,-0.05036800257931857
1740926262.6697383,None,None,-0.025910050366210635,-0.007551312036132851,-1.8400916030534349,-0.0005429565568674262,1.3610574433522506e-05,-0.057652540003356706
1740926262.6859438,None,None,-0.016333243725585644,0.045121124487304654,-0.07673282442748075,-0.0005546253562210606,1.405249253670616e-05,-0.057962338094722544
1740926262.6979024,None,None,-0.037881058666991985,0.03793851950683591,-0.00039694656488542535,-0.0005759855383643692,1.4738369497134253e-05,-0.05797013633789121
1740926262.710892,None,None,-0.028304252026366994,-0.050646941918945365,-0.09200000000000008,-0.0005933142860619911,1.539879157197174e-05,-0.0583402204197968
1740926262.7254782,None,None,-0.02112164704589814,-0.03149332863769533,-0.1225343511450383,-0.0006076728229961081,1.601172672655062e-05,-0.05883106417220032
1740926262.73685,None,None,0.02197398283691432,0.025967511206054672,-1.8477251908396948,-0.0006009629062805076,1.7333336944699015e-05,-0.06614601145512404
1740926262.7481287,None,None,0.03155078947753931,0.01878490622558593,0.04540458015267168,-0.000592478058422068,1.7089647904015498e-05,-0.06597353190399075
1740926262.7619193,None,None,0.01000297453613297,0.1289181825927734,2.0225038167938933,-0.0005960345823746704,1.5599061666734806e-05,-0.05798066611468189
1740926262.7742805,None,None,-0.05464047028808583,0.006813897924804635,2.007236641221374,-0.0006279942666357829,1.5076048741231833e-05,-0.050047098032590234
1740926262.7993348,None,None,0.0004261678955079784,0.061880536108398415,-1.8171908396946566,-0.0006305512934640885,1.672505088860576e-05,-0.05723921956568013
1740926262.8189416,None,None,-0.013939042065429508,0.025967511206054672,1.9385343511450381,-0.0006450411614994942,1.560139110608664e-05,-0.049577426373517974
1740926262.8304706,None,None,-0.006756437084960654,0.01160230124511713,-0.13016793893129774,-0.0006533534548818701,1.6023558152890598e-05,-0.05009666430548467
1740926262.841886,None,None,-0.0019680337646481583,-0.0051571103759766035,-0.0232977099236642,-0.0006597933230737968,1.6283646281822543e-05,-0.05019323532628177
1740926262.8584404,None,None,0.017185579516601823,-0.14162660500488283,-0.2523053435114502,-0.0006574474740264644,1.6413553757158665e-05,-0.05119550361558394
1740926262.8714375,None,None,-0.047457865307616975,-0.007551312036132851,1.9385343511450381,-0.0006871415985989655,1.576498560772875e-05,-0.043533120620673285
1740926262.8827786,None,None,0.005214571215820474,-0.1655686216064453,-0.19123664122137418,-0.0006903782400725191,1.6032868736063448e-05,-0.04429277227255813
1740926262.8941138,None,None,0.03155078947753931,0.061880536108398415,-1.870625954198473,-0.0006790996674673494,1.7340340787430813e-05,-0.05169423009577419
1740926262.9071395,None,None,0.002820369555664337,-0.033887530297851576,0.02250381679389335,-0.0006836198673756916,1.748256698114827e-05,-0.051609662034799664
1740926262.929941,None,None,0.024368184497070455,0.01160230124511713,0.08357251908396957,-0.0006786955239808277,1.7173596908875965e-05,-0.05128352186118943
1740926262.941918,None,None,0.014791377856445465,0.01160230124511713,-0.008030534351144869,-0.0006777055847198756,1.7109213480407734e-05,-0.0513195494837756
1740926262.9532173,None,None,-0.0019680337646481583,0.030755914526367167,0.22861068702290077,-0.0006844993677408061,1.7127482218119067e-05,-0.05041970633988207
1740926262.9676144,None,None,-0.0785824868896483,0.006813897924804635,-0.09963358778625953,-0.0007247842088157945,1.8905012820825466e-05,-0.05081775755369465
1740926262.9912307,None,None,-0.011544840405273149,0.006813897924804635,-0.09963358778625953,-0.0007358344695430427,1.9449364436761523e-05,-0.05121581562359687
1740926263.0032623,None,None,-0.018727445385742003,0.04033272116699216,0.06830534351145046,-0.0007505125481800413,1.9979717349386323e-05,-0.05094977324463529
1740926263.0154333,None,None,0.02197398283691432,0.11934137595214839,-0.10726717557251897,-0.0007468789924550195,1.989582082199134e-05,-0.051377932193706975
1740926263.0331159,None,None,-0.0785824868896483,-0.14162660500488283,-1.8629923664122137,-0.0007845293477573807,2.3560246599180056e-05,-0.058748827240382065
1740926263.0454657,None,None,-0.0019680337646481583,0.10258196433105465,-0.00039694656488542535,-0.0007922909429753075,2.390532718544964e-05,-0.058755426253702156
1740926263.0691388,None,None,0.0004261678955079784,0.12412977927246091,1.9843358778625955,-0.0008030995491526271,2.2140358169898642e-05,-0.05091388297330685
1740926263.0829277,None,None,-0.0019680337646481583,0.013996502905273434,-0.13016793893129774,-0.0008106050400894338,2.2583241219695986e-05,-0.0514323551196872
1740926263.0986338,None,None,-0.047457865307616975,-0.14402080666503908,-0.1378015267175572,-0.0008385086791511972,2.3988062986752005e-05,-0.05198103554836416
1740926263.1121192,None,None,-0.03069845368652313,0.0020254946044921396,-0.2217709923664124,-0.0008591010200335665,2.5166248491288394e-05,-0.052861766456978244
1740926263.123912,None,None,-0.018727445385742003,-0.1248671933837891,0.053038167938931347,-0.0008752002970502128,2.5813466901953466e-05,-0.05265597086932882
1740926263.1352649,None,None,-0.04027526032714834,0.006813897924804635,0.04540458015267168,-0.0009011389720718271,2.694045659839035e-05,-0.05248028432628952
1740926263.1515787,None,None,-0.018727445385742003,0.042726922827148406,-1.8553587786259542,-0.0009132743230252965,2.9819281192282817e-05,-0.05981998606040553
1740926263.1629634,None,None,0.024368184497070455,0.006813897924804635,-0.04619847328244253,-0.0009105247451774243,2.9729429537509832e-05,-0.06000745861113348
1740926263.1779175,None,None,0.05309860441894543,0.11934137595214839,-0.19123664122137418,-0.0008943499824748288,2.916062661307973e-05,-0.06076835511429576
1740926263.1924634,None,None,-0.057034671948241966,-0.017128118676757842,-0.04619847328244253,-0.0009278444552499407,3.085835558231302e-05,-0.06095584831950276
1740926263.2042112,None,None,0.04831020109863293,0.021179107885742177,0.259145038167939,-0.0009150411593156738,2.9826343099597333e-05,-0.05993607135516905
1740926263.2156537,None,None,0.012397176196289328,0.01160230124511713,-0.10726717557251897,-0.0009171959853470246,3.0036557804251958e-05,-0.060364771253482
1740926263.227942,None,None,-0.04266946198730448,0.009208099584960883,0.18280916030534344,-0.0009449733802259343,3.115396652505271e-05,-0.05964662141669678
1740926263.246047,None,None,0.026762386157226814,0.061880536108398415,2.007236641221374,-0.000946601601510207,2.8292352946070898e-05,-0.05171530978860496
1740926263.2581637,None,None,-0.025910050366210635,0.12652398093261716,-1.7942900763358778,-0.0009615042243658701,3.1584596714612605e-05,-0.05881230757126947
1740926263.2702928,None,None,0.014791377856445465,-0.017128118676757842,1.961435114503817,-0.0009686543538170295,2.898060114502596e-05,-0.051062042760769775
1740926263.2826688,None,None,-0.02112164704589814,-0.0051571103759766035,1.9385343511450381,-0.0009919801112933371,2.7181772069707764e-05,-0.043401200585145475
1740926263.298155,None,None,-0.047457865307616975,-0.15838601662597657,-0.19887022900763363,-0.0010213196867669516,2.8878781933238194e-05,-0.04418927031778664
1740926263.3104231,None,None,-0.018727445385742003,-0.06501215187988285,-1.8324580152671754,-0.001033179695053296,3.218654599407394e-05,-0.05143557061077221
1740926263.3329778,None,None,-0.0235158487060545,0.04990952780761715,-0.13016793893129774,-0.001052476719089908,3.329716739740772e-05,-0.051953174314539385
1740926263.350385,None,None,0.017185579516601823,0.08821675437011714,-0.14543511450381663,-0.0010533689291762098,3.345687401826715e-05,-0.05253117056769802
1740926263.3631759,None,None,-0.016333243725585644,-0.024310723657226585,-0.16070229007633596,-0.0010694524826307587,3.446128358933579e-05,-0.05316956388991213
1740926263.3853076,None,None,-0.006756437084960654,-0.002762908715820356,-0.015664122137404757,-0.001081776931964536,3.503196359472459e-05,-0.05323464774277159
1740926263.3980553,None,None,0.017185579516601823,0.006813897924804635,-0.2523053435114502,-0.0010824722899556577,3.537092368233219e-05,-0.054235178870676956
1740926263.4109037,None,None,-0.04027526032714834,-0.017128118676757842,2.007236641221374,-0.001116789582359787,3.369673638024767e-05,-0.04630362761907332
1740926263.431345,None,None,-0.013939042065429508,0.01160230124511713,-1.8553587786259542,-0.0011265944767641465,3.7270909405793e-05,-0.0536399786349606
1740926263.4436333,None,None,-0.04506366364746084,-0.002762908715820356,0.08357251908396957,-0.0011573758651470757,3.8680048289458196e-05,-0.05331270831682163
1740926263.4568095,None,None,0.017185579516601823,0.023573309545898424,-0.015664122137404757,-0.0011595402634484203,3.8692203299094507e-05,-0.05337763780101593
1740926263.4711568,None,None,0.09619423430175811,-0.017128118676757842,-0.1225343511450383,-0.001124829582754504,3.6862261124150427e-05,-0.05386499489825358
1740926263.4829674,None,None,-0.035486857006835626,-0.014733917016601594,0.0759389312977099,-0.0011509433716672944,3.803463261642466e-05,-0.05356783503680032
1740926263.50164,None,None,0.02197398283691432,0.04990952780761715,2.030137404580153,-0.0011577754845023592,3.4491181629038035e-05,-0.045545935100259116
1740926263.5176394,None,None,-0.057034671948241966,0.02836171286621092,-0.030931297709923644,-0.001193583263749527,3.635711124230256e-05,-0.04566989602352214
1740926263.5294554,None,None,-0.037881058666991985,-0.026704925317382833,0.13700763358778634,-0.0012215953798949538,3.746266826989468e-05,-0.04513002937226749
1740926263.5469136,None,None,0.005214571215820474,0.1097645693115234,-0.11490076335877841,-0.0012289981178163283,3.789771375117888e-05,-0.04558579734361785
1740926263.559106,None,None,0.033944991137695446,0.01878490622558593,0.030137404580152793,-0.0012236046708769238,3.734323663698318e-05,-0.045468318872381085
1740926263.5706525,None,None,0.0076087728759768325,-0.01952232033691409,-0.04619847328244253,-0.0012299694429011303,3.7596865614807396e-05,-0.04565253326193106
1740926263.5896745,None,None,-0.018727445385742003,-0.009945513696289099,-0.1683358778625954,-0.0012481237343669694,3.875410538205624e-05,-0.046319517589476056
1740926263.6017098,None,None,0.01000297453613297,0.01639070456542968,-0.0690992366412213,-0.0012534416993179502,3.9001876755059275e-05,-0.04659433623522078
1740926263.6128774,None,None,-0.04506366364746084,0.09539935935058591,-0.0690992366412213,-0.0012844645999268885,4.068269745726031e-05,-0.046869170742562374
1740926263.6340153,None,None,-0.018727445385742003,-0.017128118676757842,-0.10726717557251897,-0.001303390315093897,4.176892689969727e-05,-0.04729488500776261
1740926263.6451705,None,None,-0.028304252026366994,0.10258196433105465,-0.40497709923664127,-0.001325786439639596,4.367934177968682e-05,-0.048897335138913305
1740926263.656829,None,None,-0.03069845368652313,0.02836171286621092,-0.04619847328244253,-0.0013510428370951616,4.50024662398367e-05,-0.0490819346701665
1740926263.6735168,None,None,0.02197398283691432,-0.021916521997070337,2.007236641221374,-0.0013603773332470127,4.099234395781836e-05,-0.041150489253098915
1740926263.6850734,None,None,-0.018727445385742003,-0.1296555967041016,-0.1836030534351143,-0.0013794904419642884,4.222293232619888e-05,-0.04187693972917343
1740926263.697988,None,None,0.036339192797851805,-0.01952232033691409,-0.13016793893129774,-0.0013730669845813583,4.1923344198671624e-05,-0.04239229339483636
1740926263.713919,None,None,-0.0235158487060545,-0.002762908715820356,-0.03856488549618309,-0.0013950745005775656,4.300796744049915e-05,-0.04254566173381793
1740926263.7255118,None,None,0.024368184497070455,0.033150116186523415,2.0225038167938933,-0.0014036884504650066,3.8670481311560175e-05,-0.0345530913317409
1740926263.7437782,None,None,0.03873339445800794,-0.002762908715820356,0.007236641221374018,-0.001396407843907605,3.798909242959177e-05,-0.0345242259649085
1740926263.7576208,None,None,-0.006756437084960654,0.05948633444824214,0.175175572519084,-0.0014111990378141718,3.81414563461398e-05,-0.03383162323080372
1740926263.7689452,None,None,0.002820369555664337,-0.14880920998535158,0.007236641221374018,-0.0014207729682342424,3.8392136537625615e-05,-0.03380265275830756
1740926263.7883449,None,None,0.012397176196289328,-0.002762908715820356,-0.13016793893129774,-0.0014251878801594007,3.868881756895689e-05,-0.03431672952359771
1740926263.8002863,None,None,0.02197398283691432,0.1001877626708984,-0.17596946564885485,-0.0014247825995348786,3.8845989077155835e-05,-0.03501189987378491
1740926263.8117325,None,None,-0.037881058666991985,0.033150116186523415,-0.07673282442748075,-0.00145326664642748,4.0325252493862215e-05,-0.03531497646968469
1740926263.829364,None,None,0.005214571215820474,-0.15359761330566407,-0.05383206106870242,-0.0014615922472423941,4.0667230309158255e-05,-0.03552759634992105
1740926263.841894,None,None,0.012397176196289328,0.07385154440917965,-0.1378015267175572,-0.0014660895732645876,4.1015050315490164e-05,-0.036072100831378844
1740926263.8536408,None,None,-0.006756437084960654,0.09539935935058591,0.030137404580152793,-0.0014805064769729823,4.148415731706278e-05,-0.03595298594568966
1740926263.8726346,None,None,0.002820369555664337,0.021179107885742177,0.0759389312977099,-0.0014906301293971156,4.161190293504908e-05,-0.0356528471255371
1740926263.8845375,None,None,-0.06182307526855446,0.01639070456542968,-0.09963358778625953,-0.0015310012446763028,4.375354064038343e-05,-0.03604651707852526
1740926263.8961158,None,None,-0.037881058666991985,0.04033272116699216,0.03777099236641224,-0.0015610149232972155,4.49973143205776e-05,-0.03589723269725791
1740926263.9092205,None,None,-0.004362235424804517,0.0523037294677734,-1.7866564885496183,-0.001566317328463252,4.9566254590829165e-05,-0.042957902898575775
1740926263.921178,None,None,-0.011544840405273149,-0.002762908715820356,-0.05383206106870242,-0.00158372909296552,5.0421495460898e-05,-0.043171686634982366
1740926263.932706,None,None,-0.0019680337646481583,-0.014733917016601594,0.2744122137404581,-0.001598270303736606,5.028262095818375e-05,-0.0420883154791251
1740926263.9491487,None,None,-0.02112164704589814,-0.03149332863769533,0.21334351145038166,-0.0016218364915681852,5.07548879997206e-05,-0.04124610417249371
1740926263.9608934,None,None,-0.0019680337646481583,0.04033272116699216,0.12174045801526723,-0.001635844847457005,5.0961077762427345e-05,-0.04076575704407633
1740926263.9721422,None,None,0.03155078947753931,-0.05543534523925786,-0.11490076335877841,-0.0016324131503040954,5.089197265291689e-05,-0.04122048604392159
1740926263.9891152,None,None,-0.011544840405273149,-0.0051571103759766035,0.030137404580152793,-0.0016505153893242475,5.155183989783119e-05,-0.041102115843625775
1740926264.0006213,None,None,0.01957978117675796,-0.009945513696289099,-0.0232977099236642,-0.0016532952279483756,5.156700638501653e-05,-0.0411948826202984
1740926264.011872,None,None,-0.011544840405273149,0.03793851950683591,-1.824824427480916,-0.0016617332070447072,5.678554205698431e-05,-0.04840674669456743
1740926264.0323195,None,None,-0.0019680337646481583,0.1289181825927734,0.04540458015267168,-0.0016755574279271144,5.722486107470482e-05,-0.04822912823684691
1740926264.0436494,None,None,0.014791377856445465,0.06906314108886716,-0.14543511450381663,-0.0016802101365770766,5.7719710132591396e-05,-0.04880559470063697
1740926264.0555136,None,None,-0.018727445385742003,-0.14162660500488283,-0.04619847328244253,-0.0017017721068856623,5.8815113704489345e-05,-0.04898997609297597
1740926264.070769,None,None,0.002820369555664337,0.021179107885742177,-0.3133740458015266,-0.0017114842879984696,6.0054180837074405e-05,-0.05023013597420167
1740926264.082602,None,None,0.02197398283691432,0.013996502905273434,0.06830534351145046,-0.0017138774186372134,5.9844161725070244e-05,-0.04996222234372058
1740926264.0969484,None,None,-0.011544840405273149,0.009208099584960883,-0.1225343511450383,-0.0017316155299732451,6.097363031577695e-05,-0.05044835549764707
1740926264.1151948,None,None,-0.06421727692871082,-0.012339715356445347,0.21334351145038166,-0.0017773389062894827,6.259722018628271e-05,-0.049607300478958526
1740926264.1267016,None,None,-0.057034671948241966,0.025967511206054672,0.0759389312977099,-0.0018192611925006523,6.441413694470288e-05,-0.049309052319820496
1740926264.141934,None,None,0.036339192797851805,-0.021916521997070337,-1.8019236641221372,-0.0018048626419827373,6.880197811019316e-05,-0.05643109493368209
1740926264.1545255,None,None,0.017185579516601823,-0.05304114357910161,1.892732824427481,-0.0018207335521477287,6.391155421896287e-05,-0.04895486981120991
1740926264.1659472,None,None,-0.03309265534667949,-0.1344440000244141,-0.0232977099236642,-0.0018504811838108836,6.538826722528e-05,-0.04904857627285471
1740926264.1793058,None,None,-0.013939042065429508,-0.009945513696289099,0.14464122137404578,-0.0018719564049148015,6.59232457596649e-05,-0.04847868074851334
1740926264.1952858,None,None,0.012397176196289328,-0.002762908715820356,-0.04619847328244253,-0.0018793393562747593,6.62872617144403e-05,-0.048662766050815556
1740926264.2066777,None,None,0.012397176196289328,0.013996502905273434,0.030137404580152793,-0.0018871221645385978,6.644094418123029e-05,-0.048545228097238026
1740926264.219669,None,None,-0.02112164704589814,-0.01952232033691409,-0.030931297709923644,-0.0019112548060372032,6.764816389822103e-05,-0.048668954796985166
1740926264.2356002,None,None,-0.04027526032714834,0.1049761659912109,-0.07673282442748075,-0.0019449117883638197,6.950436135630565e-05,-0.04897365694010991
1740926264.2472277,None,None,-0.04506366364746084,-0.03628173195800782,-0.34390839694656483,-0.0019797192103707204,7.226591690591612e-05,-0.050334080526529934
1740926264.2668219,None,None,0.012397176196289328,0.042726922827148406,0.02250381679389335,-0.0019882708562025757,7.248721582647153e-05,-0.050246891826291974
1740926264.2784126,None,None,-0.009150638745117012,0.04033272116699216,-0.07673282442748075,-0.002007017412506905,7.356854895023116e-05,-0.05055177792939158
1740926264.290488,None,None,-0.09294769685058579,0.1049761659912109,0.03777099236641224,-0.0020688384664832586,7.658333289947221e-05,-0.05040424736737887
1740926264.3019156,None,None,0.0076087728759768325,-0.002762908715820356,-1.8095572519083971,-0.0020690991819005793,8.234645352084623e-05,-0.057555910029643303
1740926264.3270671,None,None,0.014791377856445465,0.11934137595214839,0.1599083969465649,-0.0020782065261235817,8.219228287078531e-05,-0.05692684580278236
1740926264.3415494,None,None,0.01957978117675796,-0.0003687070556641081,-0.1378015267175572,-0.002082928703909353,8.278252800868566e-05,-0.05747396341244538
1740926264.3603778,None,None,-0.06661147858886696,0.06427473776855466,-0.1836030534351143,-0.0021310018064316957,8.588484973038349e-05,-0.05820209235436903
1740926264.3720016,None,None,-0.03309265534667949,-0.15838601662597657,-0.1683358778625954,-0.0021626985917786706,8.806589092641384e-05,-0.05886997815914842
1740926264.3911498,None,None,0.01957978117675796,0.03554431784667966,-0.09200000000000008,-0.002168396400063297,8.857604115442874e-05,-0.059236322132902204
1740926264.4026077,None,None,0.06985801604003927,-0.009945513696289099,0.26677862595419843,-0.0021507612095741685,8.655274844068328e-05,-0.05818511386851029
1740926264.4142854,None,None,0.005214571215820474,0.061880536108398415,0.014870229007633462,-0.0021639664067033063,8.709390674983002e-05,-0.05812902071768683
1740926264.4309845,None,None,0.045915999438476796,0.10737036765136715,0.2515114503816793,-0.0021579618957762448,8.57263763548849e-05,-0.05713790105931194
1740926264.443916,None,None,-0.013939042065429508,0.023573309545898424,-0.030931297709923644,-0.0021803862286704154,8.693586335754695e-05,-0.057262542872695825
1740926264.4555237,None,None,0.014791377856445465,-0.014733917016601594,-0.11490076335877841,-0.00218763836189855,8.760102228010405e-05,-0.05771894396930905
1740926264.4707992,None,None,-0.028304252026366994,0.03554431784667966,-0.03856488549618309,-0.002217507913863477,8.926638741537506e-05,-0.057873774162958795
1740926264.482333,None,None,0.024368184497070455,-0.05782954689941411,-0.17596946564885485,-0.0022195582637519434,8.986866943726495e-05,-0.05857149048507192
1740926264.4938672,None,None,0.04831020109863293,-0.009945513696289099,0.09883969465648867,-0.002211055591704878,8.886674713370066e-05,-0.058183514725310345
1740926264.5091906,None,None,0.05788700773925792,0.06666893942871091,-0.15306870229007652,-0.0021955000957297886,8.838645603303854e-05,-0.05879073479179953
1740926264.5204294,None,None,-0.04506366364746084,-0.16078021828613281,2.0148702290076335,-0.00224813398788183,8.372933315633849e-05,-0.050832558188548385
1740926264.5316143,None,None,-0.02112164704589814,-0.012339715356445347,0.18280916030534344,-0.0022755774164910907,8.441170994268494e-05,-0.0501115197603565
1740926264.5496755,None,None,-0.013939042065429508,-0.024310723657226585,0.12174045801526723,-0.0022990366833254114,8.508724168505415e-05,-0.04963163544639308
1740926264.5608995,None,None,0.0004261678955079784,-0.14162660500488283,-0.05383206106870242,-0.002313900726933965,8.593016972668564e-05,-0.04984533807305273
1740926264.5722814,None,None,0.05070440275878929,-0.15359761330566407,0.03777099236641224,-0.0023032785263023222,8.497027439681756e-05,-0.04969715222048974
1740926264.585897,None,None,0.012397176196289328,0.04990952780761715,0.09120610687022901,-0.0023126733621638414,8.495420688409529e-05,-0.04933781047675805
1740926264.597531,None,None,0.01000297453613297,-0.050646941918945365,0.053038167938931347,-0.0023229705482010693,8.513514945463807e-05,-0.04912919769306562
1740926264.6117592,None,None,0.01000297453613297,0.04033272116699216,0.06830534351145046,-0.0023333266777315273,8.526049582341135e-05,-0.048860223170798404
1740926264.6264298,None,None,0.0004261678955079784,-0.05543534523925786,-0.00039694656488542535,-0.0023481464277309992,8.590643860789606e-05,-0.04886262688299088
1740926264.6399872,None,None,-0.03309265534667949,-0.007551312036132851,-1.8629923664122137,-0.002366961400518247,9.402778899932158e-05,-0.05622379784679648
1740926264.651756,None,None,-0.028304252026366994,-0.021916521997070337,-0.10726717557251897,-0.002396576060901207,9.596885667284684e-05,-0.05664955373775138
1740926264.6696274,None,None,-0.03309265534667949,-0.024310723657226585,-0.0690992366412213,-0.00242924208662191,9.794192746166879e-05,-0.05692455608603347
1740926264.682873,None,None,0.0004261678955079784,-0.14880920998535158,0.13700763358778634,-0.0024460346310219965,9.819407601722047e-05,-0.05638529757790142
1740926264.6944122,None,None,-0.057034671948241966,0.04033272116699216,0.14464122137404578,-0.0024932657575943433,0.0001001653853814904,-0.05581576531937774
1740926264.706927,None,None,-0.09294769685058579,-0.050646941918945365,-0.17596946564885485,-0.002557556299379802,0.0001044006102953066,-0.05651276938120018
1740926264.7185845,None,None,0.0076087728759768325,0.03554431784667966,-0.1378015267175572,-0.00256957438540999,0.00010547056625733391,-0.05705907985113457
1740926264.7301242,None,None,0.01957978117675796,-0.03149332863769533,-0.04619847328244253,-0.002575930434346467,0.00010584779827816752,-0.05724355410385708
1740926264.7432747,None,None,-0.04266946198730448,0.009208099584960883,-0.04619847328244253,-0.0026152939723485505,0.00010814752408621279,-0.057428023821589694
1740926264.7568648,None,None,-0.06900568024902332,0.006813897924804635,-0.09200000000000008,-0.002668699667264182,0.00011146101813626777,-0.05779344159514841
1740926264.770339,None,None,0.0076087728759768325,0.10737036765136715,-0.09200000000000008,-0.0026817988015567376,0.00011242779106198747,-0.05815890174024472
1740926264.7867124,None,None,-0.03309265534667949,0.01639070456542968,-0.09963358778625953,-0.002716590290891856,0.0001147044065272223,-0.05855454516668066
1740926264.798341,None,None,-0.035486857006835626,-0.021916521997070337,-0.09200000000000008,-0.0027530293650725513,0.00011705521577945951,-0.05892006613705444
1740926264.8106978,None,None,-0.006756437084960654,0.04990952780761715,-0.06146564885496186,-0.0027746358301898913,0.00011841061726932356,-0.05916499151401671
1740926264.8256812,None,None,-0.028304252026366994,0.0020254946044921396,-0.09963358778625953,-0.0028076168456598323,0.00012060798478663553,-0.05956071255901173
1740926264.8384824,None,None,0.026762386157226814,0.01878490622558593,-0.1378015267175572,-0.0028109464277986246,0.00012122123358564505,-0.060107263133818485
1740926264.850145,None,None,0.033944991137695446,-0.060223748559570356,-0.00039694656488542535,-0.0028114033442619524,0.00012106955626624708,-0.060111041507323625
1740926264.8670855,None,None,-0.02112164704589814,0.01878490622558593,-1.870625954198473,-0.0028258788575474263,0.00012999284027207504,-0.06750328977485504
1740926264.8788912,None,None,-0.006756437084960654,0.023573309545898424,0.1599083969465649,-0.0028498619425893906,0.00013059131082832756,-0.066874872157953
1740926264.890143,None,None,-0.09294769685058579,-0.0003687070556641081,0.13700763358778634,-0.002920396128007158,0.0001340961118755814,-0.06633677389654932
1740926264.9023867,None,None,-0.011544840405273149,0.02836171286621092,-0.0232977099236642,-0.0029461821302219256,0.00013562223531770077,-0.06643186028071675
1740926264.9182553,None,None,-0.04506366364746084,-0.15359761330566407,0.06830534351145046,-0.0029911038900436123,0.00013790257420507695,-0.06616503650888453
1740926264.9295442,None,None,0.1512608724853517,0.009208099584960883,-0.15306870229007652,-0.002927743451433326,0.00013456739134747676,-0.06677270945272254
1740926264.9535675,None,None,-0.07618828522949195,0.0020254946044921396,0.02250381679389335,-0.0029887443988170915,0.0001380569559269685,-0.06668680061796807
1740926264.9651353,None,None,-0.03069845368652313,-0.0051571103759766035,-0.008030534351144869,-0.0030252781284044582,0.00014019053646070135,-0.06672147452220545
1740926264.9781878,None,None,-0.049852066967773334,-0.0051571103759766035,-0.00039694656488542535,-0.0030726309307683524,0.0001429688625520407,-0.06672595728166124
1740926264.9948862,None,None,-0.03069845368652313,0.009208099584960883,-0.11490076335877841,-0.0031089059322055067,0.00014561144730121484,-0.06718275256582779
1740926265.0070486,None,None,-0.07618828522949195,0.06666893942871091,-0.2981068702290077,-0.0031687477880242404,0.00015063128598415162,-0.06836332481494176
1740926265.021388,None,None,-0.037881058666991985,0.01878490622558593,0.030137404580152793,-0.0032112175837124453,0.00015300211664343085,-0.06824733467948986
1740926265.039206,None,None,0.024368184497070455,-0.017128118676757842,-1.8171908396946566,-0.003202679471694424,0.00016122025199924794,-0.07542907093766199
1740926265.0502121,None,None,-0.018727445385742003,-0.007551312036132851,1.991969465648855,-0.003253557229433338,0.00015447533117377672,-0.06756403174313601
1740926265.070677,None,None,-0.03309265534667949,0.03793851950683591,1.8698320610687023,-0.0033113450495124656,0.00014861529458213362,-0.06018021431884018
1740926265.0820549,None,None,0.045915999438476796,0.023573309545898424,0.23624427480916044,-0.0033100988103924533,0.00014706754512625034,-0.05924857886201784
1740926265.0933409,None,None,0.01000297453613297,-0.07937736184082034,0.0759389312977099,-0.0033268953562722945,0.00014748002165292827,-0.05895004278123707
1740926265.111313,None,None,0.01957978117675796,0.02836171286621092,0.06830534351145046,-0.003338306947913129,0.00014757983505587623,-0.05868159968730959
1740926265.1271958,None,None,-0.025910050366210635,0.042726922827148406,2.0225038167938933,-0.0033941361249306095,0.000140385879496901,-0.050693259474035246
1740926265.14167,None,None,-0.013939042065429508,-0.050646941918945365,1.8545648854961831,-0.00344179134708983,0.0001333811999779492,-0.043367085755225576
1740926265.1539662,None,None,0.005214571215820474,-0.007551312036132851,-0.04619847328244253,-0.0034597987510423533,0.00013435362687304594,-0.04354847782067224
1740926265.1658425,None,None,-0.02112164704589814,-0.050646941918945365,-1.8629923664122137,-0.003474162975486098,0.00014475144842181778,-0.050906878917871635
1740926265.1778765,None,None,0.01000297453613297,0.03793851950683591,0.18280916030534344,-0.0034923447998535064,0.0001445820749509531,-0.05018483184653838
1740926265.1949558,None,None,-0.028304252026366994,0.033150116186523415,-0.07673282442748075,-0.003529268640504835,0.00014698769103215157,-0.050487939928057196
1740926265.2065065,None,None,0.005214571215820474,-0.026704925317382833,-0.008030534351144869,-0.0035484156715841425,0.00014789638708334108,-0.05051970601581479
1740926265.217852,None,None,0.024368184497070455,0.0762457460693359,-0.00039694656488542535,-0.0035569326986142186,0.000148095603628377,-0.05052132540577238
1740926265.2306454,None,None,0.02915658781738295,-0.10092517678222657,-0.09200000000000008,-0.0035616861186219114,0.000148569514246115,-0.05088480496962669
1740926265.2431328,None,None,0.0004261678955079784,0.009208099584960883,-0.04619847328244253,-0.00358295132756184,0.00014983951856151754,-0.05106740526792785
1740926265.2543213,None,None,0.002820369555664337,0.0523037294677734,-0.008030534351144869,-0.003603339127008273,0.00015084508297764576,-0.05109925918752891
1740926265.2659116,None,None,0.005214571215820474,0.009208099584960883,0.09120610687022901,-0.003623484595271337,0.00015127931591760917,-0.05073910539390772
1740926265.277281,None,None,0.0004261678955079784,0.12173557761230466,0.1599083969465649,-0.0036470951792587987,0.00015153674497213874,-0.050107500816645834
1740926265.2887678,None,None,0.002820369555664337,0.061880536108398415,0.06067175572519079,-0.0036683141766880112,0.00015219953693370773,-0.04986780702497232
1740926265.3019419,None,None,-0.035486857006835626,0.12652398093261716,-0.22940458015267184,-0.0037081134151055388,0.0001556733768729882,-0.05077393948074976
1740926265.3139753,None,None,0.024368184497070455,0.042726922827148406,0.007236641221374018,-0.003716869249129247,0.00015586769659724955,-0.05074543950281201
1740926265.3304794,None,None,0.03155078947753931,-0.13683820168457034,-1.8477251908396948,-0.0037008750280210392,0.00016527369291185326,-0.058044448775187676
1740926265.3451293,None,None,0.024368184497070455,-0.0003687070556641081,-0.03856488549618309,-0.0037091292246395277,0.0001657661867462748,-0.05819802463256319
1740926265.3608115,None,None,0.036339192797851805,0.03793851950683591,0.02250381679389335,-0.003711115246100009,0.00016551603830303814,-0.058110377854166
1740926265.3740728,None,None,0.024368184497070455,-0.012339715356445347,-0.008030534351144869,-0.0037193764557465524,0.0001658354854474333,-0.058143315738463215
1740926265.3863926,None,None,0.002820369555664337,-0.01952232033691409,-0.1378015267175572,-0.0037383684672230594,0.0001675902438023806,-0.05868885825399562
1740926265.402118,None,None,-0.009150638745117012,-0.01952232033691409,0.1904427480916031,-0.003767972434641054,0.0001680649578236713,-0.05793784493765072
1740926265.4135766,None,None,-0.018727445385742003,0.013996502905273434,-0.0690992366412213,-0.0038002065450831062,0.000170241839772812,-0.058211930718502856
1740926265.4271088,None,None,-0.018727445385742003,-0.01952232033691409,0.24387786259541988,-0.003836196743407064,0.00017078270789962135,-0.05724973542977811
1740926265.4397857,None,None,-0.025910050366210635,0.01878490622558593,-0.04619847328244253,-0.003873148588012817,0.00017311583117497116,-0.05743321878733716
1740926265.453804,None,None,-0.037881058666991985,-0.0674063535400391,-0.015664122137404757,-0.003917590306334948,0.00017573340958950488,-0.057496100413095504
1740926265.4655957,None,None,-0.0235158487060545,0.02836171286621092,-0.03856488549618309,-0.003953799422883905,0.0001779764071607878,-0.05764944376936625
1740926265.4771304,None,None,-0.03309265534667949,0.04033272116699216,1.9690687022900764,-0.004019104572040863,0.00016977516664850703,-0.04987239064311489
1740926265.4902124,None,None,0.024368184497070455,0.01639070456542968,-0.0690992366412213,-0.00402741521601488,0.00017041007870193355,-0.05014512382279735
1740926265.50159,None,None,0.07225221770019541,-0.002762908715820356,1.9003664122137405,-0.004030978680301799,0.00015861065942560071,-0.04263831021347138
1740926265.5128932,None,None,-0.0785824868896483,0.023573309545898424,0.014870229007633462,-0.004099190502722085,0.00016241152415029785,-0.042578184591814346
1740926265.5320907,None,None,0.0004261678955079784,0.07863994772949215,1.8850992366412214,-0.004144226791988515,0.00015312157305952167,-0.035130509063426664
1740926265.5435848,None,None,0.017185579516601823,-0.0003687070556641081,1.991969465648855,-0.004180607100974544,0.00014252923462785357,-0.02725954085278497
1740926265.5557225,None,None,0.026762386157226814,-0.026704925317382833,-0.10726717557251897,-0.004186012188319529,0.00014311877518879878,-0.027679517553012782
1740926265.576035,None,None,-0.018727445385742003,0.023573309545898424,1.793496183206107,-0.004240654928514909,0.00013473580459510065,-0.020591450210569795
1740926265.5882692,None,None,0.01000297453613297,0.13131238425292965,-0.07673282442748075,-0.004255945649159573,0.00013570149869441577,-0.020889841359884788
1740926265.6058068,None,None,-0.013939042065429508,0.01160230124511713,-0.0232977099236642,-0.004285905337439798,0.00013719335908908843,-0.020977260770045147
1740926265.6179948,None,None,0.0076087728759768325,0.08821675437011714,0.04540458015267168,-0.004304219126317515,0.00013756623035729586,-0.02079338037819713
1740926265.6294148,None,None,-0.03309265534667949,0.01639070456542968,-0.1225343511450383,-0.004344402111246216,0.00014024633672451853,-0.02127288230381861
1740926265.6445887,None,None,-0.009150638745117012,-0.06501215187988285,0.15227480916030545,-0.004374167334712216,0.00014056741811711276,-0.020667018432846525
1740926265.6581933,None,None,-0.05224626862792947,-0.002762908715820356,0.030137404580152793,-0.004427936715522046,0.00014297550658779896,-0.02054354830404114
1740926265.669448,None,None,0.012397176196289328,-0.002762908715820356,2.007236641221374,-0.004468343883827724,0.00013194162750856502,-0.01261056234580701
1740926265.6856506,None,None,0.005214571215820474,-0.045858538598632814,0.030137404580152793,-0.004488263972299666,0.0001324033506967644,-0.012485936918262447
1740926265.6997643,None,None,-0.04266946198730448,0.03793851950683591,0.007236641221374018,-0.004536263798464053,0.00013449582649101632,-0.012451807339762493
1740926265.7108083,None,None,-0.013939042065429508,0.01878490622558593,-1.8171908396946566,-0.004544849743565203,0.0001462743688553705,-0.019624222441910713
1740926265.7283044,None,None,-0.016333243725585644,-0.1200787900634766,-0.1225343511450383,-0.004576490274210544,0.00014834563413820232,-0.020103968113111943
1740926265.7397869,None,None,-0.006756437084960654,-0.0003687070556641081,-0.1836030534351143,-0.004601868812607326,0.00015048879872361196,-0.02082506538959647
1740926265.751384,None,None,-0.04027526032714834,-0.021916521997070337,0.030137404580152793,-0.004650042730724554,0.0001523810629009314,-0.020702050973241657
1740926265.7643235,None,None,0.05070440275878929,-0.012339715356445347,-0.0690992366412213,-0.004643077357421098,0.00015216350595334866,-0.02097107230674998
1740926265.7774773,None,None,-0.0019680337646481583,0.11215877097167964,-0.00039694656488542535,-0.004668145762457787,0.00015309816840759527,-0.020968800379494393
1740926265.7910283,None,None,0.026762386157226814,-0.033887530297851576,-1.8553587786259542,-0.004652294710150376,0.00016429549369571068,-0.028293585888273857
1740926265.807747,None,None,-0.0019680337646481583,0.10258196433105465,-0.04619847328244253,-0.004677092340300348,0.0001655751694724728,-0.02847348972374693
1740926265.8196766,None,None,0.05070440275878929,0.05948633444824214,-0.17596946564885485,-0.00466871329304597,0.00016614216557585629,-0.029166054927338286
1740926265.8311691,None,None,-0.013939042065429508,-0.0003687070556641081,0.10647328244274812,-0.0047025275455873025,0.00016684497562658836,-0.028743115772127417
1740926265.853111,None,None,-0.006756437084960654,0.054697931127929644,0.030137404580152793,-0.004731164728942227,0.00016780231969526534,-0.028621662327731855
1740926265.864807,None,None,-0.011544840405273149,-0.03628173195800782,-0.2217709923664124,-0.004759483870562406,0.00017042744825519724,-0.029495234955138516
1740926265.8768034,None,None,0.01957978117675796,-0.021916521997070337,-0.0690992366412213,-0.004771213040768788,0.00017126645744322273,-0.02976594463437847
1740926265.894878,None,None,0.0411275961181643,-0.05782954689941411,1.9385343511450381,-0.004796316850782213,0.0001591814977852189,-0.02210678159429326
1740926265.906105,None,None,-0.04506366364746084,-0.05304114357910161,-0.06146564885496186,-0.004846546980024956,0.00016168947290108642,-0.022346198812334104
1740926265.919492,None,None,0.024368184497070455,-0.0003687070556641081,0.007236641221374018,-0.004856041127611705,0.00016188282295366416,-0.02231434777275084
1740926265.931167,None,None,0.02197398283691432,0.1049761659912109,-0.1378015267175572,-0.004864936363920977,0.00016304593920245532,-0.022855415305042148
1740926265.9431694,None,None,0.0004261678955079784,-0.0003687070556641081,0.053038167938931347,-0.004889368498753447,0.00016360529369610418,-0.022642811207213013
1740926265.9551675,None,None,-0.018727445385742003,0.12412977927246091,-0.1378015267175572,-0.004922927843049876,0.00016585667006617947,-0.023183998941552465
1740926265.967219,None,None,0.03873339445800794,-0.04346433693847657,-0.06146564885496186,-0.004922739423479303,0.00016613079746956048,-0.023423809676053203
1740926265.9814072,None,None,-0.025910050366210635,0.0523037294677734,1.9538015267175572,-0.004988780965053582,0.00015543690300811247,-0.015703673167504567
1740926265.9938698,None,None,-0.006756437084960654,0.0020254946044921396,-1.824824427480916,-0.004992203297644496,0.00016794076220936767,-0.022907346245085683
1740926266.0056384,None,None,-0.03309265534667949,-0.014733917016601594,-0.06146564885496186,-0.0050358946404942114,0.00017006147919815915,-0.023147219904388897
1740926266.0200202,None,None,-0.02112164704589814,-0.0674063535400391,-0.008030534351144869,-0.00507327323438389,0.00017153788543356635,-0.023176111276221743
1740926266.0313318,None,None,-0.02112164704589814,-0.050646941918945365,1.908,-0.0051368492729531945,0.00016083420317374378,-0.015637055774550292
1740926266.0457664,None,None,0.0076087728759768325,-0.017128118676757842,0.23624427480916044,-0.0051599491014368845,0.0001599707472450904,-0.01469998392506876
1740926266.060273,None,None,0.0004261678955079784,-0.05304114357910161,-0.2217709923664124,-0.005181172770283552,0.00016220050925150846,-0.015571886772283017
1740926266.0717063,None,None,-0.037881058666991985,0.01160230124511713,-1.8553587786259542,-0.005203677061989257,0.00017584301861176777,-0.02289632620681025
1740926266.0840085,None,None,0.0411275961181643,-0.03867593361816407,-0.15306870229007652,-0.0052015037990206904,0.00017673340814725608,-0.023498284361041753
1740926266.0976508,None,None,0.0004261678955079784,0.023573309545898424,0.007236641221374018,-0.0052264334520998905,0.00017756519636622666,-0.02346718848715628
1740926266.1093419,None,None,0.005214571215820474,0.01160230124511713,-0.1378015267175572,-0.0052464439632025,0.00017922311411898342,-0.02400899048554804
1740926266.1220002,None,None,-0.06182307526855446,0.04033272116699216,-0.03856488549618309,-0.005309323631222753,0.00018180655723220668,-0.024158931718931683
1740926266.1336856,None,None,-0.035486857006835626,0.006813897924804635,0.06830534351145046,-0.005357867522036607,0.00018307741934441406,-0.02388681909535422
1740926266.1469305,None,None,-0.011544840405273149,-0.02909912697753908,-0.03856488549618309,-0.005390363749192497,0.00018448869230533406,-0.024036810689557153
1740926266.1603673,None,None,-0.049852066967773334,0.05709213278808589,0.2515114503816793,-0.005450854944025649,0.00018487055356930643,-0.0230411143298312
1740926266.1738522,None,None,0.002820369555664337,-0.16796282326660156,-0.08436641221374064,-0.005474238160650668,0.00018625114870233817,-0.02337193640597008
1740926266.1874366,None,None,-0.028304252026366994,-0.0051571103759766035,-0.1378015267175572,-0.005516293646054281,0.00018869280325862939,-0.02391389027339344
1740926266.2001183,None,None,-0.028304252026366994,-0.033887530297851576,0.23624427480916044,-0.005563943753300407,0.000188653244823548,-0.02297857353888946
1740926266.216329,None,None,-0.004362235424804517,0.01639070456542968,0.0759389312977099,-0.005594588979880726,0.00018913363175725019,-0.022676305732723633
1740926266.227605,None,None,-0.013939042065429508,-0.017128118676757842,1.991969465648855,-0.005658811723243737,0.00017696524235435066,-0.014806206600575182
1740926266.2403548,None,None,-0.0235158487060545,0.02836171286621092,-0.08436641221374064,-0.005698961952589007,0.00017885385240809832,-0.015135850098620632
1740926266.2575703,None,None,0.0411275961181643,0.05948633444824214,-0.2141374045801525,-0.005696973672643628,0.00018022652255696796,-0.015978162544714073
1740926266.2707887,None,None,0.03155078947753931,0.033150116186523415,-1.8324580152671754,-0.005677239570122391,0.00019282564109131156,-0.023212557536430374
1740926266.2827258,None,None,-0.0019680337646481583,-0.12247299172363285,-0.32864122137404594,-0.005700669089637792,0.00019599762151691863,-0.02450849418312972
1740926266.2941432,None,None,0.03873339445800794,0.06666893942871091,-0.09200000000000008,-0.0057020951902617256,0.00019671341400459094,-0.024870007117368666
1740926266.30648,None,None,-0.011544840405273149,-0.009945513696289099,-0.030931297709923644,-0.0057358840027735445,0.0001980688902849258,-0.024990389019869923
1740926266.319322,None,None,0.04352179777832044,-0.009945513696289099,0.23624427480916044,-0.005739039630536279,0.00019643697035757766,-0.02405556047059107
1740926266.3355494,None,None,-0.025910050366210635,-0.01952232033691409,-0.15306870229007652,-0.0057799645974339516,0.00019892325390289154,-0.02465825824885847
1740926266.3520215,None,None,0.02915658781738295,0.054697931127929644,0.03777099236641224,-0.0057891737709278995,0.00019895818953621433,-0.02450732834752797
1740926266.3669305,None,None,0.01000297453613297,0.03554431784667966,-0.1378015267175572,-0.005807725762739954,0.00020060518895355416,-0.025049847845957252
1740926266.3828588,None,None,-0.006756437084960654,0.01878490622558593,-1.7637557251908396,-0.005812568657044673,0.00021394156050012772,-0.03201445501272558
1740926266.3956468,None,None,-0.03309265534667949,-0.03149332863769533,1.9003664122137405,-0.005889494949899593,0.00020227778698031208,-0.02450813317283597
1740926266.4109852,None,None,-0.018727445385742003,-0.1655686216064453,-0.14543511450381663,-0.005926453055202734,0.00020457494724169468,-0.025080845318888764
1740926266.4242246,None,None,0.0818290243408204,0.05948633444824214,-1.8553587786259542,-0.0058738333733205075,0.00021687977192704245,-0.032407288919606814
1740926266.4428294,None,None,0.026762386157226814,0.0475153261474609,0.03777099236641224,-0.005884753190781517,0.00021702061942975326,-0.03225771365281201
1740926266.459519,None,None,0.014791377856445465,0.12173557761230466,-0.34390839694656483,-0.0058973599154549345,0.00022009588351046982,-0.03361561457461092
1740926266.4752102,None,None,0.03155078947753931,0.006813897924804635,-0.0690992366412213,-0.005903437890797685,0.00022089542706906946,-0.03388834248126767
1740926266.4906242,None,None,0.02197398283691432,0.11694717429199214,-0.1225343511450383,-0.0059146485213492665,0.00022226409091046867,-0.03437216369923178
1740926266.502736,None,None,0.02915658781738295,0.033150116186523415,-0.04619847328244253,-0.005922323585569772,0.00022294284092778347,-0.034554566359805854
1740926266.5140722,None,None,-0.025910050366210635,0.01160230124511713,-0.19887022900763363,-0.005962781478941386,0.0002258261380941744,-0.03533998735167269
1740926266.53215,None,None,-0.016333243725585644,-0.15599181496582032,-0.08436641221374064,-0.005999079282915982,0.00022771179128427269,-0.035673289072820843
1740926266.543819,None,None,-0.013939042065429508,0.0020254946044921396,0.014870229007633462,-0.0060355048882242,0.00022884812375199807,-0.035614697150061325
1740926266.5556087,None,None,-0.025910050366210635,0.01639070456542968,1.9003664122137405,-0.006108605951397656,0.00021674084321645748,-0.028109131792766723
1740926266.5690048,None,None,0.0004261678955079784,0.006813897924804635,-0.09200000000000008,-0.00613403763225491,0.000218309594151157,-0.028471419336993316
1740926266.580685,None,None,-0.047457865307616975,0.01639070456542968,-0.07673282442748075,-0.006190611287497077,0.00022075216265327052,-0.028773473980245674
1740926266.59225,None,None,0.024368184497070455,0.009208099584960883,0.007236641221374018,-0.0062024967926241,0.00022113008372051055,-0.02874395209516005
1740926266.6059666,None,None,-0.006756437084960654,-0.0051571103759766035,0.19807633587786255,-0.006237300265128984,0.00022076286000080475,-0.0279606973621665
1740926266.6181815,None,None,0.014791377856445465,-0.1296555967041016,-0.07673282442748075,-0.00625395972659585,0.00022193566932485084,-0.028262711522713847
1740926266.6302834,None,None,0.0004261678955079784,0.02836171286621092,1.9996030534351146,-0.0063120060176721825,0.0002083626736513255,-0.020364150148674813
1740926266.6437528,None,None,-0.011544840405273149,0.01160230124511713,0.06830534351145046,-0.006347508778890905,0.00020896625224509787,-0.02009212973943434
1740926266.6607533,None,None,-0.016333243725585644,0.01639070456542968,0.014870229007633462,-0.006385389703280632,0.00021004781498107537,-0.02003113919217584
1740926266.6726098,None,None,-0.06661147858886696,0.033150116186523415,-0.14543511450381663,-0.006453594555028739,0.00021329109759226804,-0.02060329826487874
1740926266.6894104,None,None,0.005214571215820474,0.006813897924804635,-0.06146564885496186,-0.00647689275155255,0.00021450261355830357,-0.02084394092072397
1740926266.7014835,None,None,0.014791377856445465,-0.14641500832519533,0.13700763358778634,-0.006497075914785087,0.00021407564390627453,-0.02030077023565786
1740926266.7129657,None,None,-0.03069845368652313,0.03554431784667966,0.03777099236641224,-0.0065452858823562025,0.00021525512700080936,-0.02014947478140542
1740926266.7269924,None,None,-0.03069845368652313,-0.03867593361816407,-0.11490076335877841,-0.006591337897597423,0.00021755091036194894,-0.02060116439963637
1740926266.7419631,None,None,-0.018727445385742003,0.006813897924804635,-0.09963358778625953,-0.00663007723343655,0.00021950624708071814,-0.020992655369023408
1740926266.7534041,None,None,0.012397176196289328,-0.01952232033691409,1.9767022900763358,-0.006681468635121884,0.00020552071182625083,-0.013183697645517429
1740926266.7681155,None,None,0.02197398283691432,-0.05782954689941411,-0.0232977099236642,-0.006694479498597565,0.00020607947597648315,-0.013272557962167416
1740926266.7812173,None,None,-0.037881058666991985,-0.033887530297851576,-1.8171908396946566,-0.006718140324918319,0.0002210839350700732,-0.02044647479912637
1740926266.793152,None,None,-0.018727445385742003,-0.13683820168457034,-0.1225343511450383,-0.00675687040383986,0.00022319596861662423,-0.02092851489629993
1740926266.808901,None,None,0.0004261678955079784,0.05709213278808589,-0.13016793893129774,-0.006783080828030007,0.00022501733615671796,-0.021440805685638883
1740926266.8209083,None,None,-0.016333243725585644,0.021179107885742177,-0.04619847328244253,-0.0068217366776937,0.0002265221745442763,-0.021621563080791616
1740926266.8324168,None,None,-0.011544840405273149,-0.12247299172363285,0.1599083969465649,-0.0068607198256592766,0.00022639316692151773,-0.02098835329986777
1740926266.8454187,None,None,0.026762386157226814,-0.08177156350097659,-0.05383206106870242,-0.006871079714008532,0.00022717135954120318,-0.021199229937132143
1740926266.86097,None,None,0.01957978117675796,-0.10810778176269531,-0.00039694656488542535,-0.006886927699474128,0.00022767773676368266,-0.0211991206962651
1740926266.8727596,None,None,0.014791377856445465,0.025967511206054672,0.030137404580152793,-0.0069063516357317474,0.00022803794597874987,-0.021078437671179555
1740926266.8885107,None,None,-0.018727445385742003,0.01160230124511713,0.04540458015267168,-0.006948146928560107,0.00022887644140439652,-0.02089745844608224
1740926266.900969,None,None,0.0004261678955079784,0.04990952780761715,-0.008030534351144869,-0.006976536338111744,0.00022977852670678223,-0.020927511784498094
1740926266.9123836,None,None,-0.04506366364746084,0.030755914526367167,0.22861068702290077,-0.007039015202811976,0.00022967651357788644,-0.02002298490781885
1740926266.9266083,None,None,0.012397176196289328,0.023573309545898424,0.02250381679389335,-0.007060253694419237,0.00023012998554379905,-0.019932345025233993
1740926266.9412231,None,None,0.05788700773925792,-0.03149332863769533,0.03777099236641224,-0.007051462105336179,0.00022967334061995575,-0.019781415691187545
1740926266.953983,None,None,-0.035486857006835626,-0.017128118676757842,-0.030931297709923644,-0.007103331936554599,0.0002313577156049145,-0.019901821052222428
1740926266.967242,None,None,0.005214571215820474,0.004419696264648387,0.1904427480916031,-0.007132026975331296,0.0002306373719082294,-0.01914796326675461
1740926266.9796252,None,None,0.024368184497070455,0.03793851950683591,-0.37444274809160305,-0.007138548701242957,0.0002339370688590611,-0.02062498662317348
1740926266.991716,None,None,0.02197398283691432,0.01639070456542968,0.24387786259541988,-0.007156899406587517,0.00023251373820081688,-0.019660252862607492
1740926267.0051503,None,None,-0.013939042065429508,0.033150116186523415,0.06067175572519079,-0.007196046791310193,0.00023310450573242443,-0.01941894487163674
1740926267.0166419,None,None,-0.016333243725585644,-0.014733917016601594,-0.015664122137404757,-0.007235637707527278,0.00023432292959687625,-0.019479102484581873
1740926267.0282805,None,None,0.05309860441894543,0.02836171286621092,0.45761832061068697,-0.007236778261910282,0.00023070165527308662,-0.017670098513692507
1740926267.0404782,None,None,-0.07618828522949195,-0.15838601662597657,0.03777099236641224,-0.007317178853263676,0.00023247560346097016,-0.017518982472165406
1740926267.0549107,None,None,-0.028304252026366994,0.006813897924804635,-0.015664122137404757,-0.00736506516856834,0.00023386905197829877,-0.01757890202275488
1740926267.0662243,None,None,-0.0235158487060545,-0.002762908715820356,-0.04619847328244253,-0.0074094502678293895,0.00023541988244519483,-0.017759448053114153
1740926267.077489,None,None,0.005214571215820474,-0.002762908715820356,-0.19123664122137418,-0.007432265712852617,0.0002376407552309561,-0.01851285903362186
1740926267.0945091,None,None,0.005214571215820474,0.06427473776855466,-1.771389312977099,-0.007428386647973917,0.0002522854511741206,-0.02550705849477265
1740926267.105828,None,None,0.0004261678955079784,0.0523037294677734,0.04540458015267168,-0.00745891728191963,0.000252784504524844,-0.02532717278117422
1740926267.118309,None,None,0.03873339445800794,0.025967511206054672,-0.24467175572519073,-0.007458684654932311,0.00025495368064078254,-0.02629288540355568
1740926267.1343055,None,None,-0.057034671948241966,0.01639070456542968,0.014870229007633462,-0.007527413965585223,0.00025661864362065955,-0.026233737455565887
1740926267.1458886,None,None,0.0004261678955079784,-0.0003687070556641081,-0.1836030534351143,-0.007554290619559611,0.0002589397075950072,-0.026958426084535803
1740926267.1574237,None,None,-0.013939042065429508,0.009208099584960883,0.06067175572519079,-0.007595153301814073,0.00025956108052306446,-0.026718505888958376
1740926267.1719177,None,None,0.017185579516601823,0.0020254946044921396,0.2744122137404581,-0.007618714469482257,0.0002579764284672529,-0.025634409490537247
1740926267.1859581,None,None,0.005214571215820474,0.11934137595214839,0.1904427480916031,-0.007648822102591126,0.0002572397056875865,-0.024881770674177107
1740926267.1976104,None,None,-0.0881592935302733,0.013996502905273434,-0.19123664122137418,-0.007735713195608192,0.00026105712645893694,-0.025636414486713697
1740926267.2119884,None,None,-0.037881058666991985,-0.03628173195800782,-0.015664122137404757,-0.007792115788198873,0.00026267736582055577,-0.025697784658528833
1740926267.2261848,None,None,-0.037881058666991985,-0.02909912697753908,-0.1378015267175572,-0.00784668857233396,0.0002652881901376773,-0.026241533707719148
1740926267.2379997,None,None,0.012397176196289328,0.05948633444824214,-0.03856488549618309,-0.00786906453169329,0.00026629978708457526,-0.02639345092957143
1740926267.256202,None,None,-0.013939042065429508,-0.04107013527832032,-1.8400916030534349,-0.007877768900971919,0.00028232677655528325,-0.033660232210430664
1740926267.2678227,None,None,-0.025910050366210635,0.009208099584960883,-1.7561221374045801,-0.007896588424858414,0.00029798990435722476,-0.040596559207114497
1740926267.2811596,None,None,-0.06421727692871082,-0.009945513696289099,-0.07673282442748075,-0.007971813232353927,0.00030073201626552447,-0.040901537187975213
1740926267.297388,None,None,0.002820369555664337,0.061880536108398415,-0.06146564885496186,-0.008001930256865282,0.0003022722997024368,-0.04114623590387455
1740926267.310118,None,None,0.02197398283691432,0.006813897924804635,-0.15306870229007652,-0.008017341990826623,0.0003042455513751102,-0.04175271576527172
1740926267.3221755,None,None,-0.013939042065429508,0.01878490622558593,-0.1225343511450383,-0.00805785260269285,0.000306585880763644,-0.0422386832295859
1740926267.3349729,None,None,-0.03309265534667949,-0.05543534523925786,0.20570992366412222,-0.008117580445315901,0.00030656672880509075,-0.041428368856088305
1740926267.357089,None,None,-0.016333243725585644,-0.14402080666503908,-0.015664122137404757,-0.008162020085914028,0.0003080971021029134,-0.04149216832011232
1740926267.3762,None,None,-0.006756437084960654,0.01160230124511713,-0.0690992366412213,-0.00819906605769895,0.000309915638668298,-0.04176698312287996
1740926267.387901,None,None,-0.04266946198730448,0.023573309545898424,0.18280916030534344,-0.00826554048426511,0.0003102894175839625,-0.04104696401593825
1740926267.3991017,None,None,0.036339192797851805,0.01160230124511713,0.10647328244274812,-0.008276492327608137,0.0003098743115800896,-0.040628264893561146
1740926267.4137306,None,None,0.017185579516601823,0.006813897924804635,-0.08436641221374064,-0.008296935030305394,0.0003113957022700617,-0.04096315819122466
1740926267.4255075,None,None,-0.06182307526855446,0.0523037294677734,-0.06146564885496186,-0.008372289649109622,0.00031419662713527973,-0.0412076548274453
1740926267.4373963,None,None,-0.011544840405273149,0.004419696264648387,0.14464122137404578,-0.008417210782995887,0.0003143435081953168,-0.04063818903653499
1740926267.4499667,None,None,-0.004362235424804517,-0.014733917016601594,-0.05383206106870242,-0.008453558422693092,0.00031604256471485663,-0.0408524318803156
1740926267.4620168,None,None,0.002820369555664337,-0.0003687070556641081,-0.1378015267175572,-0.00848345175844174,0.0003183314361249487,-0.04139830413610197
1740926267.474536,None,None,0.005214571215820474,-0.03867593361816407,-0.10726717557251897,-0.008512328429791572,0.00032032429642505684,-0.04182365459395301
1740926267.4871826,None,None,-0.035486857006835626,0.009208099584960883,0.11410687022900756,-0.008573678928335245,0.0003212163159737957,-0.04137479745267147
1740926267.4992316,None,None,-0.028304252026366994,-0.007551312036132851,-1.771389312977099,-0.008594334305672089,0.0003382816713589024,-0.04837212547626753
1740926267.5114808,None,None,-0.011544840405273149,0.013996502905273434,0.09120610687022901,-0.008639595661002815,0.00033900940167369906,-0.04801472033439467
1740926267.5226908,None,None,-0.0235158487060545,0.0020254946044921396,-0.0690992366412213,-0.008690211464077486,0.00034138267736086243,-0.04829030766901015
1740926267.5346797,None,None,-0.02112164704589814,0.06666893942871091,-0.2217709923664124,-0.00873642450826195,0.00034506949654491026,-0.04916883990752428
1740926267.5471628,None,None,-0.006756437084960654,0.0714573427490234,-0.22940458015267184,-0.00877271191116642,0.0003485622573655446,-0.05007762292425452
1740926267.558265,None,None,0.01000297453613297,-0.03628173195800782,-0.08436641221374064,-0.008800293779390239,0.0003504500525003781,-0.05041372623900848
1740926267.5763147,None,None,-0.02112164704589814,0.009208099584960883,-0.00039694656488542535,-0.008851270913298877,0.0003522661614652119,-0.05041823903200387
1740926267.58786,None,None,-0.057034671948241966,-0.009945513696289099,-0.030931297709923644,-0.008926935054734863,0.0003551551148018919,-0.05054330805720396
1740926267.599279,None,None,-0.04266946198730448,-0.009945513696289099,-0.00039694656488542535,-0.008993588709805272,0.0003575046468496294,-0.050547771609474115
1740926267.6170514,None,None,0.02197398283691432,0.0020254946044921396,-0.1683358778625954,-0.009011966293134315,0.00035995568037069524,-0.05121541109452529
1740926267.628692,None,None,-0.0833708902099608,-0.13683820168457034,0.12174045801526723,-0.009109960375018464,0.0003621758633682648,-0.05073757452739925
1740926267.6405592,None,None,-0.013939042065429508,0.033150116186523415,-0.17596946564885485,-0.009153809583398554,0.00036555834850498554,-0.05143532240464734
1740926267.6574702,None,None,0.05309860441894543,0.01639070456542968,-0.09963358778625953,-0.009152344176071659,0.00036672736244826006,-0.05183167138608463
1740926267.6691597,None,None,0.024368184497070455,-0.014733917016601594,-0.16070229007633596,-0.00916957767443846,0.0003691030554602556,-0.052469223180610584
1740926267.680899,None,None,0.07943482268066426,-0.01952232033691409,-0.00039694656488542535,-0.009151325432242828,0.0003687031766691684,-0.05247375930995815
1740926267.697247,None,None,-0.0019680337646481583,0.0020254946044921396,-0.08436641221374064,-0.009188209223172782,0.00037097691742123953,-0.052809881070946675
1740926267.709342,None,None,-0.006756437084960654,-0.1296555967041016,0.08357251908396957,-0.009232037714841563,0.0003718281462621402,-0.05248280422104751
1740926267.7209113,None,None,0.0076087728759768325,0.02836171286621092,-0.19123664122137418,-0.009260086538594546,0.00037488008752851814,-0.05324089633399825
1740926267.7369561,None,None,0.033944991137695446,0.009208099584960883,0.03777099236641224,-0.009274384054781416,0.0003751606614374043,-0.05309468673455045
1740926267.7481341,None,None,-0.011544840405273149,-0.017128118676757842,0.15227480916030545,-0.009323060117786355,0.0003754927159265271,-0.05249623299522952
1740926267.7592998,None,None,-0.059428873608398325,0.042726922827148406,-0.06146564885496186,-0.009401178752536614,0.00037904593591341876,-0.052741742171904596
1740926267.7731416,None,None,0.026762386157226814,-0.04107013527832032,-0.015664122137404757,-0.009419694251594472,0.00038000988295083137,-0.05280636677885856
1740926267.7858264,None,None,-0.018727445385742003,-0.03628173195800782,0.06067175572519079,-0.009471951905865307,0.00038142060062827866,-0.052569514677179324
1740926267.7974577,None,None,-0.04027526032714834,-0.033887530297851576,0.08357251908396957,-0.009540134347922873,0.00038319239579655143,-0.052242155447686706
1740926267.814493,None,None,0.01000297453613297,-0.024310723657226585,-0.08436641221374064,-0.009569320999336946,0.000385257621492365,-0.05257791056746905
1740926267.8259373,None,None,-0.06661147858886696,-0.04107013527832032,-0.19123664122137418,-0.00965064214376499,0.00039039020528137226,-0.05333573827293393
1740926267.8371658,None,None,-0.018727445385742003,0.01639070456542968,-0.00039694656488542535,-0.009702555582637953,0.0003924749601551051,-0.05334000507807446
1740926267.8546126,None,None,-0.04027526032714834,0.1289181825927734,-0.14543511450381663,-0.009766830748851032,0.00039655719602801946,-0.05391700893566719
1740926267.8663769,None,None,0.005214571215820474,-0.014733917016601594,0.1904427480916031,-0.009806385136072892,0.0003961987147038899,-0.053167658782520937
1740926267.8782427,None,None,0.002820369555664337,-0.017128118676757842,-0.03856488549618309,-0.009842621031223865,0.0003981092793808761,-0.05332252142084972
1740926267.8950036,None,None,-0.02112164704589814,-0.0003687070556641081,-0.11490076335877841,-0.009894314088850723,0.00040143758750284074,-0.05377883455205244
1740926267.9071014,None,None,-0.049852066967773334,0.006813897924804635,-0.13016793893129774,-0.009966405535725606,0.0004057542291653931,-0.05429548268431454
1740926267.9184692,None,None,0.05070440275878929,0.04990952780761715,0.23624427480916044,-0.009975184706299912,0.0004036752914627017,-0.05336519002501541
1740926267.93646,None,None,0.024368184497070455,0.06427473776855466,0.28204580152671754,-0.010003539572386698,0.00040185184397186093,-0.05225384548065194
1740926267.9477055,None,None,-0.07618828522949195,-0.002762908715820356,0.20570992366412222,-0.010102033161472313,0.0004036504452245223,-0.051443754443542
1740926267.959678,None,None,-0.004362235424804517,-0.04346433693847657,0.10647328244274812,-0.010147311119999758,0.000404377570957341,-0.051025386350172154
1740926267.9714706,None,None,0.005214571215820474,0.03554431784667966,-1.8477251908396948,-0.010141497022518531,0.0004242666577578439,-0.058324097311071355
1740926267.987964,None,None,0.026762386157226814,-0.026704925317382833,0.12937404580152667,-0.010165653027298674,0.00042394148039521227,-0.05781635765235802
1740926268.0001452,None,None,0.036339192797851805,-0.0003687070556641081,0.29731297709923665,-0.01018664370118462,0.0004216226398081038,-0.0566453038946745
1740926268.0152543,None,None,-0.08576509187011694,0.06666893942871091,0.21334351145038166,-0.010293279629701982,0.0004237773687357144,-0.055805627945752126
1740926268.0277855,None,None,-0.02112164704589814,-0.021916521997070337,-1.8477251908396948,-0.010306392114946735,0.0004448283131365412,-0.06310492622816678
1740926268.0401912,None,None,-0.03309265534667949,0.04033272116699216,-0.07673282442748075,-0.010369738887381342,0.0004484893861997058,-0.06341173730830957
1740926268.0529385,None,None,-0.016333243725585644,-0.002762908715820356,-0.030931297709923644,-0.010422353808832274,0.0004512085505357107,-0.06353767957873971
1740926268.0647833,None,None,0.026762386157226814,0.03554431784667966,0.373648854961832,-0.010453518019039057,0.00044846720273092344,-0.06206591630333803
1740926268.0765462,None,None,0.01957978117675796,0.061880536108398415,2.0148702290076335,-0.010528279104803648,0.0004290693355096731,-0.054112742565461724
1740926268.09453,None,None,0.024368184497070455,-0.15838601662597657,-0.09200000000000008,-0.010549352946961457,0.0004310233081639129,-0.054478190926658426
1740926268.1063516,None,None,-0.016333243725585644,0.023573309545898424,-1.824824427480916,-0.010558735670343438,0.00045218258481625486,-0.061686511183520094
1740926268.117656,None,None,-0.011544840405273149,-0.007551312036132851,0.014870229007633462,-0.010608997801757277,0.0004542915192637215,-0.061631110964908524
1740926268.1341922,None,None,0.20393330900878914,0.006813897924804635,0.11410687022900756,-0.010505642565070958,0.00044834353521339436,-0.06118377988974539
1740926268.1471975,None,None,-0.03069845368652313,-0.09134837014160158,0.1904427480916031,-0.010573033875522178,0.0004491760740423745,-0.06043489164388262
1740926268.1593764,None,None,0.005214571215820474,0.025967511206054672,-1.8095572519083971,-0.010566499683867733,0.0004697392047009552,-0.06758368649922987
1740926268.1748116,None,None,-0.016333243725585644,0.01639070456542968,-1.8324580152671754,-0.010575534186236852,0.0004913877858902214,-0.0748240253111107
1740926268.1862054,None,None,-0.035486857006835626,0.01160230124511713,2.0225038167938933,-0.010692167267411602,0.0004733419773408378,-0.06684259169391255
1740926268.1980505,None,None,-0.05464047028808583,-0.012339715356445347,-0.04619847328244253,-0.010772369510515837,0.0004776494056346787,-0.06702890429857948
1740926268.214128,None,None,-0.0019680337646481583,0.009208099584960883,-0.05383206106870242,-0.010814416489634816,0.00048026725879389093,-0.06724534430183704
1740926268.2256467,None,None,0.012397176196289328,0.13131238425292965,-0.15306870229007652,-0.010843645130304932,0.0004834468838408504,-0.06785364530927354
1740926268.2370763,None,None,-0.011544840405273149,-0.014733917016601594,-0.06146564885496186,-0.010892577748994992,0.0004865115168811537,-0.06810026515118471
1740926268.253811,None,None,0.012397176196289328,0.11934137595214839,0.06830534351145046,-0.010927344542610677,0.00048736054927905453,-0.06783442882571625
1740926268.2658684,None,None,0.04831020109863293,0.01160230124511713,-0.09200000000000008,-0.010931884772916482,0.0004886175265194131,-0.06820152756331495
1740926268.2777176,None,None,-0.05464047028808583,-0.14402080666503908,-0.0690992366412213,-0.011012014775065903,0.0004933577844592795,-0.0684781961977077
1740926268.3040793,None,None,0.012397176196289328,-0.0051571103759766035,0.09120610687022901,-0.011047445830956114,0.00049397095393524,-0.06812184729003537
1740926268.3156931,None,None,-0.04027526032714834,-0.014733917016601594,-0.06146564885496186,-0.0111175920099271,0.0004981759730648136,-0.06836826290102742
1740926268.3279216,None,None,0.026762386157226814,0.05709213278808589,-0.2141374045801525,-0.011135113095079556,0.0005015647515720207,-0.06921755478349588
1740926268.340875,None,None,-0.057034671948241966,0.0020254946044921396,0.03777099236641224,-0.011220302351184519,0.000505396919217156,-0.06907218388751044
1740926268.3523185,None,None,0.02915658781738295,0.006813897924804635,0.22861068702290077,-0.011247383160501582,0.0005039275987520021,-0.06817316444069897
1740926268.3661647,None,None,-0.009150638745117012,-0.060223748559570356,1.9309007633587787,-0.011345138771755735,0.0004853818877953023,-0.06055193500691451
1740926268.3826115,None,None,-0.06182307526855446,-0.03149332863769533,-0.015664122137404757,-0.011432194026816382,0.0004899794053923713,-0.0606160158065877
1740926268.3941865,None,None,-0.018727445385742003,0.033150116186523415,0.007236641221374018,-0.011488546737304407,0.0004926978270506017,-0.06058965619182528
1740926268.4090695,None,None,0.02915658781738295,0.023573309545898424,-0.16070229007633596,-0.011505555839377287,0.0004954075201503707,-0.06122642818503866
1740926268.4207332,None,None,0.024368184497070455,0.05948633444824214,-0.06146564885496186,-0.011528537236481754,0.0004972152940442291,-0.061471411512233155
1740926268.4327714,None,None,0.02197398283691432,0.04990952780761715,-0.05383206106870242,-0.011553398940306683,0.0004990302107856244,-0.06168626233255091
1740926268.4458745,None,None,-0.03309265534667949,-0.02909912697753908,0.04540458015267168,-0.011621360761791742,0.0005019272787206785,-0.06150924480936174
1740926268.459955,None,None,0.04352179777832044,0.006813897924804635,-0.09963358778625953,-0.011629253271997937,0.0005034054159376883,-0.06190490849297027
1740926268.4713767,None,None,0.02197398283691432,-0.09853097512207032,0.02250381679389335,-0.011656022782159865,0.000504376641679362,-0.06181831376780866
1740926268.4827297,None,None,0.01000297453613297,-0.002762908715820356,-0.14543511450381663,-0.011687224516826467,0.0005076912646766302,-0.062394819503306304
1740926268.498014,None,None,-0.02112164704589814,-0.16317441994628906,-0.00039694656488542535,-0.011745225627722487,0.0005106551977570706,-0.062398665639456674
1740926268.509919,None,None,-0.02112164704589814,-0.03628173195800782,-0.1836030534351143,-0.011798648117467964,0.0005156870566887527,-0.06312591240010204
1740926268.5213149,None,None,0.026762386157226814,-0.14641500832519533,-0.32864122137404594,-0.011813024526338332,0.0005204221483717988,-0.06442597630218437
1740926268.5338552,None,None,-0.006756437084960654,-0.04825274025878912,-0.00039694656488542535,-0.011860770096476202,0.0005228573266743374,-0.06443007162882945
1740926268.5453727,None,None,0.017185579516601823,0.061880536108398415,-0.04619847328244253,-0.011889618708116232,0.0005248325804559078,-0.06461500006482351
1740926268.5571046,None,None,-0.04506366364746084,0.03554431784667966,-0.27520610687022895,-0.01195869181428267,0.0005319690849715218,-0.06570418344939671
1740926268.5722046,None,None,-0.0019680337646481583,0.021179107885742177,-0.2141374045801525,-0.011997689918876503,0.0005366739440818843,-0.0665523862067105
1740926268.5847993,None,None,0.017185579516601823,0.1049761659912109,0.19807633587786255,-0.012033345790837863,0.0005359318422184595,-0.06577300564102445
1740926268.5969164,None,None,-0.013939042065429508,-0.16317441994628906,2.030137404580153,-0.012140178480805138,0.0005157021261127824,-0.05775927162379393
1740926268.6147432,None,None,0.0004261678955079784,0.06427473776855466,1.9690687022900764,-0.01223421661174468,0.0004954508689440762,-0.04998535699530402
1740926268.627381,None,None,0.02197398283691432,0.033150116186523415,0.0759389312977099,-0.01226170035516264,0.0004957399389050845,-0.049685469985700115
1740926268.6395442,None,None,-0.02112164704589814,0.0020254946044921396,-1.8553587786259542,-0.012270212962592663,0.0005198814194115701,-0.05701150000691004
1740926268.6518538,None,None,-0.004362235424804517,0.006813897924804635,0.053038167938931347,-0.012317460407825854,0.000521612305552092,-0.05680318039914782
1740926268.6648605,None,None,0.005214571215820474,0.006813897924804635,-0.06146564885496186,-0.01235455950457785,0.0005242523223155855,-0.05704694910369084
1740926268.676459,None,None,0.01000297453613297,0.033150116186523415,-0.11490076335877841,-0.012386682980222762,0.000527308528877488,-0.05750174039217677
1740926268.6925085,None,None,-0.028304252026366994,-0.021916521997070337,1.9767022900763358,-0.012503209240621265,0.0005079540191357016,-0.04969767424809442
1740926268.7048,None,None,0.18238549406738302,-0.15359761330566407,-0.2217709923664124,-0.012402808780805756,0.0005048519820731496,-0.05057330573555308
1740926268.7163897,None,None,0.012397176196289328,-0.0003687070556641081,-0.17596946564885485,-0.012430143005669242,0.0005084348696577142,-0.051268143672251354
1740926268.7331119,None,None,0.0004261678955079784,0.0523037294677734,-1.7179541984732825,-0.012425266848897575,0.0005303298593267442,-0.058051725118820424
1740926268.7452679,None,None,-0.037881058666991985,-0.02909912697753908,-0.00039694656488542535,-0.012495679456845593,0.0005340811700305769,-0.05805449717752134
1740926268.756765,None,None,-0.035486857006835626,0.09779356101074216,-0.0690992366412213,-0.012562687718018509,0.0005385447689053538,-0.05832853017843782
1740926268.7702541,None,None,-0.057034671948241966,-0.05543534523925786,0.02250381679389335,-0.012648601733727633,0.0005428944380567409,-0.05824088115598838
1740926268.7838256,None,None,-0.0235158487060545,0.025967511206054672,0.09120610687022901,-0.012711479985610579,0.0005450335086271093,-0.0578819477372298
1740926268.79567,None,None,-0.004362235424804517,-0.13204979836425784,-0.0690992366412213,-0.012755760685828784,0.0005482189787867618,-0.058155922500749406
1740926268.809515,None,None,-0.057034671948241966,-0.14162660500488283,0.0759389312977099,-0.012843723750737784,0.0005520026284647899,-0.05785720971269639
1740926268.821843,None,None,-0.04266946198730448,-0.024310723657226585,0.04540458015267168,-0.012920368404509617,0.0005555439441140747,-0.05767900773026816
1740926268.8335278,None,None,0.036339192797851805,0.004419696264648387,0.04540458015267168,-0.012937651455406157,0.0005556765234841214,-0.05750081195233279
1740926268.8453207,None,None,-0.018727445385742003,0.033150116186523415,-0.10726717557251897,-0.012992210065012935,0.0005599780348961741,-0.05792536297360378
1740926268.857053,None,None,-0.013939042065429508,-0.009945513696289099,-0.015664122137404757,-0.013045816611897828,0.0005630154764360764,-0.057988279582036874
1740926268.8685846,None,None,-0.035486857006835626,0.01160230124511713,2.007236641221374,-0.0131709026115267,0.0005432391280294542,-0.05006380118395596
1740926268.8801467,None,None,-0.04506366364746084,0.02836171286621092,0.030137404580152793,-0.013248953183583725,0.0005470439608463322,-0.049944534397725567
1740926268.8960516,None,None,-0.006756437084960654,-0.05543534523925786,-0.05383206106870242,-0.013295994537501502,0.0005501772072113876,-0.050156827339534304
1740926268.9081807,None,None,0.0076087728759768325,0.06666893942871091,0.1599083969465649,-0.013338120494800827,0.0005501642467126834,-0.04952522413206027
1740926268.9196,None,None,-0.013939042065429508,0.042726922827148406,0.03777099236641224,-0.013393202628504342,0.0005525285383973388,-0.04937575882650079
1740926268.9363272,None,None,0.005214571215820474,-0.014733917016601594,0.12174045801526723,-0.013436185194219354,0.0005530639695462468,-0.04889473919201741
1740926268.9473555,None,None,0.005214571215820474,0.013996502905273434,1.9385343511450381,-0.013529352610221071,0.0005319638536959656,-0.04124017283894611
1740926268.959351,None,None,-0.004362235424804517,0.03793851950683591,0.04540458015267168,-0.013576815559666538,0.000533740797279528,-0.041059227724553594
1740926268.9743485,None,None,-0.04506366364746084,0.1337065859130859,-0.0690992366412213,-0.013652141475893352,0.0005386409227435589,-0.041330351587485964
1740926268.9861302,None,None,0.04352179777832044,-0.04346433693847657,0.13700763358778634,-0.013666103410472676,0.00053725955660781,-0.040787815394336034
1740926268.9984007,None,None,0.024368184497070455,0.01160230124511713,0.014870229007633462,-0.013691027655767355,0.0005381610699743165,-0.04072744283125729
1740926269.0140746,None,None,-0.037881058666991985,-0.02909912697753908,-0.0232977099236642,-0.01376226419905686,0.000542183349363463,-0.04081773501420638
1740926269.0256643,None,None,0.0004261678955079784,0.013996502905273434,0.007236641221374018,-0.013805413134781024,0.0005442034762854907,-0.04078753183671709
1740926269.0369208,None,None,0.01957978117675796,-0.009945513696289099,-0.13016793893129774,-0.013830139640594477,0.0005470691430801223,-0.04129988231311561
1740926269.0548236,None,None,-0.03069845368652313,0.054697931127929644,0.18280916030534344,-0.01390207665216003,0.0005482844321820803,-0.04057655225297208
1740926269.0668092,None,None,-0.02112164704589814,0.03554431784667966,-0.08436641221374064,-0.013959336918171084,0.0005523214851918019,-0.04090803250463356
1740926269.0783014,None,None,-0.0019680337646481583,0.013996502905273434,0.03777099236641224,-0.014005603585209832,0.0005540728274888851,-0.040757363138303096
1740926269.0922072,None,None,0.0076087728759768325,-0.09853097512207032,0.12937404580152667,-0.014047196060291782,0.0005543046884903893,-0.04024501791210016
1740926269.1036067,None,None,0.026762386157226814,0.02836171286621092,0.02250381679389335,-0.014071059277169728,0.0005550321004473664,-0.04015458212463906
1740926269.1152618,None,None,-0.013939042065429508,0.006813897924804635,-1.7637557251908396,-0.014075224961472302,0.0005792873532559417,-0.04711681738010274
1740926269.1269143,None,None,-0.03309265534667949,-0.03628173195800782,-0.030931297709923644,-0.014144178803917029,0.000583227775022338,-0.04723848110444648
1740926269.1390097,None,None,-0.04506366364746084,0.006813897924804635,0.175175572519084,-0.014228463345736965,0.0005851455041496932,-0.04654639090019883
1740926269.1507018,None,None,-0.04266946198730448,0.006813897924804635,-0.2370381679389313,-0.014299359729701363,0.000592029490309547,-0.04748173032217457
1740926269.1625297,None,None,0.005214571215820474,0.021179107885742177,-1.824824427480916,-0.014288206963469267,0.000616525288893939,-0.054686276307865433
1740926269.1741226,None,None,0.005214571215820474,0.013996502905273434,0.16754198473282456,-0.014335030371978648,0.0006165362361498492,-0.05402561686980894
1740926269.1866205,None,None,-0.011544840405273149,-0.15599181496582032,-0.09200000000000008,-0.014387236599096595,0.0006204512326200799,-0.054389561759590636
1740926269.197946,None,None,-0.04266946198730448,-0.03149332863769533,0.053038167938931347,-0.014467771511143592,0.0006238803231263263,-0.05418088407794288
1740926269.2095246,None,None,0.017185579516601823,0.054697931127929644,1.808763358778626,-0.014553451388669517,0.0006029723910552393,-0.04704020757104361
1740926269.2219486,None,None,0.012397176196289328,0.01639070456542968,-0.19123664122137418,-0.014583977220618919,0.0006070812887085096,-0.04779480037202589
1740926269.233546,None,None,-0.03309265534667949,-0.13683820168457034,-0.1683358778625954,-0.014650342852258406,0.0006128173966304281,-0.04845906386911454
1740926269.2451406,None,None,-0.0019680337646481583,-0.0003687070556641081,-0.3133740458015266,-0.014688719195013437,0.0006190931447680663,-0.049696107563298675
1740926269.2603889,None,None,0.002820369555664337,0.06666893942871091,-0.1225343511450383,-0.014729172388977675,0.0006227984594550937,-0.05017988757774989
1740926269.2737908,None,None,0.0076087728759768325,0.06427473776855466,-0.03856488549618309,-0.014768480848345769,0.0006252584230136611,-0.05033222395756245
1740926269.2856612,None,None,0.03873339445800794,-0.05543534523925786,0.10647328244274812,-0.014788013289188232,0.0006245926530807929,-0.049911976977318355
1740926269.299966,None,None,-0.0019680337646481583,-0.024310723657226585,-0.08436641221374064,-0.014833229585477203,0.0006280280037197132,-0.05024508902812145
1740926269.311376,None,None,-0.004362235424804517,-0.009945513696289099,0.12937404580152667,-0.014886735759523645,0.0006288642523626847,-0.04973437284095713
1740926269.3236086,None,None,0.012397176196289328,0.02836171286621092,-0.20650381679389307,-0.014917294464226105,0.0006332601361892378,-0.05054968201100442
1740926269.3369913,None,None,-0.06661147858886696,0.01878490622558593,0.06067175572519079,-0.015017181653288254,0.0006375742783869416,-0.050310205343000354
1740926269.3507626,None,None,0.03873339445800794,0.033150116186523415,0.29731297709923665,-0.015042739515992363,0.0006344799602643401,-0.04913649909486536
1740926269.3626673,None,None,-0.025910050366210635,-0.05782954689941411,0.1599083969465649,-0.015114160142186623,0.0006358200315104749,-0.04850502830388372
1740926269.3841295,None,None,-0.004362235424804517,0.0020254946044921396,-1.8400916030534349,-0.015108942104897325,0.0006618582021677344,-0.05576968173840625
1740926269.3994915,None,None,0.033944991137695446,-0.1296555967041016,-0.14543511450381663,-0.01512558834164461,0.0006646823750862682,-0.05634489609535703
1740926269.418983,None,None,0.06985801604003927,-0.024310723657226585,-1.8095572519083971,-0.015063999604634564,0.0006873871578625189,-0.06349031673497481
1740926269.4306138,None,None,-0.0019680337646481583,0.009208099584960883,-0.13016793893129774,-0.015109378978464939,0.0006915763266843566,-0.06400646718059451
1740926269.4421113,None,None,0.026762386157226814,0.12173557761230466,-1.8400916030534349,-0.015080692132236829,0.0007166101635078427,-0.07127358559523359
1740926269.4607644,None,None,0.01000297453613297,0.0020254946044921396,-1.7637557251908396,-0.015067906622820858,0.0007414608518327058,-0.0782404637489715
1740926269.4721224,None,None,-0.004362235424804517,0.042726922827148406,-0.05383206106870242,-0.015118827193664645,0.0007449133700084494,-0.07845756954252646
1740926269.4849055,None,None,0.017185579516601823,0.09539935935058591,0.22097709923664133,-0.015161326257372551,0.0007438893014125564,-0.07758971962212695
1740926269.4979591,None,None,0.005214571215820474,-0.009945513696289099,-0.1225343511450383,-0.015202547815426837,0.000747831076156136,-0.07807784948393275
1740926269.509537,None,None,-0.009150638745117012,0.0020254946044921396,-0.27520610687022895,-0.015250361364474793,0.0007544061220090952,-0.07916873945366074
1740926269.5227947,None,None,0.01000297453613297,0.045121124487304654,1.8850992366412214,-0.015349348271202363,0.0007320734060908306,-0.07173088641746031
1740926269.537407,None,None,-0.028304252026366994,0.013996502905273434,1.9690687022900764,-0.015480167298570095,0.0007102876684497204,-0.06396021493012001
1740926269.5490165,None,None,0.02915658781738295,-0.002762908715820356,-0.03856488549618309,-0.015503920650543837,0.0007120040337549278,-0.06411439167701143
1740926269.5606835,None,None,0.036339192797851805,0.03793851950683591,-0.25993893129771006,-0.015515127283013231,0.0007162760621053867,-0.06514255507175808
1740926269.574986,None,None,0.036339192797851805,0.033150116186523415,-0.0232977099236642,-0.015533515279641124,0.0007174539561226925,-0.06523661255212754
1740926269.5863602,None,None,0.017185579516601823,0.021179107885742177,-0.1378015267175572,-0.015563234806324051,0.0007209920500161371,-0.0657826944443703
1740926269.597808,None,None,-0.037881058666991985,0.01160230124511713,0.02250381679389335,-0.015641090147140893,0.000724963767781261,-0.06569590532731884
1740926269.6131017,None,None,-0.011544840405273149,-0.15120341164550782,-0.20650381679389307,-0.015691403798764346,0.0007307482272715887,-0.06651320996469497
1740926269.6253827,None,None,0.01957978117675796,0.006813897924804635,-0.05383206106870242,-0.015722099789741522,0.0007331122866808834,-0.06672792090380741
1740926269.6367736,None,None,0.012397176196289328,-0.0003687070556641081,-0.08436641221374064,-0.0157574256668916,0.0007362086732503308,-0.06706317854194792
1740926269.64845,None,None,-0.08576509187011694,-0.15359761330566407,-0.10726717557251897,-0.015869283479901478,0.000744192797407013,-0.06748876403127163
1740926269.6649456,None,None,0.02915658781738295,-0.0051571103759766035,-0.00039694656488542535,-0.015894439058672546,0.0007454468705159136,-0.06749260966288151
1740926269.6764417,None,None,0.0076087728759768325,0.04990952780761715,-1.8324580152671754,-0.01587974540996268,0.0007718121670265302,-0.07472915234478807
1740926269.688989,None,None,-0.0235158487060545,0.0020254946044921396,0.12174045801526723,-0.015950774636846857,0.0007739914292477818,-0.07425190148625227
1740926269.701975,None,None,0.0004261678955079784,0.021179107885742177,1.9461679389312978,-0.016059579051565603,0.0007509976722676286,-0.0665719831827144
1740926269.7139773,None,None,-0.0019680337646481583,0.0475153261474609,-0.0690992366412213,-0.01610698279668391,0.0007546452339947089,-0.06684672734540636
1740926269.7269945,None,None,-0.013939042065429508,-0.002762908715820356,0.04540458015267168,-0.016167452094476117,0.0007573660068986164,-0.06666943571044709
1740926269.7391543,None,None,-0.025910050366210635,-0.16078021828613281,1.9843358778625955,-0.01629780135720688,0.0007350303224101451,-0.0588375172258022
1740926269.750327,None,None,0.002820369555664337,-0.024310723657226585,0.04540458015267168,-0.01634442968410969,0.0007369115531359638,-0.0586588675289951
1740926269.7619848,None,None,-0.006756437084960654,-0.021916521997070337,0.22097709923664133,-0.016404110756793273,0.000736928433830611,-0.05778704378213274
1740926269.7752495,None,None,0.005214571215820474,0.0020254946044921396,-0.3133740458015266,-0.01643760018953195,0.0007434542837490716,-0.05902459264346324
1740926269.7873209,None,None,0.17759709074707053,0.023573309545898424,0.053038167938931347,-0.016346082409773022,0.0007367838872648462,-0.05881603816273475
1740926269.798628,None,None,0.01957978117675796,-0.14641500832519533,-1.771389312977099,-0.016321805536634617,0.0007619638642539418,-0.06580966540126952
1740926269.816275,None,None,-0.04027526032714834,-0.002762908715820356,0.13700763358778634,-0.01640533864203707,0.0007647133351703464,-0.0652704589237183
1740926269.8280368,None,None,-0.04266946198730448,-0.014733917016601594,-0.03856488549618309,-0.016485430231142028,0.0007699372933392936,-0.06542425628158621
1740926269.8402472,None,None,0.014791377856445465,-0.002762908715820356,0.10647328244274812,-0.01652467086441117,0.0007704499573467208,-0.06500556019170253
1740926269.8530269,None,None,0.036339192797851805,0.021179107885742177,0.2744122137404581,-0.01655193101091667,0.0007676652932487563,-0.0639238258088181
1740926269.8649917,None,None,-0.016333243725585644,0.0475153261474609,-0.06146564885496186,-0.016610239718599325,0.0007719245646175705,-0.0641677771682911
1740926269.8786542,None,None,-0.0019680337646481583,-0.017128118676757842,-1.8019236641221372,-0.016602657362650177,0.0007986842312542621,-0.07128259387528504
1740926269.8953137,None,None,-0.04266946198730448,-0.002762908715820356,-0.015664122137404757,-0.01668423153073371,0.0008036970264613027,-0.07134688973161127
1740926269.90667,None,None,-0.018727445385742003,-0.002762908715820356,-0.030931297709923644,-0.01674648224263104,0.0008077603656838286,-0.07147146732959325
1740926269.918284,None,None,0.014791377856445465,-0.04346433693847657,-0.0232977099236642,-0.016782368739437725,0.0008100701205828268,-0.0715659451298852
1740926269.9309363,None,None,0.026762386157226814,0.0475153261474609,1.961435114503817,-0.016871038818665408,0.0007852637890850366,-0.06382535650418644
1740926269.943788,None,None,-0.03309265534667949,0.023573309545898424,0.15227480916030545,-0.016949633805502774,0.0007875844896943742,-0.06322532990796206
1740926269.9557683,None,None,-0.04266946198730448,0.12652398093261716,-0.030931297709923644,-0.017030228275798344,0.0007928505263638804,-0.06334841033770727
1740926269.9680238,None,None,0.02197398283691432,-0.03867593361816407,-0.07673282442748075,-0.017057992883680085,0.0007954924884850484,-0.0636523980682419
1740926269.9815094,None,None,0.02197398283691432,0.025967511206054672,0.02250381679389335,-0.017088812451031523,0.0007968032189181706,-0.06356467323737486
1740926269.9944115,None,None,-0.025910050366210635,0.03793851950683591,0.14464122137404578,-0.01716166174355015,0.0007988950656597913,-0.06299469919417375
1740926270.0081596,None,None,0.02197398283691432,0.030755914526367167,-0.008030534351144869,-0.017191465687751498,0.0008006166770285051,-0.06302737668920913
1740926270.0231168,None,None,0.024368184497070455,-0.0674063535400391,1.892732824427481,-0.017279312240690042,0.0007767025634014955,-0.05555660354510129
1740926270.0343227,None,None,0.0411275961181643,0.12173557761230466,-0.27520610687022895,-0.017284318992640543,0.0007809919251888069,-0.05664274297769598
1740926270.046295,None,None,-0.035486857006835626,0.054697931127929644,1.9996030534351146,-0.017422569871484547,0.0007586139404492082,-0.04874896624312833
1740926270.060915,None,None,-0.0019680337646481583,-0.16796282326660156,-0.05383206106870242,-0.01746837491952297,0.0007620812901168072,-0.0489600161868941
1740926270.0728655,None,None,0.02197398283691432,-0.04107013527832032,-0.06146564885496186,-0.017494781255869004,0.0007644401648452782,-0.049201289645248614
1740926270.0907567,None,None,-0.037881058666991985,-0.15599181496582032,0.03777099236641224,-0.0175723159914821,0.0007684776394073075,-0.049050786882821384
1740926270.1026459,None,None,-0.0019680337646481583,0.01878490622558593,0.15227480916030545,-0.017624831071618337,0.0007691649732371476,-0.048448324207506686
1740926270.115225,None,None,-0.03069845368652313,0.1337065859130859,-1.8095572519083971,-0.017638258701327136,0.0007976898867290653,-0.05559011777256827
1740926270.127412,None,None,-0.0019680337646481583,-0.0003687070556641081,0.030137404580152793,-0.017687805727639727,0.000800054803985574,-0.05547092590730615
1740926270.1410313,None,None,0.0411275961181643,0.01878490622558593,-0.0232977099236642,-0.017700994982807364,0.0008009810605924675,-0.05556272078049395
1740926270.1523974,None,None,-0.057034671948241966,-0.15599181496582032,-0.0232977099236642,-0.017793031610333316,0.0008068158872691346,-0.05565437720051785
1740926270.1636367,None,None,-0.025910050366210635,0.01160230124511713,-0.0232977099236642,-0.017860317949645182,0.0008111043043229327,-0.055746101905791524
