timestamp,gps_lat,gps_lng,imu_accel_x,imu_accel_y,imu_gyro_z,estimated_x,estimated_y,estimated_heading
1739615309.0804644,None,None,0.049751510498046825,-0.006483498095703144,-0.021770992366412,0.0,0.0,-7.916609346195692e-05
1739615309.092342,None,None,-0.01968033764648447,0.09407297163085937,-0.1210076335877861,2.699048638768319e-07,-1.433048529267155e-10,-0.0005438823255441278
1739615309.1040165,0.0,0.0,0.004261678955078008,0.03900633344726567,-0.021770992366412,5.215355213782201e-07,-2.1084504056089153e-10,-0.0006369606653114318
1739615309.1151805,0.0,0.0,-0.012497732666015615,-0.056761732958984346,0.008763358778625996,5.064795540779099e-07,-9.203735386243478e-11,-0.0006079998298446423
1739615309.126548,0.0,0.0,-0.01968033764648447,-0.023242909716796878,-0.09810687022900777,1.1814353037111077e-07,-8.332247241076813e-11,-0.000995635998535911
1739615309.1381466,0.0,0.0,0.04256890551757819,0.015064316845703196,-0.18207633587786254,1.4140395584034954e-06,-1.356739240660204e-09,-0.0017150586595313815
1739615309.1493397,0.0,0.0,-0.0029209260253906244,0.012670115185546837,0.06219847328244277,1.6002410875605283e-06,-1.4229777765691566e-09,-0.0014740488109967376
1739615309.1609478,0.0,0.0,0.030597897216796843,-0.04000232133789061,-0.18970992366412198,3.095301770189224e-06,-4.180612578091873e-09,-0.002225819432915858
1739615309.172887,0.0,0.0,0.13115436694335925,-0.01127190141601564,-0.1744427480916031,9.781019929629842e-06,-1.573016628513366e-08,-0.0029187205563774997
1739615309.1843753,0.0,0.0,0.2125572233886719,0.01027591352539059,-1.8385648854961831,2.129498643744618e-05,-7.287711238791833e-08,-0.01019845300712437
1739615309.196085,0.0,0.0,-0.0005267243652344877,-0.02084870805664063,-1.7774961832061067,2.2023710150772774e-05,-1.7854784096522424e-07,-0.017248874261218693
1739615309.2086227,0.0,0.0,0.025809493896484348,0.007881711865234342,-0.0065038167938931135,2.6716140688526228e-05,-2.4877841265326203e-07,-0.01728901802716703
1739615309.2207308,0.0,0.0,0.016232687255859357,0.01027591352539059,-0.18207633587786254,3.072062602014733e-05,-3.2389325146018184e-07,-0.018023474032216078
1739615309.2331512,0.0,0.0,-0.0268629426269531,-0.013666103076171887,-0.05993893129771011,3.187260756835457e-05,-3.5652616099600426e-07,-0.018272556546563908
1739615309.244628,0.0,0.0,0.009050082275390503,-0.02084870805664063,-0.1210076335877861,3.5479019135458047e-05,-4.1562899671451293e-07,-0.018762943264567938
1739615309.2560034,0.0,0.0,0.025809493896484348,-0.04000232133789061,-0.18970992366412198,4.0439525374772024e-05,-5.024448211881522e-07,-0.019525429933272526
1739615309.267368,0.0,0.0,0.009050082275390503,0.005487510205078094,-0.15154198473282432,4.4216217578924744e-05,-5.716876307652761e-07,-0.020135964367593292
1739615309.2785552,0.0,0.0,-0.0316513459472656,-0.006483498095703144,0.01639694656488544,4.456513274205887e-05,-5.60651914825491e-07,-0.020078935295237382
1739615309.2900457,0.0,0.0,0.059328317138671816,0.017458518505859444,0.1385343511450381,5.420650024773582e-05,-6.628703231176882e-07,-0.01953586178648809
1739615309.3019257,0.0,0.0,0.0329920988769532,0.03900633344726567,0.06219847328244277,6.135036999705705e-05,-7.426033576595573e-07,-0.019295283835511275
1739615309.3136258,0.0,0.0,-0.0005267243652344877,0.06294835004882815,-0.044671755725190776,6.46755214838633e-05,-7.837993240848086e-07,-0.01947889105790141
1739615309.3270142,0.0,0.0,0.0329920988769532,0.04140053510742192,-0.10574045801526721,7.174549595525405e-05,-9.03560514467344e-07,-0.01990493082928478
1739615309.3401506,0.0,0.0,0.040174703857421834,-0.01127190141601564,0.17670229007633598,8.099058850105465e-05,-9.860181615830156e-07,-0.01920780464439435
1739615309.3528898,0.0,0.0,-0.022074539306640606,0.036612131787109425,-0.05993893129771011,8.174985362850682e-05,-9.86044369995688e-07,-0.019451050231814003
1739615309.3681698,0.0,0.0,0.025809493896484348,-0.03042551469726562,0.06219847328244277,8.912979261987244e-05,-1.0635362761640124e-06,-0.019208394575208187
1739615309.3797407,0.0,0.0,0.009050082275390503,-0.016060304736328135,-0.09047328244274788,9.383896319774146e-05,-1.1435461028548702e-06,-0.01957258281366189
1739615309.394822,0.0,0.0,0.20058621508789054,-0.02084870805664063,-0.15154198473282432,0.00012607244365472377,-1.7443203664453724e-06,-0.020179540604142898
1739615309.4075282,0.0,0.0,0.018626888916015494,0.015064316845703196,-0.23551145038167953,0.00013281119756790785,-1.928872945771027e-06,-0.021120447574077612
1739615309.4189978,0.0,0.0,0.0377805021972657,0.03182372846679693,1.9324274809160304,0.0001519129774447168,-1.4225818464093432e-06,-0.013438059879818172
1739615309.43386,0.0,0.0,-0.012497732666015615,0.03182372846679693,-0.15917557251908376,0.00015390018241088612,-1.4563214771972172e-06,-0.014073691674635921
1739615309.4462092,0.0,0.0,0.030597897216796843,-0.03281971635742187,-1.9149007633587785,0.0001547863503986608,-2.343783801683372e-06,-0.021693566207139307
1739615309.4597943,0.0,0.0,-0.034045547607421955,0.007881711865234342,-0.10574045801526721,0.0001538939102239414,-2.355099080807663e-06,-0.02211801113466062
1739615309.4725897,0.0,0.0,-0.0029209260253906244,0.024641123486328187,-0.06757251908396955,0.00015828228630138423,-2.4407438363662134e-06,-0.022390564844621326
1739615309.484873,0.0,0.0,-0.014891934326171974,0.007881711865234342,0.09273282442748099,0.00016128471964746674,-2.407049984587501e-06,-0.02202531405345192
1739615309.4984686,0.0,0.0,0.02341529223632799,-0.028031313037109373,-0.2202442748091602,0.00016955161022063058,-2.6574572827593407e-06,-0.022904974337664585
1739615309.5119345,0.0,0.0,0.05453991381835932,-0.037608119677734364,-1.8309312977099237,0.00017546470255918616,-3.9038901071337344e-06,-0.030192405692061376
1739615309.5249135,0.0,0.0,0.03538630053710934,-0.02084870805664063,-0.2049770992366413,0.00018724841631550555,-4.272318263850892e-06,-0.03101244164298875
1739615309.5386117,0.0,0.0,-0.0005267243652344877,0.029429526806640682,-0.014137404580152557,0.0001932630764156331,-4.400145560946374e-06,-0.031073265138711954
1739615309.5507965,0.0,0.0,-0.00770932934570312,0.03421793012695318,-1.907267175572519,0.00018706013486130058,-5.668005720540105e-06,-0.038665280118311725
1739615309.5650852,0.0,0.0,0.006655880615234366,-0.023242909716796878,0.024030534351145105,0.00019521725865555273,-5.840668122236445e-06,-0.03857517741890923
1739615309.5775247,0.0,0.0,-0.01728613598632811,-0.025637111376953126,-0.33474809160305363,0.0001961482187228332,-6.127700327374044e-06,-0.03991219952152482
1739615309.5919373,0.0,0.0,-0.01728613598632811,0.007881711865234342,-1.907267175572519,0.00018755732503662094,-7.51392253254759e-06,-0.04750489051212845
1739615309.6067042,0.0,0.0,-0.01968033764648447,-0.04000232133789061,-0.044671755725190776,0.00018983899691399825,-7.603969258067781e-06,-0.04768896777487418
1739615309.619216,0.0,0.0,0.001867477294921871,0.01027591352539059,-0.2049770992366413,0.0001957806941044482,-7.92750051607904e-06,-0.04851061247075817
1739615309.6315541,0.0,0.0,-0.07235277416992192,0.03900633344726567,-0.11337404580152666,0.00018503624198800843,-7.677893886133314e-06,-0.04896783635576023
1739615309.6446073,0.0,0.0,-0.01728613598632811,0.07970776166992188,-0.2736793893129772,0.00018560208122692134,-7.88971344820555e-06,-0.05006264166718855
1739615309.6596944,0.0,0.0,0.006655880615234366,0.015064316845703196,-0.25841221374045786,0.0001918517901439728,-8.263022508256666e-06,-0.05109671751147982
1739615309.6718073,0.0,0.0,-0.01728613598632811,0.005487510205078094,-0.25841221374045786,0.00019225338453833998,-8.452399824448888e-06,-0.05213078526273849
1739615309.6841323,0.0,0.0,0.006655880615234366,-0.03042551469726562,0.1538015267175572,0.000201017483680397,-8.492242652785646e-06,-0.051525286960178565
1739615309.6988614,0.0,0.0,-0.0005267243652344877,-0.047184926318359355,-0.14390839694656488,0.00020602123606699684,-8.71827400542993e-06,-0.05210370701758824
1739615309.7114882,0.0,0.0,0.0329920988769532,-0.004089296435546896,0.01639694656488544,0.0002206299712912172,-9.120632620616376e-06,-0.05204451214505094
1739615309.7229066,0.0,0.0,0.02341529223632799,-0.016060304736328135,-0.2736793893129772,0.0002310965754365904,-9.70795458121213e-06,-0.053138866650569376
1739615309.7342083,0.0,0.0,0.018626888916015494,-0.0016950947753906487,-0.09810687022900777,0.00024156551988580951,-1.0113250587923419e-05,-0.05353498519012999
1739615309.7478387,0.0,0.0,-0.0029209260253906244,-0.008877699755859392,-0.08283969465648844,0.0002463812528936415,-1.0291423190887229e-05,-0.05387033134566168
1739615309.769348,0.0,0.0,0.0329920988769532,-0.018454506396484383,-0.075206106870229,0.00026104319573940475,-1.0852376055392876e-05,-0.05417526055320287
1739615309.7835271,0.0,0.0,0.004261678955078008,0.0030933085449218467,0.13090076335877865,0.000269194588680317,-1.0913774060587595e-05,-0.0536605411947008
1739615309.7951283,0.0,0.0,-0.06517016918945306,-0.016060304736328135,-0.06757251908396955,0.00025632324148955614,-1.035194771449719e-05,-0.05393489669602198
1739615309.8061645,0.0,0.0,0.05693411547851568,-0.004089296435546896,0.23013740458015275,0.000279858740490779,-1.0916479217052573e-05,-0.05302543530543057
1739615309.818082,0.0,0.0,0.009050082275390503,0.09646717329101562,0.0011297709923663302,0.0002882911838175072,-1.114839603413932e-05,-0.053026370323161924
1739615309.8292236,0.0,0.0,0.001867477294921871,0.02224692182617194,-0.03703816793893133,0.0002943509426904727,-1.1331396571319053e-05,-0.053178984189298416
1739615309.8403366,0.0,0.0,-0.0268629426269531,0.005487510205078094,-0.02940458015267189,0.0002918164119280318,-1.113136076406934e-05,-0.05330119022118621
1739615309.8521621,0.0,0.0,-0.0029209260253906244,0.03421793012695318,-0.128641221374046,0.0002956134365153333,-1.1339584236219595e-05,-0.05381786085189411
1739615309.8632388,0.0,0.0,0.05693411547851568,-0.04000232133789061,-1.907267175572519,0.0003061528785253547,-1.4318511182521868e-05,-0.061405290875334494
1739615309.875587,0.0,0.0,-0.06038176586914057,-0.0543675312988281,0.054564885496183324,0.00029385068717112606,-1.3568124778681732e-05,-0.06119445439157278
1739615309.8872893,0.0,0.0,0.025809493896484348,0.0030933085449218467,-0.0065038167938931135,0.000307648285403419,-1.408075268507475e-05,-0.06122628108282353
1739615309.8985195,0.0,0.0,-0.00770932934570312,-0.0016950947753906487,-0.15154198473282432,0.0003099629479928282,-1.4278824824358094e-05,-0.06183455319880406
1739615309.9099789,0.0,0.0,-0.034045547607421955,0.0030933085449218467,0.03166412213740455,0.00030491998740827126,-1.3855008553833252e-05,-0.06171460287369464
1739615309.9219267,0.0,0.0,0.02341529223632799,-0.14295299272460937,0.0011297709923663302,0.0003179707684695127,-1.4337068967029668e-05,-0.061715936126456296
1739615309.9330835,0.0,0.0,-0.01728613598632811,0.015064316845703196,1.9705954198473283,0.00033060689880699937,-1.1802045250269392e-05,-0.053889757587525025
1739615309.9448867,0.0,0.0,0.009050082275390503,-0.013666103076171887,-0.08283969465648844,0.00033788347788004806,-1.2133289744337701e-05,-0.05422376470285594
1739615309.9564838,0.0,0.0,-0.0029209260253906244,0.01985272016601569,-0.14390839694656488,0.0003407671833144361,-1.2348228524411548e-05,-0.05480043268662547
1739615309.9677007,0.0,0.0,-0.024468740966796965,0.027035325146484435,-0.2507786259541984,0.00033562789464683433,-1.2337806104800588e-05,-0.05580177824682836
1739615309.978955,0.0,0.0,0.12397176196289061,0.03182372846679693,-0.05993893129771011,0.00038209731606667714,-1.460575243198487e-05,-0.05604480352642422
1739615309.990417,0.0,0.0,0.11918335864257812,0.03182372846679693,0.008763358778625996,0.0004280807094977613,-1.676490555088597e-05,-0.056014804175773876
1739615310.0021484,0.0,0.0,-0.034045547607421955,0.048583140087890664,1.9553282442748092,0.0004343593886551405,-1.3721598267708089e-05,-0.048250387776616624
1739615310.014712,0.0,0.0,-0.012497732666015615,-0.0543675312988281,-0.021770992366412,0.00043448799942380956,-1.3605675851148934e-05,-0.04834071252733422
1739615310.0271642,0.0,0.0,-0.014891934326171974,0.005487510205078094,0.1080000000000001,0.0004344985901845169,-1.3265760021098491e-05,-0.04791542615917673
1739615310.0419552,0.0,0.0,0.06651092211914067,-0.006483498095703144,-0.23551145038167953,0.0004609873280330931,-1.4852058825440995e-05,-0.04885477386055457
1739615310.054487,0.0,0.0,-0.022074539306640606,-0.008877699755859392,-0.09047328244274788,0.00045707798139787796,-1.4662210910434757e-05,-0.04921796738079163
1739615310.066504,0.0,0.0,-0.024468740966796965,-0.01127190141601564,-0.14390839694656488,0.00045178061036938247,-1.4502944594877248e-05,-0.04979341570929438
1739615310.0793731,0.0,0.0,-0.03883395092773445,0.012670115185546837,0.2683053435114504,0.00044385326082230285,-1.3473708663934212e-05,-0.04873144563444741
1739615310.0913262,0.0,0.0,-0.024468740966796965,-0.04000232133789061,1.9171603053435116,0.0004518938421248861,-1.023252329667601e-05,-0.04111998090654157
1739615310.1052482,0.0,0.0,-0.0029209260253906244,0.007881711865234342,1.909526717557252,0.0004671710900543944,-7.326718663186914e-06,-0.03353827447526779
1739615310.1198423,0.0,0.0,0.006655880615234366,-0.016060304736328135,-0.10574045801526721,0.00047198979994513576,-7.603263265304692e-06,-0.0339600914668718
1739615310.1324599,0.0,0.0,0.040174703857421834,-0.018454506396484383,-0.22787786259541964,0.0004885287271289693,-8.684149433143313e-06,-0.03486699281078123
1739615310.1441875,0.0,0.0,-0.014891934326171974,0.000699106884765599,-1.8767328244274808,0.0004735441313656115,-1.1343704936249654e-05,-0.042322131358932404
1739615310.1554558,0.0,0.0,0.0784819304199218,0.000699106884765599,0.1232671755725192,0.0005075690282889555,-1.2613521785094101e-05,-0.041835412247021954
1739615310.1673863,0.0,0.0,0.18382680346679692,-0.04239652299804686,1.9782290076335878,0.0005943757891513177,-1.2829172028324916e-05,-0.03398258366518155
1739615310.1798513,0.0,0.0,0.021021090576171853,0.0030933085449218467,-0.014137404580152557,0.0006058250423876599,-1.3210749566786787e-05,-0.03404050759540332
1739615310.191353,0.0,0.0,-0.06038176586914057,0.000699106884765599,-0.1210076335877861,0.0005852511956002137,-1.229922791765135e-05,-0.034522761841416436
1739615310.203171,0.0,0.0,0.030597897216796843,-0.008877699755859392,-0.03703816793893133,0.0006001922693478595,-1.2900885915025742e-05,-0.0346716352297194
1739615310.2145011,0.0,0.0,0.049751510498046825,0.04140053510742192,-0.19734351145038187,0.0006215720924055997,-1.4122961524929425e-05,-0.03545695898395924
1739615310.227016,0.0,0.0,0.02341529223632799,-0.01127190141601564,-0.021770992366412,0.0006340502850981519,-1.4573128577766895e-05,-0.03554527998938633
1739615310.2394977,0.0,0.0,-0.0029209260253906244,0.0030933085449218467,-1.8996335877862596,0.0006231607763740989,-1.792210975944314e-05,-0.043088562632494415
1739615310.2523232,0.0,0.0,-0.00770932934570312,-0.07112694291992183,-0.044671755725190776,0.0006236715063555635,-1.7920052488339597e-05,-0.04326863105475972
1739615310.2638936,0.0,0.0,-0.02925714428710946,0.04140053510742192,-0.075206106870229,0.0006153352484908606,-1.7587516447920412e-05,-0.043569894983475896
1739615310.2764928,0.0,0.0,0.07129932543945317,0.01027591352539059,-0.10574045801526721,0.0006467098303315654,-1.912391645406333e-05,-0.04399235734959347
1739615310.2888846,0.0,0.0,-0.01968033764648447,-0.02084870805664063,-0.03703816793893133,0.0006423608989979189,-1.8896224418352377e-05,-0.044142130272245804
1739615310.300882,0.0,0.0,-0.04601655590820308,-0.18126021928710934,0.10036641221374043,0.0006282849408043289,-1.7919608387971826e-05,-0.0437465234246792
1739615310.3129823,0.0,0.0,-0.014891934326171974,0.012670115185546837,-0.18207633587786254,0.0006245059269845608,-1.8055250238154592e-05,-0.044471840831638514
1739615310.3255382,0.0,0.0,0.001867477294921871,-0.0543675312988281,0.08509923664122132,0.0006293623926393515,-1.7967580457118016e-05,-0.0441368470278111
1739615310.339229,0.0,0.0,0.18382680346679692,-0.008877699755859392,-0.021770992366412,0.0007073508308208274,-2.1429322229863575e-05,-0.044225919608375464
1739615310.351786,0.0,0.0,0.009050082275390503,-0.13816458940429688,-0.3042137404580154,0.0007124605172108769,-2.2278076101490116e-05,-0.04543580671924138
1739615310.3685057,0.0,0.0,0.20537461840820304,-0.09506895952148431,-0.044671755725190776,0.0007998715058389309,-2.623022595420422e-05,-0.04561584795621152
1739615310.379942,0.0,0.0,0.02341529223632799,0.017458518505859444,-0.02940458015267189,0.0008131619599637724,-2.680360208461985e-05,-0.04573529715802959
1739615310.3921301,0.0,0.0,0.049751510498046825,-0.016060304736328135,-0.044671755725190776,0.0008372013646630523,-2.7903368356523757e-05,-0.04591530708401649
1739615310.4053566,0.0,0.0,0.009050082275390503,0.05337154340820316,-0.09810687022900777,0.0008440910057356251,-2.8368962993883414e-05,-0.04630731795382783
1739615310.4189,0.0,0.0,0.15030798022460923,-0.008877699755859392,0.01639694656488544,0.0009103978832407428,-3.123236621105912e-05,-0.04624503786225689
1739615310.432239,0.0,0.0,-0.0029209260253906244,-0.15731820268554686,-1.8843664122137402,0.000898565269016359,-3.567357549894383e-05,-0.05372369399494696
1739615310.4450896,0.0,0.0,-0.005315127685546983,0.029429526806640682,-0.09047328244274788,0.0009000727470889882,-3.59660904811525e-05,-0.054086216182919575
1739615310.4580297,0.0,0.0,-0.03643974926757809,0.048583140087890664,0.08509923664122132,0.000889911469811195,-3.523005490381496e-05,-0.053752235912402614
1739615310.4707248,0.0,0.0,-0.022074539306640606,-0.006483498095703144,0.008763358778625996,0.0008849958150645315,-3.4934053420438044e-05,-0.053721008349360756
1739615310.4828017,0.0,0.0,0.04735730883789069,-0.008877699755859392,-0.13627480916030543,0.0009079435746396593,-3.6346781562955834e-05,-0.05426506432706508
1739615310.4968483,0.0,0.0,-0.04122815258789059,-0.0016950947753906487,-0.0065038167938931135,0.0008947250093337385,-3.570027496084742e-05,-0.05429439218796203
1739615310.511704,0.0,0.0,0.006655880615234366,0.08449616499023438,-0.05230534351145022,0.0009011788160113006,-3.610459049426489e-05,-0.05450535399914554
1739615310.5252936,0.0,0.0,-0.014891934326171974,0.017458518505859444,-0.1744427480916031,0.0008974584584525428,-3.640525327773893e-05,-0.05520071978908407
1739615310.5377016,0.0,0.0,0.04496310717773433,-0.018454506396484383,-0.10574045801526721,0.0009196044358805457,-3.772771850503334e-05,-0.055623632398225056
1739615310.550537,0.0,0.0,0.025809493896484348,-0.006483498095703144,-1.8996335877862596,0.0009184480424694777,-4.364285771014817e-05,-0.0631608920145099
1739615310.5624619,0.0,0.0,-0.01728613598632811,0.007881711865234342,-0.09810687022900777,0.000914748218014951,-4.377685067653313e-05,-0.06355438776833382
1739615310.5748525,0.0,0.0,-0.01968033764648447,0.02224692182617194,-0.31184732824427486,0.0009081071111142091,-4.446067481940011e-05,-0.06479547294612718
1739615310.5867682,0.0,0.0,0.030597897216796843,0.0030933085449218467,-0.1210076335877861,0.0009245193830687719,-4.5655785903029926e-05,-0.06527986141716102
1739615310.5996215,0.0,0.0,-0.04122815258789059,0.024641123486328187,-0.23551145038167953,0.0009092482566419185,-4.5671409872788145e-05,-0.06621828233650558
1739615310.6113565,0.0,0.0,-0.022074539306640606,0.04140053510742192,-0.03703816793893133,0.0009038254114286943,-4.5495800511560465e-05,-0.06636977297584369
1739615310.6227875,0.0,0.0,-0.0029209260253906244,0.058159946728515655,1.9553282442748092,0.000923999043235211,-3.9708999600266845e-05,-0.05862162798958962
1739615310.634634,0.0,0.0,-0.04841075756835944,0.03182372846679693,-1.907267175572519,0.0008900103245264247,-4.456423028180889e-05,-0.06618714814239322
1739615310.647559,0.0,0.0,-0.0005267243652344877,-0.028031313037109373,-0.23551145038167953,0.0008917410763445108,-4.5424577098763976e-05,-0.0671253708286959
1739615310.6592793,0.0,0.0,0.16227898852539058,0.03900633344726567,-0.2889465648854961,0.0009629435028378108,-5.01172907862101e-05,-0.06827547109285503
1739615310.6716406,0.0,0.0,0.004261678955078008,0.048583140087890664,-0.24314503816793898,0.0009667118334598701,-5.116778503018093e-05,-0.06924405359751494
1739615310.683526,0.0,0.0,-0.005315127685546983,0.036612131787109425,-0.044671755725190776,0.0009681117056538526,-5.137439671875474e-05,-0.06942588929235223
1739615310.6955404,0.0,0.0,0.04496310717773433,-0.02084870805664063,-0.03703816793893133,0.0009911758218526408,-5.271548709198395e-05,-0.06957743485896083
1739615310.7080986,0.0,0.0,-0.0005267243652344877,0.058159946728515655,-0.06757251908396955,0.000994299939444789,-5.310313421145345e-05,-0.069849983269435
1739615310.719792,0.0,0.0,-0.0268629426269531,-0.016060304736328135,-0.09810687022900777,0.0009857099387454314,-5.2961860274525576e-05,-0.07024354074556695
1739615310.7309766,0.0,0.0,0.030597897216796843,-0.037608119677734364,0.054564885496183324,0.0010032617021618236,-5.367113469853894e-05,-0.07003195676638194
1739615310.742842,0.0,0.0,-0.024468740966796965,0.029429526806640682,0.024030534351145105,0.0009966423927285375,-5.315149517856971e-05,-0.0699413309597993
1739615310.757953,0.0,0.0,0.009050082275390503,0.0030933085449218467,-0.18970992366412198,0.001002468654671838,-5.416177981302893e-05,-0.07069777350728423
1739615310.7708895,0.0,0.0,-0.07714117749023441,-0.04239652299804686,-0.03703816793893133,0.0009723472831790098,-5.252624182300534e-05,-0.07084917463410548
1739615310.7841287,0.0,0.0,0.004261678955078008,0.017458518505859444,-0.075206106870229,0.000977026528665826,-5.300962531257027e-05,-0.07115180468371356
1739615310.7988093,0.0,0.0,-0.0915063874511719,0.007881711865234342,0.04693129770992366,0.0009412474796211431,-5.065671769813061e-05,-0.07097040005316312
1739615310.8108814,0.0,0.0,-0.0029209260253906244,0.024641123486328187,-0.05230534351145022,0.0009428276775645224,-5.08504172029915e-05,-0.07118218450755745
1739615310.8231122,0.0,0.0,-0.00770932934570312,0.03900633344726567,-0.03703816793893133,0.0009423908545673314,-5.0862166737952176e-05,-0.07133344604380201
1739615310.835107,0.0,0.0,-0.024468740966796965,0.05337154340820316,0.18433587786259542,0.0009366162307266931,-4.963874059952058e-05,-0.07060748525980262
1739615310.8463833,0.0,0.0,0.05453991381835932,-0.013666103076171887,0.039297709923664215,0.0009636630834871356,-5.0964650937327276e-05,-0.07045610536992596
1739615310.8575952,0.0,0.0,0.006655880615234366,-0.03281971635742187,-0.15154198473282432,0.0009680878664732523,-5.1748323788790105e-05,-0.07106081843758928
1739615310.8700457,0.0,0.0,-0.014891934326171974,0.007881711865234342,0.1690687022900763,0.0009660258034284052,-5.079422539960421e-05,-0.07039525780624188
1739615310.8829966,0.0,0.0,-0.00770932934570312,-0.03042551469726562,-1.8920000000000001,0.0009482521852832001,-5.76130489707306e-05,-0.07789545991251763
1739615310.8955681,0.0,0.0,0.025809493896484348,0.017458518505859444,-0.13627480916030543,0.0009614660964666516,-5.8886549099972256e-05,-0.07844044625878932
1739615310.9082305,0.0,0.0,0.0377805021972657,0.02224692182617194,-0.25841221374045786,0.0009787357152736442,-6.0951138431900674e-05,-0.07946930504925452
1739615310.920345,0.0,0.0,0.011444283935546862,-0.0016950947753906487,-0.16680916030534365,0.0009853738845482045,-6.197899906554893e-05,-0.0801353193908635
1739615310.9330823,0.0,0.0,0.030597897216796843,0.015064316845703196,-0.09810687022900777,0.0010009251526444185,-6.328033061742058e-05,-0.08052918513193187
1739615310.9455912,0.0,0.0,0.021021090576171853,0.005487510205078094,-0.02940458015267189,0.0010128740681466888,-6.406752178090239e-05,-0.08065088503319115
1739615310.9570873,0.0,0.0,0.02341529223632799,0.07491935834960939,-0.09810687022900777,0.001025170726679014,-6.518976657990333e-05,-0.08104468728652194
1739615310.9706833,0.0,0.0,0.04735730883789069,0.03900633344726567,-0.26604580152671775,0.0010463219446669354,-6.764664673298793e-05,-0.08210369304760995
1739615310.9819324,0.0,0.0,-0.05080495922851558,0.03421793012695318,1.9629618320610687,0.0010448294324641328,-5.8667399529896165e-05,-0.07433377184732605
1739615310.9941158,0.0,0.0,-0.010103531005859478,-0.006483498095703144,-1.8767328244274808,0.0010258042067531649,-6.575295489867548e-05,-0.08177138941051823
1739615311.0073879,0.0,0.0,0.0377805021972657,0.012670115185546837,-0.2965801526717555,0.0010423374393545243,-6.808456487440897e-05,-0.08295118274827731
1739615311.0209346,0.0,0.0,-0.04122815258789059,0.024641123486328187,1.8942595419847328,0.0010441785404057863,-5.945670093680283e-05,-0.0754540370904611
1739615311.0324643,0.0,0.0,0.021021090576171853,0.000699106884765599,-0.06757251908396955,0.0010548226074358347,-6.0364355076881994e-05,-0.07572585559984009
1739615311.0438836,0.0,0.0,0.001867477294921871,0.03182372846679693,1.9782290076335878,0.001075406237630436,-5.2516708202039936e-05,-0.06789557199497287
1739615311.0560083,0.0,0.0,-0.010103531005859478,-0.02084870805664063,-0.075206106870229,0.001071711904739777,-5.2496558866698016e-05,-0.06819653327215175
1739615311.0698285,0.0,0.0,-0.010103531005859478,-0.03281971635742187,-0.021770992366412,0.0010684616820179958,-5.2259971539757175e-05,-0.06828588392761545
1739615311.0821083,0.0,0.0,0.0377805021972657,-0.0016950947753906487,-0.075206106870229,0.0010855262712395,-5.365896028300182e-05,-0.06858681347901441
1739615311.094568,0.0,0.0,0.02341529223632799,-0.018454506396484383,-0.09047328244274788,0.001096173274475636,-5.4698331850192e-05,-0.0689481986201555
1739615311.1081016,0.0,0.0,0.016232687255859357,0.058159946728515655,0.03166412213740455,0.0011047553066799085,-5.5026438208195314e-05,-0.06882595233301875
1739615311.1203337,0.0,0.0,0.04735730883789069,0.0653425517089844,0.04693129770992366,0.0011269588805237103,-5.621848224990222e-05,-0.06864320715706171
1739615311.1354997,0.0,0.0,0.03538630053710934,0.05097734174804691,-0.06757251908396955,0.0011428774461081197,-5.75289664484421e-05,-0.06891379539663584
1739615311.148839,0.0,0.0,0.009050082275390503,0.07970776166992188,1.9400610687022901,0.0011651009880226412,-4.9672638344336606e-05,-0.0612352668322541
1739615311.1626222,0.0,0.0,-0.0268629426269531,-0.013666103076171887,-0.23551145038167953,0.0011517865106091991,-4.978675790938931e-05,-0.062169723505437265
1739615311.17499,0.0,0.0,0.04256890551757819,-0.02084870805664063,0.1232671755725192,0.0011719083648180659,-5.047239282833878e-05,-0.061683769331966294
1739615311.186612,0.0,0.0,0.05453991381835932,-0.02084870805664063,-0.13627480916030543,0.0011948773344632976,-5.260805822494469e-05,-0.06222529985859744
1739615311.1989465,0.0,0.0,0.006655880615234366,0.012670115185546837,-1.8232977099236642,0.0011820882531457233,-6.052081119265357e-05,-0.0694458214660652
1739615311.2102907,0.0,0.0,0.021021090576171853,0.10125557661132811,1.9553282442748092,0.00120955009945485,-5.273150858024685e-05,-0.06170784536108216
1739615311.2219,0.0,0.0,-0.03643974926757809,-0.013666103076171887,1.9705954198473283,0.0012115249039163101,-4.306540067155346e-05,-0.05390856675855072
1739615311.235474,0.0,0.0,0.04735730883789069,0.007881711865234342,-0.15154198473282432,0.0012305286357127696,-4.5017638230660886e-05,-0.054509340123102476
1739615311.2469637,0.0,0.0,-0.06038176586914057,-0.18604862260742183,-0.0065038167938931135,0.0012039666368988296,-4.315142601538568e-05,-0.05453602520962205
1739615311.2588155,0.0,0.0,0.009050082275390503,-0.008877699755859392,-0.11337404580152666,0.0012066655612827366,-4.381472282356669e-05,-0.054985747021797704
1739615311.2709646,0.0,0.0,0.049751510498046825,-0.008877699755859392,-0.15917557251908376,0.0012266984206645297,-4.5877869172847215e-05,-0.05561680772811786
1739615311.2824485,0.0,0.0,0.021021090576171853,-0.037608119677734364,-0.11337404580152666,0.001234672310227239,-4.68978907930709e-05,-0.056066632352510914
1739615311.294553,0.0,0.0,0.07608772875976566,-0.023242909716796878,1.9476946564885496,0.0012848865211014938,-4.036269656968267e-05,-0.048358354685059605
1739615311.3068326,0.0,0.0,0.0329920988769532,0.017458518505859444,0.08509923664122132,0.0012992619495961306,-4.079323873049641e-05,-0.04802157075195655
1739615311.3178844,0.0,0.0,0.17903840014648442,0.02224692182617194,-0.0065038167938931135,0.0013763961257280755,-4.582299252285026e-05,-0.04804730873929533
1739615311.3305755,0.0,0.0,0.059328317138671816,0.08210196333007813,0.1919694656488551,0.0014032168696352853,-4.6475889635405814e-05,-0.04728751353102673
1739615311.3418906,0.0,0.0,0.013838485595702998,0.005487510205078094,-0.2049770992366413,0.0014066551872953662,-4.762125456962448e-05,-0.048098680451988896
1739615311.35318,0.0,0.0,0.030597897216796843,0.007881711865234342,-0.15154198473282432,0.0014179579569423395,-4.9010400619154766e-05,-0.04869845753234575
1739615311.3651087,0.0,0.0,0.0736935270996093,0.007881711865234342,-0.044671755725190776,0.0014490711737147387,-5.112055386181697e-05,-0.048875346700681645
1739615311.3763099,0.0,0.0,-0.04841075756835944,0.029429526806640682,-0.35764885496183196,0.0014241949604393979,-5.1275392637648055e-05,-0.05029088298168352
1739615311.3874192,0.0,0.0,0.021021090576171853,0.0653425517089844,-0.02940458015267189,0.0014326933726936132,-5.185747650741498e-05,-0.050407563620041715
1739615311.3985236,0.0,0.0,0.04496310717773433,-0.018454506396484383,-0.08283969465648844,0.0014511692809656956,-5.335692213659091e-05,-0.050735715751500585
1739615311.410086,0.0,0.0,0.030597897216796843,0.03182372846679693,-0.075206106870229,0.0014635128651139416,-5.4425631340927286e-05,-0.05103369474913476
1739615311.4213808,0.0,0.0,-0.02925714428710946,0.046188938427734416,-0.05230534351145022,0.0014500348994258584,-5.374918432036931e-05,-0.05124108455209042
1739615311.4331279,0.0,0.0,0.040174703857421834,-0.19562542924804682,-0.15154198473282432,0.0014659324821296761,-5.546387446466568e-05,-0.05184118063217342
1739615311.4460366,0.0,0.0,0.0377805021972657,0.04379473676757817,-1.7774961832061067,0.0014655368878779673,-6.507395020491831e-05,-0.0588752728050088
1739615311.458651,0.0,0.0,-0.04122815258789059,0.017458518505859444,-0.075206106870229,0.0014473238958380883,-6.428229334796973e-05,-0.059174337622715525
1739615311.4713664,0.0,0.0,0.049751510498046825,0.03421793012695318,-0.1210076335877861,0.0014683908521270876,-6.619668937262654e-05,-0.0596546467484194
1739615311.4826562,0.0,0.0,0.004261678955078008,-0.018454506396484383,-0.06757251908396955,0.0014701803546952957,-6.661913922862675e-05,-0.059923568179557574
1739615311.4944336,0.0,0.0,0.018626888916015494,-0.02084870805664063,-0.33474809160305363,0.0014756998684853867,-6.878475676191425e-05,-0.06124963245474227
1739615311.505803,0.0,0.0,0.028203695556640485,0.03900633344726567,-0.13627480916030543,0.0014874345406869773,-7.022980036791754e-05,-0.061790556968953955
1739615311.518257,0.0,0.0,-0.0005267243652344877,0.048583140087890664,1.9705954198473283,0.001507214544221983,-6.0132903550280446e-05,-0.053995657966896704
1739615311.531158,0.0,0.0,-0.014891934326171974,0.017458518505859444,-0.11337404580152666,0.0014997759277577437,-6.023773045183532e-05,-0.05444490526467663
1739615311.5430686,0.0,0.0,0.016232687255859357,0.000699106884765599,-1.8690992366412214,0.001488712962544209,-7.02987060631026e-05,-0.061840474598109006
1739615311.5550487,0.0,0.0,-0.010103531005859478,0.10364977827148436,1.9553282442748092,0.0015045024615755688,-5.9822014315307495e-05,-0.05410642351679678
1739615311.5663884,0.0,0.0,0.013838485595702998,0.015064316845703196,-0.14390839694656488,0.0015093631955304491,-6.088888362375126e-05,-0.054676421483965544
1739615311.57963,0.0,0.0,-0.0029209260253906244,-0.03281971635742187,-1.8538320610687025,0.0014899144890624732,-7.054901153749557e-05,-0.06201115118491061
1739615311.596453,0.0,0.0,-0.005315127685546983,-0.01127190141601564,-0.0065038167938931135,0.0014884649993382774,-7.044655546134716e-05,-0.06203864548988289
1739615311.6102798,0.0,0.0,0.001867477294921871,0.012670115185546837,1.9324274809160304,0.001509646562521963,-6.017078297144125e-05,-0.05439576717343578
1739615311.626031,0.0,0.0,0.030597897216796843,-0.004089296435546896,-0.28131297709923664,0.0015205259145934628,-6.246026372338202e-05,-0.055509262164865826
1739615311.637329,0.0,0.0,-0.005315127685546983,-0.006483498095703144,-0.03703816793893133,0.0015182550204649245,-6.247814610058205e-05,-0.055656580742503396
1739615311.6493843,0.0,0.0,0.009050082275390503,0.005487510205078094,-0.22787786259541964,0.0015203703555762185,-6.392612706080716e-05,-0.05655882168706723
1739615311.6622758,0.0,0.0,0.049751510498046825,-0.01127190141601564,-0.2202442748091602,0.001540503641248835,-6.644257592098594e-05,-0.05743096673198208
1739615311.676743,0.0,0.0,0.04256890551757819,-0.04479072465820311,0.04693129770992366,0.001560320510642908,-6.73111505805316e-05,-0.057246369093138544
1739615311.6893253,0.0,0.0,0.009050082275390503,0.024641123486328187,1.8102900763358778,0.0015835463608311218,-5.752297350962733e-05,-0.05008671674913437
1739615311.7025223,0.0,0.0,-0.0915063874511719,-0.03042551469726562,-0.05230534351145022,0.0015428904328879359,-5.529409260931487e-05,-0.0502935929459533
1739615311.7140965,0.0,0.0,-0.01968033764648447,-0.0016950947753906487,-0.128641221374046,0.0015330099350865322,-5.543226939016873e-05,-0.050802429863456434
1739615311.7272046,0.0,0.0,-0.00770932934570312,0.012670115185546837,0.06219847328244277,0.0015304195125469932,-5.4831054969029434e-05,-0.05055649740450573
1739615311.7382612,0.0,0.0,-0.010103531005859478,0.029429526806640682,0.024030534351145105,0.0015263726952458776,-5.4383701620446675e-05,-0.050461497452134074
1739615311.7505224,0.0,0.0,-0.02925714428710946,0.03900633344726567,-0.11337404580152666,0.0015124684832787008,-5.421266040004064e-05,-0.05090994701093757
1739615311.771502,0.0,0.0,0.021021090576171853,0.024641123486328187,0.0011297709923663302,0.0015219404626027465,-5.472711817022848e-05,-0.050905574056297795
1739615311.783607,0.0,0.0,-0.0268629426269531,0.02224692182617194,-0.03703816793893133,0.0015099285076721075,-5.420236867475909e-05,-0.051052158503052066
1739615311.7948391,0.0,0.0,0.006655880615234366,0.04379473676757817,0.08509923664122132,0.0015139816266767781,-5.386436588761828e-05,-0.0507157070349838
1739615311.806343,0.0,0.0,0.013838485595702998,-0.047184926318359355,0.10036641221374043,0.001521349787352335,-5.362477628248112e-05,-0.05031883084549745
1739615311.8194954,0.0,0.0,0.03538630053710934,-0.006483498095703144,-0.05993893129771011,0.0015365550459258367,-5.486574325334558e-05,-0.05055588724553146
1739615311.830983,0.0,0.0,0.05693411547851568,-0.04239652299804686,0.13090076335877865,0.0015633309090107314,-5.556327813473672e-05,-0.05003824124047586
1739615311.842974,0.0,0.0,0.013838485595702998,0.09167876997070312,-1.8843664122137402,0.00155002240546061,-6.682233898412809e-05,-0.057490371109967145
1739615311.8555562,0.0,0.0,-0.010103531005859478,0.01985272016601569,-0.0065038167938931135,0.0015463733012943037,-6.66154011189837e-05,-0.05751713556580293
1739615311.8674018,0.0,0.0,0.006655880615234366,0.024641123486328187,0.1080000000000001,0.0015513495061561257,-6.617460550619951e-05,-0.05709107321160946
1739615311.8801243,0.0,0.0,0.025809493896484348,0.04140053510742192,0.06219847328244277,0.0015643134329253064,-6.649573694870622e-05,-0.0568460674203587
1739615311.8977633,0.0,0.0,0.009050082275390503,-0.04239652299804686,0.0011297709923663302,0.00156920229042574,-6.674118795646611e-05,-0.05684251530125178
1739615311.909143,0.0,0.0,0.011444283935546862,0.036612131787109425,-0.16680916030534365,0.001573399962936357,-6.804283847207679e-05,-0.057503054412425585
1739615311.9210918,0.0,0.0,0.0377805021972657,-0.02084870805664063,-1.808030534351145,0.0015720651898062103,-7.977247643207773e-05,-0.06465365977342054
1739615311.9333155,0.0,0.0,-0.012497732666015615,-0.03281971635742187,1.9629618320610687,0.0015888333770394223,-6.782403692471827e-05,-0.056893521494365676
1739615311.9444268,0.0,0.0,0.021021090576171853,0.012670115185546837,-0.044671755725190776,0.001598619695805117,-6.866272957271492e-05,-0.05707103048959697
1739615311.955433,0.0,0.0,0.006655880615234366,0.06773675336914065,-0.13627480916030543,0.001601070585271077,-6.968024219566287e-05,-0.05761076992464214
1739615311.9666095,0.0,0.0,0.006655880615234366,-0.047184926318359355,-0.128641221374046,0.0016036600312365678,-7.065946798985626e-05,-0.05812038603234736
1739615311.9789991,0.0,0.0,0.013838485595702998,0.02224692182617194,-0.1744427480916031,0.0016090224077281935,-7.211053912586994e-05,-0.05881116101669862
1739615311.9908652,0.0,0.0,0.028203695556640485,-0.004089296435546896,-0.09810687022900777,0.001621694729210229,-7.348443046003589e-05,-0.05920018088145479
1739615312.0027416,0.0,0.0,-0.0029209260253906244,0.01985272016601569,-0.2507786259541984,0.0016188704275932966,-7.497941871761128e-05,-0.06019290083464999
1739615312.0150561,0.0,0.0,0.004261678955078008,-0.016060304736328135,-1.8232977099236642,0.0016024665205867682,-8.628414847453643e-05,-0.06740334746659263
1739615312.029619,0.0,0.0,0.016232687255859357,-0.018454506396484383,-0.2049770992366413,0.0016094226404019328,-8.806210579304088e-05,-0.0682161195533584
1739615312.04402,0.0,0.0,-0.01728613598632811,-0.06873274125976558,-0.075206106870229,0.0016028116883198716,-8.81635639456571e-05,-0.0685158849675801
1739615312.0552425,0.0,0.0,-0.04601655590820308,0.024641123486328187,-0.19734351145038187,0.0015819759929226968,-8.824858069004413e-05,-0.06929856547569474
1739615312.0662446,0.0,0.0,-0.005315127685546983,0.02224692182617194,0.2377709923664122,0.001584156067293339,-8.672355811244538e-05,-0.06836100613441703
1739615312.0775526,0.0,0.0,-0.01728613598632811,-0.006483498095703144,-0.05993893129771011,0.0015776224565649,-8.671379412863211e-05,-0.06860033436334141
1739615312.088633,0.0,0.0,-0.0029209260253906244,0.0701309550292969,-0.18207633587786254,0.001576222050824688,-8.785147995011125e-05,-0.0693225493959257
1739615312.0997527,0.0,0.0,-0.03883395092773445,0.03900633344726567,-0.2202442748091602,0.0015582515481709384,-8.824980259644148e-05,-0.07019573498038811
1739615312.1111386,0.0,0.0,0.004261678955078008,-0.03281971635742187,-0.10574045801526721,0.0015609937864606916,-8.910899442481127e-05,-0.07061631659038609
1739615312.1228125,0.0,0.0,-0.04841075756835944,-0.035213918017578116,-0.10574045801526721,0.0015399472242906204,-8.851407795932059e-05,-0.0710369282340358
1739615312.1359544,0.0,0.0,0.016232687255859357,0.007881711865234342,-0.1744427480916031,0.0015473620148882725,-9.013518782171375e-05,-0.07172917128709622
1739615312.1483293,0.0,0.0,-0.022074539306640606,0.012670115185546837,-0.2889465648854961,0.0015362328790766034,-9.141244179402611e-05,-0.07287415417724641
1739615312.160769,0.0,0.0,-0.00770932934570312,0.000699106884765599,-0.128641221374046,0.0015334002694023102,-9.208044985581891e-05,-0.07338552423325218
1739615312.1729105,0.0,0.0,0.0329920988769532,-0.004089296435546896,-0.18207633587786254,0.0015484689876266416,-9.423948790577838e-05,-0.0741081716668474
1739615312.184191,0.0,0.0,-0.0268629426269531,-0.013666103076171887,-0.044671755725190776,0.001537885827937754,-9.383380707925601e-05,-0.07428769780569747
1739615312.1961477,0.0,0.0,0.013838485595702998,-0.04479072465820311,-0.16680916030534365,0.0015444547869478734,-9.536202677461196e-05,-0.07495004148790924
1739615312.2079902,0.0,0.0,0.02341529223632799,-0.08070374956054682,-0.11337404580152666,0.001556001140104717,-9.683623225790291e-05,-0.07540120543724449
1739615312.221821,0.0,0.0,-0.010103531005859478,0.06294835004882815,-0.0065038167938931135,0.0015534443935335727,-9.666377293291543e-05,-0.0754299318571092
1739615312.2338834,0.0,0.0,0.059328317138671816,-0.0016950947753906487,-0.09810687022900777,0.001581560981597031,-9.91094106941282e-05,-0.07582073243256483
1739615312.2465627,0.0,0.0,0.08087613208007816,0.0030933085449218467,-0.32711450381679374,0.001617128989569102,-0.00010367682924119427,-0.07711681464066461
1739615312.2583084,0.0,0.0,0.05693411547851568,0.000699106884765599,-0.08283969465648844,0.00164454697660194,-0.0001060130896122811,-0.07744743668859463
1739615312.2708366,0.0,0.0,0.18382680346679692,-0.006483498095703144,-0.24314503816793898,0.001728454878141391,-0.00011321279958591128,-0.07841173010187621
1739615312.2840424,0.0,0.0,0.016232687255859357,-0.013666103076171887,-0.14390839694656488,0.0017368141310210854,-0.00011479594314794722,-0.0789838612758389
1739615312.2960997,0.0,0.0,-0.010103531005859478,0.007881711865234342,-0.14390839694656488,0.0017331301382665731,-0.00011558914936396653,-0.07955603456129781
1739615312.3125165,0.0,0.0,-0.014891934326171974,-0.04239652299804686,-0.06757251908396955,0.0017281044812115798,-0.00011574117146219392,-0.0798265097063585
1739615312.3240085,0.0,0.0,-0.034045547607421955,-0.0016950947753906487,-0.10574045801526721,0.001713830785705239,-0.00011554278250536771,-0.08024785143227149
1739615312.3355079,0.0,0.0,0.0329920988769532,0.02224692182617194,0.008763358778625996,0.0017317167723824832,-0.00011667528393263767,-0.0802166089571201
1739615312.3468819,0.0,0.0,0.028203695556640485,0.015064316845703196,-0.0065038167938931135,0.0017472481221134266,-0.00011777055701007102,-0.08024566781441508
1739615312.3583865,0.0,0.0,-0.06038176586914057,0.02224692182617194,0.008763358778625996,0.0017220164959212351,-0.00011597259748245764,-0.08021435202889904
1739615312.372085,0.0,0.0,-0.03883395092773445,0.017458518505859444,-0.08283969465648844,0.0017056486253981425,-0.00011543603042781666,-0.08054505857129027
1739615312.3836737,0.0,0.0,0.1934036101074219,-0.03042551469726562,0.0011297709923663302,0.0017978439063516963,-0.00012178611646336624,-0.08054386294179323
1739615312.3961768,0.0,0.0,0.2077688200683594,-0.047184926318359355,1.8866259541984733,0.0019181235378592603,-0.00011617699819920357,-0.07309021619715506
1739615312.408388,0.0,0.0,0.03538630053710934,0.029429526806640682,0.0011297709923663302,0.0019367295209379047,-0.00011748606448364269,-0.07308783372121948
1739615312.41984,0.0,0.0,0.030597897216796843,0.04379473676757817,-0.25841221374045786,0.0019502209073204682,-0.00012038903632267916,-0.07411124433279304
1739615312.4338467,0.0,0.0,0.040174703857421834,-0.0543675312988281,-0.18207633587786254,0.0019691878239446905,-0.00012311851179438625,-0.07483306549526958
1739615312.4475963,0.0,0.0,-0.014891934326171974,0.007881711865234342,-0.18970992366412198,0.0019624907115276453,-0.00012411521040032715,-0.07558513757485809
1739615312.4596817,0.0,0.0,0.05693411547851568,-0.004089296435546896,-0.16680916030534365,0.0019896901654348907,-0.00012733762019979318,-0.076246771829748
1739615312.4754717,0.0,0.0,0.030597897216796843,0.09407297163085937,-0.2049770992366413,0.002004258937543305,-0.0001299785255341304,-0.07705932361286834
1739615312.4866815,0.0,0.0,0.013838485595702998,0.000699106884765599,-0.03703816793893133,0.0020130838809995933,-0.00013092855618306032,-0.07720822943583339
1739615312.4991777,0.0,0.0,0.001867477294921871,-0.018454506396484383,0.01639694656488544,0.002016983483675557,-0.00013111409790317278,-0.07714594128100993
1739615312.5108693,0.0,0.0,0.049751510498046825,0.03421793012695318,0.14616793893129776,0.002044978410025301,-0.0001320068197017066,-0.07657073389235457
1739615312.523103,0.0,0.0,-0.024468740966796965,0.04379473676757817,-0.1210076335877861,0.002034850216568148,-0.00013226602411597161,-0.07705133329476375
1739615312.5367918,0.0,0.0,0.0329920988769532,0.024641123486328187,0.0011297709923663302,0.00205332846648965,-0.00013361920651863146,-0.07704926924912239
1739615312.5499814,0.0,0.0,-0.012497732666015615,-0.004089296435546896,-0.09047328244274788,0.002049273463667309,-0.0001340786081203442,-0.0774092009648927
1739615312.5652657,0.0,0.0,0.02341529223632799,-0.016060304736328135,-0.03703816793893133,0.002062891944186444,-0.0001353924367748986,-0.07755797518953575
1739615312.5793662,0.0,0.0,-0.08192958081054691,0.05576574506835941,-0.1744427480916031,0.0020249809366253,-0.00013406933299303826,-0.07824977420674904
1739615312.5906923,0.0,0.0,0.009050082275390503,0.000699106884765599,0.16143511450381687,0.0020343830310717115,-0.0001334644038593162,-0.0776142601144538
1739615312.6029673,0.0,0.0,0.049751510498046825,-0.035213918017578116,-0.15917557251908376,0.0020590397959632622,-0.00013658727457749754,-0.07824564868896162
1739615312.615425,0.0,0.0,0.061722518798828174,0.007881711865234342,1.8789923664122137,0.002115438337785932,-0.00012534179360379542,-0.07082248720025722
1739615312.628342,0.0,0.0,-0.0029209260253906244,-0.04479072465820311,-1.9149007633587785,0.0020920678708758497,-0.00013942207113453334,-0.07839115454825028
1739615312.6413686,0.0,0.0,-0.0268629426269531,-0.0016950947753906487,1.9324274809160304,0.002107401949164631,-0.0001245565069050462,-0.07075693736748256
1739615312.6526146,0.0,0.0,-0.04601655590820308,-0.013666103076171887,0.18433587786259542,0.0020903455374141917,-0.00012177107740009805,-0.07002968829047208
1739615312.6641428,0.0,0.0,-0.0005267243652344877,-0.04239652299804686,-0.09810687022900777,0.0020912756453117095,-0.00012266851492914163,-0.07041846056097308
1739615312.6758285,0.0,0.0,0.001867477294921871,-0.023242909716796878,0.16143511450381687,0.0020967964627706115,-0.00012172905494967532,-0.06978163638848096
1739615312.6882966,0.0,0.0,0.040174703857421834,-0.13098198442382814,-1.8996335877862596,0.002093610614524804,-0.00013751801203749656,-0.07728942171381449
1739615312.701999,0.0,0.0,0.004261678955078008,-0.008877699755859392,1.8942595419847328,0.002123892693200243,-0.0001237303255603006,-0.06980608329332805
1739615312.7155418,0.0,0.0,0.006655880615234366,0.015064316845703196,-0.10574045801526721,0.002128234754705027,-0.00012496046061642155,-0.07022490884744334
1739615312.7306623,0.0,0.0,0.018626888916015494,0.017458518505859444,-0.2202442748091602,0.002136888238961245,-0.0001274911257551368,-0.07109625578460763
1739615312.742414,0.0,0.0,0.006655880615234366,-0.028031313037109373,-0.19734351145038187,0.002140185533330271,-0.00012943732362215605,-0.07187722421020912
1739615312.7538445,0.0,0.0,-0.055593362548828074,-0.0016950947753906487,-0.16680916030534365,0.002113877951856832,-0.000128935105250108,-0.07253764297440951
1739615312.7670012,0.0,0.0,-0.0268629426269531,0.02224692182617194,-0.10574045801526721,0.00210229367901102,-0.00012899911487218406,-0.07295682470423821
1739615312.7785623,0.0,0.0,-0.012497732666015615,-0.03281971635742187,-0.08283969465648844,0.00209799042020849,-0.0001294061158573881,-0.07328555719740366
1739615312.7903764,0.0,0.0,-0.0268629426269531,-0.023242909716796878,-0.075206106870229,0.002086823774023944,-0.0001292381793208743,-0.07358415917417196
1739615312.8037596,0.0,0.0,0.030597897216796843,0.01027591352539059,-0.09047328244274788,0.0021033999461593273,-0.00013126587982467626,-0.07394310627486449
1739615312.8175468,0.0,0.0,0.021021090576171853,0.024641123486328187,-1.8385648854961831,0.0020915460110885894,-0.00014645868047759306,-0.08120950617021079
1739615312.8309207,0.0,0.0,0.025809493896484348,-0.013666103076171887,-0.26604580152671775,0.0021042031430452885,-0.00014973431348287502,-0.08226333304289113
1739615312.8436077,0.0,0.0,-0.010103531005859478,-0.023242909716796878,-0.22787786259541964,0.0020999445906572604,-0.0001514181169362482,-0.08316647315156019
1739615312.857068,0.0,0.0,-0.014891934326171974,0.017458518505859444,-0.15154198473282432,0.0020944424874735886,-0.00015233574045213637,-0.08376808552782448
1739615312.8684468,0.0,0.0,0.040174703857421834,-0.05197332963867185,-0.2736793893129772,0.0021142791124961068,-0.0001562507754363202,-0.08485234375462927
1739615312.8801866,0.0,0.0,-0.014891934326171974,0.027035325146484435,-0.14390839694656488,0.0021090017556813787,-0.000157122012038617,-0.08542397462425
1739615312.8946264,0.0,0.0,0.02341529223632799,-0.035213918017578116,-0.02940458015267189,0.0021241731120989625,-0.0001585309081094548,-0.08554321404501411
1739615312.9059148,0.0,0.0,-0.010103531005859478,0.015064316845703196,-0.09047328244274788,0.0021220052565100794,-0.00015916517728421458,-0.08590373482573059
1739615312.919311,0.0,0.0,0.030597897216796843,-0.04000232133789061,-0.06757251908396955,0.002140245164055639,-0.00016116463995217731,-0.08617377922565916
1739615312.932282,0.0,0.0,0.016232687255859357,-0.004089296435546896,-1.8920000000000001,0.002125882842055558,-0.00017709109248781953,-0.09365244123717775
1739615312.9445922,0.0,0.0,-0.0268629426269531,-0.0016950947753906487,-0.1210076335877861,0.0021157216466667467,-0.00017737177225797125,-0.09413473707822792
1739615312.9582536,0.0,0.0,-0.01728613598632811,-0.018454506396484383,-0.21261068702290076,0.002108988244509384,-0.00017874100887539107,-0.09497898534072169
1739615312.969892,0.0,0.0,-0.06038176586914057,0.09167876997070312,1.924793893129771,0.0021110580984321993,-0.00016133376141156143,-0.08737823888424384
1739615312.981635,0.0,0.0,0.021021090576171853,-0.01127190141601564,-0.18207633587786254,0.002122976534332934,-0.00016391248409399257,-0.08810068350810475
1739615312.9968827,0.0,0.0,0.013838485595702998,0.027035325146484435,-0.128641221374046,0.002132145882564359,-0.00016579205276114124,-0.08861207439179566
1739615313.0084128,0.0,0.0,0.0377805021972657,0.01027591352539059,-1.8920000000000001,0.002128271283479361,-0.00018281491791937314,-0.09609055636781315
1739615313.0213337,0.0,0.0,-0.010103531005859478,0.015064316845703196,-0.18970992366412198,0.002125389783333538,-0.00018428187265523156,-0.0968443805194532
1739615313.034206,0.0,0.0,-0.024468740966796965,0.0030933085449218467,-0.10574045801526721,0.0021165271436290214,-0.00018448529612193347,-0.09726650595574084
1739615313.046763,0.0,0.0,-0.01968033764648447,0.07252515668945314,-0.23551145038167953,0.0021081696499607814,-0.00018592022723319676,-0.09820135775961786
1739615313.058573,0.0,0.0,0.04256890551757819,-0.016060304736328135,-0.18207633587786254,0.0021318511020245482,-0.00018948542775927907,-0.09892516361558477
1739615313.0701632,0.0,0.0,0.030597897216796843,0.01985272016601569,-1.8996335877862596,0.00212498807529805,-0.00020653838906185972,-0.10643491922283113
1739615313.0813246,0.0,0.0,0.009050082275390503,0.000699106884765599,-0.13627480916030543,0.00213327639637955,-0.0002084186016354552,-0.10697892715859028
1739615313.092983,0.0,0.0,0.0329920988769532,-0.023242909716796878,-0.05230534351145022,0.002154865471185187,-0.00021064267459093645,-0.10719119024138139
1739615313.1068387,0.0,0.0,0.0377805021972657,0.012670115185546837,0.0011297709923663302,0.002179666877395618,-0.0002126639352233384,-0.10719230097353118
1739615313.1187112,0.0,0.0,0.03538630053710934,-0.028031313037109373,-0.11337404580152666,0.0022016124374450562,-0.00021555036755924924,-0.10764572581405804
1739615313.1332138,0.0,0.0,0.19100940844726555,0.012670115185546837,-0.02940458015267189,0.0023037285304759333,-0.00022460223611541993,-0.10776736671426958
1739615313.145584,0.0,0.0,0.04256890551757819,0.03182372846679693,-0.16680916030534365,0.0023287525829546627,-0.00022837884026811163,-0.10843184529287761
1739615313.158943,0.0,0.0,-0.01728613598632811,-0.035213918017578116,1.9705954198473283,0.0023548137885514,-0.00021181149117447046,-0.10065203173792674
1739615313.1708941,0.0,0.0,-0.014891934326171974,0.03421793012695318,-0.06757251908396955,0.0023513474518177153,-0.00021216712419095535,-0.10092322490867461
1739615313.1825802,0.0,0.0,-0.0005267243652344877,-0.03281971635742187,-0.09047328244274788,0.0023548544211790087,-0.00021335791002446037,-0.10128487672773308
1739615313.195357,0.0,0.0,0.001867477294921871,-0.013666103076171887,-0.09047328244274788,0.0023595981098914055,-0.00021466120392884462,-0.10164652973901245
1739615313.2068582,0.0,0.0,0.030597897216796843,-0.004089296435546896,-0.15154198473282432,0.0023781497418224116,-0.0002178033855287699,-0.10224943825843681
1739615313.2199597,0.0,0.0,0.006655880615234366,-0.004089296435546896,-0.14390839694656488,0.0023846267397260794,-0.00021979942311545697,-0.10282223345077944
1739615313.2327316,0.0,0.0,0.001867477294921871,-0.035213918017578116,0.1385343511450381,0.00239294943684,-0.0002191937406690752,-0.10227923924698701
1739615313.2442088,0.0,0.0,-0.0029209260253906244,-0.03281971635742187,0.13090076335877865,0.002398633398628563,-0.0002184199465778638,-0.10176626901866113
1739615313.2601957,0.0,0.0,-0.022074539306640606,-0.023242909716796878,-0.075206106870229,0.0023912482025756124,-0.00021848569739880958,-0.10206741738754739
1739615313.2738712,0.0,0.0,0.04496310717773433,-0.006483498095703144,-0.10574045801526721,0.0024179524432008104,-0.00022198966367750785,-0.10248916825606441
1739615313.2887619,0.0,0.0,-0.0915063874511719,-0.17647181596679684,-0.14390839694656488,0.0023736441033034364,-0.00021932035488365584,-0.1030617586450015
1739615313.3004336,0.0,0.0,-0.01728613598632811,0.007881711865234342,-0.13627480916030543,0.0023677408674093433,-0.0002201098998413558,-0.10360420550766522
1739615313.3125384,0.0,0.0,0.001867477294921871,-0.01127190141601564,-0.014137404580152557,0.0023736409635675454,-0.0002207703700333228,-0.10366417333225181
1739615313.3274226,0.0,0.0,0.006655880615234366,-0.01127190141601564,-0.014137404580152557,0.0023820040621759103,-0.00022166509116491553,-0.10372409738580077
1739615313.3388996,0.0,0.0,0.02341529223632799,-0.01127190141601564,-0.075206106870229,0.002398121047300108,-0.00022391440891593483,-0.1040252234910903
1739615313.3534498,0.0,0.0,-0.005315127685546983,-0.035213918017578116,-0.3042137404580154,0.002395749670518588,-0.0002267457674196465,-0.10523103585868422
1739615313.3651476,0.0,0.0,0.028203695556640485,-0.028031313037109373,-0.08283969465648844,0.0024143863698863907,-0.00022932805956439126,-0.10556244650837325
1739615313.376378,0.0,0.0,0.052145712158203184,-0.04479072465820311,-0.11337404580152666,0.0024451027605148197,-0.00023339444424693448,-0.10601446910176977
1739615313.388952,0.0,0.0,0.02341529223632799,0.012670115185546837,0.1232671755725192,0.002464593305720195,-0.0002339850775389163,-0.10553169360361901
1739615313.4029498,0.0,0.0,-0.012497732666015615,0.017458518505859444,-0.2202442748091602,0.002459825472843998,-0.00023577139753959127,-0.1064058031134812
1739615313.4208214,0.0,0.0,0.049751510498046825,0.0030933085449218467,1.924793893129771,0.0025216195231504684,-0.00022190583668478235,-0.0988063187431904
1739615313.4357543,0.0,0.0,0.011444283935546862,-0.023242909716796878,-0.2049770992366413,0.002528930454026877,-0.00022475585440859014,-0.09961895241838768
1739615313.4476182,0.0,0.0,0.025809493896484348,-0.023242909716796878,-0.09047328244274788,0.0025457087467717692,-0.00022734863766739962,-0.09997934055207527
1739615313.4617043,0.0,0.0,0.030597897216796843,0.012670115185546837,-0.021770992366412,0.0025661743752261384,-0.00022959659074556758,-0.10006834896991108
1739615313.4746408,0.0,0.0,0.1934036101074219,-0.023242909716796878,-0.09047328244274788,0.002671618915258157,-0.0002409098895382933,-0.1004286577103413
1739615313.4872208,0.0,0.0,-0.06517016918945306,0.0030933085449218467,0.06983206106870221,0.002643159100300986,-0.00023742375112594354,-0.10015584292464412
1739615313.5010738,0.0,0.0,-0.03883395092773445,0.000699106884765599,0.01639694656488544,0.0026276647351970734,-0.00023575988360880366,-0.10009402058543743
1739615313.5126882,0.0,0.0,0.028203695556640485,-0.004089296435546896,-0.03703816793893133,0.002646821955244492,-0.00023807716749298176,-0.10024320403056923
1739615313.525228,0.0,0.0,0.004261678955078008,0.017458518505859444,0.054564885496183324,0.002654800620674098,-0.00023832317494345512,-0.10003053308393274
1739615313.5367372,0.0,0.0,-0.014891934326171974,-0.037608119677734364,-0.15917557251908376,0.002649064760563792,-0.0002394831576224347,-0.10066211875656941
1739615313.550427,0.0,0.0,-0.0029209260253906244,0.02224692182617194,-0.13627480916030543,0.0026501188230718476,-0.00024107459249697954,-0.10120329767652338
1739615313.5635772,0.0,0.0,0.016232687255859357,0.03900633344726567,-0.075206106870229,0.002662452411633253,-0.00024313970543692339,-0.10150328261772794
1739615313.5767684,0.0,0.0,-0.043622354248046946,0.02224692182617194,-0.11337404580152666,0.0026421692422261534,-0.00024235768603268515,-0.10195407401051164
1739615313.5882764,0.0,0.0,0.05693411547851568,0.015064316845703196,-0.044671755725190776,0.0026768840018053033,-0.0002463430505763808,-0.10213346577115301
1739615313.5993762,0.0,0.0,0.009050082275390503,0.03182372846679693,-0.15154198473282432,0.002684213975999228,-0.0002487481353490615,-0.10273501981717229
1739615313.6112964,0.0,0.0,0.05453991381835932,-0.04000232133789061,-0.14390839694656488,0.002716194368335172,-0.000253561965513639,-0.10330645160846186
1739615313.62374,0.0,0.0,0.018626888916015494,0.029429526806640682,0.04693129770992366,0.002732179466916313,-0.0002546971247683562,-0.10312411851769046
1739615313.6356008,0.0,0.0,-0.0005267243652344877,-0.03042551469726562,-1.8843664122137402,0.002705251124444312,-0.00027261855894628945,-0.11057047391922888
1739615313.6486332,0.0,0.0,0.028203695556640485,0.02224692182617194,-0.02940458015267189,0.002725935529096532,-0.00027505089198551116,-0.11069072430157846
1739615313.6607823,0.0,0.0,0.025809493896484348,0.0030933085449218467,-0.22787786259541964,0.002741989366252236,-0.00027921328887278805,-0.11159491747718489
1739615313.673348,0.0,0.0,0.0377805021972657,0.03421793012695318,1.9476946564885496,0.0028018283669896185,-0.0002638000010044879,-0.10390564757822543
1739615313.6854446,0.0,0.0,0.030597897216796843,0.05576574506835941,-0.2507786259541984,0.002819394594047941,-0.00026843802331880616,-0.10489912508091694
1739615313.698959,0.0,0.0,-0.04841075756835944,-0.03281971635742187,1.7873893129770992,0.0028293098753369977,-0.0002495577223352007,-0.09784203249016278
1739615313.7146332,0.0,0.0,0.021021090576171853,-0.037608119677734364,-0.11337404580152666,0.0028433807082910963,-0.00025234552189145866,-0.09829174204801965
1739615313.727386,0.0,0.0,-0.04122815258789059,-0.016060304736328135,0.054564885496183324,0.0028265089755588357,-0.00025005366636779165,-0.09807818144506202
1739615313.738649,0.0,0.0,-0.08432378247070305,0.000699106884765599,-1.8767328244274808,0.0027523193665093515,-0.00026358310243368806,-0.1054930946350326
1739615313.750513,0.0,0.0,0.009050082275390503,0.05097734174804691,-0.18970992366412198,0.0027592892119339915,-0.000266463689480986,-0.10624545040625132
1739615313.7620907,0.0,0.0,0.03538630053710934,0.027035325146484435,0.06983206106870221,0.0027853086604262313,-0.00026839091586216727,-0.1059726998942771
1739615313.7732606,0.0,0.0,0.004261678955078008,0.000699106884765599,1.909526717557252,0.002826615255720975,-0.0002510323075115331,-0.09843329188835047
1739615313.7848825,0.0,0.0,0.025809493896484348,0.03182372846679693,0.10036641221374043,0.002847118069328118,-0.00025209597328795574,-0.09803864347501841
1739615313.7961724,0.0,0.0,-0.0268629426269531,-0.03042551469726562,-1.8690992366412214,0.0028038096624765146,-0.00026897465819537505,-0.10542306399223225
1739615313.8078148,0.0,0.0,0.030597897216796843,0.05097734174804691,-0.05230534351145022,0.0028250590376499916,-0.0002718196168438943,-0.10563249360251976
1739615313.8215182,0.0,0.0,-0.012497732666015615,0.017458518505859444,-0.06757251908396955,0.002822297923044006,-0.00027233217933542994,-0.10590224963262872
1739615313.8422809,0.0,0.0,0.013838485595702998,0.029429526806640682,-0.22787786259541964,0.0028312313680275373,-0.00027591586970857567,-0.10680517082177415
1739615313.8579926,0.0,0.0,-0.0316513459472656,0.0605541483886719,-0.3423816793893131,0.002813019160614881,-0.00027796591515924957,-0.10816049192406713
1739615313.8719492,0.0,0.0,0.018626888916015494,-0.0016950947753906487,-0.03703816793893133,0.002828222105130908,-0.00028000788979454163,-0.1083099062226323
1739615313.8867228,0.0,0.0,0.011444283935546862,-0.02084870805664063,-0.22787786259541964,0.0028360320802023956,-0.000283485928997388,-0.10921308252855945
1739615313.8982925,0.0,0.0,0.006655880615234366,0.017458518505859444,-0.1210076335877861,0.00284318585913387,-0.000285658371929999,-0.10969424864854817
1739615313.9109101,0.0,0.0,0.08566453540039065,0.0030933085449218467,0.06219847328244277,0.0028977022221830266,-0.00029074607329349555,-0.10945177365466079
1739615313.9226887,0.0,0.0,-0.00770932934570312,0.0030933085449218467,-0.11337404580152666,0.002897037768741967,-0.00029202107863814043,-0.10990275051925066
1739615313.9352374,0.0,0.0,0.021021090576171853,-0.016060304736328135,0.03166412213740455,0.0029150737823080575,-0.00029360016453339904,-0.10978087522873625
1739615313.9480927,0.0,0.0,-0.010103531005859478,0.015064316845703196,-0.15154198473282432,0.002912360672311949,-0.00029511161951874926,-0.1103825736451346
1739615313.9604533,0.0,0.0,0.018626888916015494,-0.016060304736328135,-1.9149007633587785,0.002893610293368186,-0.00031565726209400915,-0.11794903043844898
1739615313.9730158,0.0,0.0,-0.014891934326171974,-0.02084870805664063,-0.26604580152671775,0.002886956898173589,-0.0003180529277456078,-0.11900418072173606
1739615313.9859238,0.0,0.0,-0.0005267243652344877,0.036612131787109425,-0.03703816793893133,0.002892626498120573,-0.00031906949023779063,-0.11915492309743933
1739615313.998911,0.0,0.0,0.040174703857421834,-0.15252979936523436,-0.16680916030534365,0.002918804276979326,-0.00032386775447181075,-0.11981815114977723
1739615314.0120416,0.0,0.0,0.02341529223632799,-0.03281971635742187,-0.128641221374046,0.0029363337020771206,-0.00032728897633946735,-0.12033068748486547
1739615314.0265083,0.0,0.0,-0.08192958081054691,-0.19562542924804682,0.27593893129770986,0.0029019155019605765,-0.0003201741131932382,-0.11924538795340668
1739615314.0415435,0.0,0.0,-0.01968033764648447,-0.18126021928710934,0.054564885496183324,0.0028983091063660713,-0.00031908014442773243,-0.11903415866261977
1739615314.0559125,0.0,0.0,-0.010103531005859478,0.007881711865234342,-0.075206106870229,0.0028976183298928472,-0.00031986391278600453,-0.11933537904817636
1739615314.0677779,0.0,0.0,-0.024468740966796965,0.04379473676757817,-1.907267175572519,0.0028546477126383902,-0.0003379982515862077,-0.12687249081731414
1739615314.079131,0.0,0.0,-0.0915063874511719,-0.01127190141601564,-0.02940458015267189,0.0028093087338167044,-0.00033315964549882873,-0.12699400386355386
1739615314.0930262,0.0,0.0,0.009050082275390503,-0.047184926318359355,-0.25841221374045786,0.002816691899178969,-0.00033696729256481116,-0.12801986520404188
1739615314.1073208,0.0,0.0,0.006655880615234366,-0.037608119677734364,0.08509923664122132,0.0028291804674327294,-0.000337197817337584,-0.12768910377101295
1739615314.1207664,0.0,0.0,-0.01728613598632811,0.015064316845703196,0.01639694656488544,0.0028266318454185355,-0.0003365669061118966,-0.12762958642640362
1739615314.1330788,0.0,0.0,-0.012497732666015615,0.02224692182617194,-0.18970992366412198,0.0028228605689317324,-0.00033829812415436307,-0.12838401380431205
1739615314.1476955,0.0,0.0,-0.04841075756835944,-0.037608119677734364,-0.22787786259541964,0.0027978204369392846,-0.00033804408744397027,-0.12928926868780763
1739615314.15975,0.0,0.0,-0.022074539306640606,0.017458518505859444,-0.2507786259541984,0.002787385202889973,-0.00033972201119382753,-0.13028502055527152
1739615314.1735559,0.0,0.0,-0.02925714428710946,0.007881711865234342,-0.1210076335877861,0.0027752492562351785,-0.0003396024823692721,-0.1307683366543877
1739615314.1870308,0.0,0.0,0.021021090576171853,-0.07591534624023433,0.008763358778625996,0.002794344820143016,-0.00034152520127936093,-0.13073908558405123
1739615314.1984534,0.0,0.0,0.016232687255859357,-0.023242909716796878,-0.26604580152671775,0.002805502359222224,-0.00034589980345735966,-0.13179511427606452
1739615314.2095487,0.0,0.0,-0.014891934326171974,-0.04239652299804686,-0.014137404580152557,0.0028034917740232855,-0.0003456497817937237,-0.13185636731805747
1739615314.22183,0.0,0.0,0.059328317138671816,0.02224692182617194,-0.1210076335877861,0.0028422084586186727,-0.00035152910972134627,-0.13233956719705303
1739615314.2340956,0.0,0.0,0.025809493896484348,0.017458518505859444,-0.31184732824427486,0.0028580719859633134,-0.00035707220188745,-0.13357651234479656
1739615314.2496881,0.0,0.0,-0.0029209260253906244,0.015064316845703196,-0.08283969465648844,0.0028616878888333137,-0.0003583538119582313,-0.13390916128243993
1739615314.2620444,0.0,0.0,-0.005315127685546983,-0.018454506396484383,-0.25841221374045786,0.0028605959995943358,-0.0003612309520185725,-0.1349352011088309
1739615314.27415,0.0,0.0,-0.1609382355957032,0.01985272016601569,-0.3042137404580154,0.002768388291571778,-0.00035366039795869426,-0.13614237680174854
1739615314.2879498,0.0,0.0,-0.08432378247070305,-0.008877699755859392,-0.21261068702290076,0.002722185849246607,-0.00035042504160176345,-0.13698781772125138
1739615314.299313,0.0,0.0,0.05453991381835932,-0.14055879106445313,-0.14390839694656488,0.002757907539786786,-0.00035627840330822814,-0.13756184267036967
1739615314.3106055,0.0,0.0,-0.02925714428710946,0.000699106884765599,0.1690687022900763,0.002750675208626403,-0.00035305378233295724,-0.13689991158641693
1739615314.3235288,0.0,0.0,0.04256890551757819,0.10364977827148436,-0.044671755725190776,0.0027811537446299143,-0.00035711296764130533,-0.13708186385870516
1739615314.335758,0.0,0.0,-0.0029209260253906244,-0.004089296435546896,-0.18207633587786254,0.0027825089602735763,-0.00035929424988348404,-0.13780647871956253
1739615314.3481958,0.0,0.0,0.05693411547851568,0.005487510205078094,-1.907267175572519,0.002786994020170195,-0.0003830919729018472,-0.14534441147214114
1739615314.359678,0.0,0.0,-0.0268629426269531,-0.008877699755859392,-0.128641221374046,0.002776067355849509,-0.00038299592889944555,-0.14585917445997124
1739615314.3726997,0.0,0.0,0.009050082275390503,-0.004089296435546896,-0.10574045801526721,0.0027865370734886496,-0.0003852960338025357,-0.1462834494039226
1739615314.3855662,0.0,0.0,-0.022074539306640606,0.000699106884765599,-0.14390839694656488,0.0027779819283754565,-0.00038567079233027746,-0.14685847682348044
1739615314.4002893,0.0,0.0,0.1981920134277344,-0.018454506396484383,-0.2202442748091602,0.002897481632461127,-0.00040330138523347246,-0.1477347222292246
1739615314.411988,0.0,0.0,-0.03643974926757809,0.09167876997070312,-0.03703816793893133,0.0028825047074895146,-0.0004015973545016663,-0.1478877596555394
1739615314.4285648,0.0,0.0,0.004261678955078008,-0.006483498095703144,-1.9149007633587785,0.002856835944351486,-0.0004217175083156839,-0.15545686253113034
1739615314.4412653,0.0,0.0,0.21016302172851553,0.06294835004882815,-0.03703816793893133,0.0029880212801648037,-0.0004388786399223631,-0.1556106431979253
1739615314.4526238,0.0,0.0,0.05453991381835932,-0.01127190141601564,-0.044671755725190776,0.0030273297285353593,-0.00044434762316605006,-0.15579468130636187
1739615314.4668417,0.0,0.0,-0.01728613598632811,0.0605541483886719,-0.10574045801526721,0.003023027094341332,-0.00044489944739181924,-0.15621991266879845
1739615314.4784477,0.0,0.0,0.040174703857421834,0.007881711865234342,-0.05230534351145022,0.0030537176228473974,-0.0004494126043538736,-0.15643401200978557
1739615314.4905753,0.0,0.0,0.021021090576171853,0.04379473676757817,1.9324274809160304,0.003109990230627429,-0.00043250190134380044,-0.14880993620361355
1739615314.504096,0.0,0.0,0.06651092211914067,-0.028031313037109373,-0.18970992366412198,0.0031529521375967297,-0.00044055138583872,-0.14956527463571928
1739615314.5157344,0.0,0.0,-0.012497732666015615,0.000699106884765599,-1.8996335877862596,0.003117019778599763,-0.00045959612231443077,-0.15707357346892392
1739615314.5282233,0.0,0.0,-0.022074539306640606,0.01027591352539059,0.039297709923664215,0.003112427215779366,-0.00045832176948322473,-0.15692577263915383
1739615314.5403998,0.0,0.0,0.001867477294921871,0.05097734174804691,0.14616793893129776,0.003124023135005481,-0.00045788678497986346,-0.15635577294215852
1739615314.551731,0.0,0.0,0.04735730883789069,-0.04479072465820311,-0.24314503816793898,0.003155323952699515,-0.000465127425409539,-0.15732298883901072
1739615314.5636764,0.0,0.0,0.049751510498046825,0.017458518505859444,0.0011297709923663302,0.0031927951693486722,-0.0004701474036533948,-0.15732557952533766
1739615314.575617,0.0,0.0,-0.04122815258789059,-0.04239652299804686,1.8789923664122137,0.0032115365064455227,-0.00044853977942630016,-0.14991225693358223
1739615314.587139,0.0,0.0,0.04735730883789069,0.012670115185546837,-0.3652824427480914,0.0032397625349997777,-0.00045712134733318636,-0.1513605101081819
1739615314.5995417,0.0,0.0,0.0689051237792968,0.024641123486328187,1.9858625954198474,0.00332609823546304,-0.0004435407883792988,-0.14352391350078755
1739615314.6124256,0.0,0.0,0.011444283935546862,0.012670115185546837,0.039297709923664215,0.003339862110992,-0.0004450200951216422,-0.14337331763051922
1739615314.6246154,0.0,0.0,-0.07953537915039055,0.02224692182617194,-0.33474809160305363,0.0032916375454499817,-0.0004426370493991636,-0.1446999233334376
1739615314.6379514,0.0,0.0,0.0377805021972657,0.027035325146484435,-0.08283969465648844,0.003318964468448665,-0.0004476045379273484,-0.14503168741710362
1739615314.653501,0.0,0.0,0.001867477294921871,0.03182372846679693,1.909526717557252,0.003363331401825808,-0.0004290068716950136,-0.1374954701722163
1739615314.6650057,0.0,0.0,0.021021090576171853,-0.016060304736328135,1.9553282442748092,0.0034194198318095934,-0.0004115105852820406,-0.12977711869560468
1739615314.676605,0.0,0.0,-0.012497732666015615,0.024641123486328187,-0.03703816793893133,0.003415634028942819,-0.000411672765280187,-0.12992556638726577
1739615314.6878886,0.0,0.0,0.0329920988769532,0.02224692182617194,1.9858625954198474,0.0034789741457912486,-0.00039479837390944434,-0.122085383472204
1739615314.699694,0.0,0.0,-0.022074539306640606,0.000699106884765599,-0.33474809160305363,0.0034626755462079844,-0.0003971937739015878,-0.1234082474410606
1739615314.711038,0.0,0.0,0.009050082275390503,-0.03042551469726562,-0.128641221374046,0.0034694438362739316,-0.0004001389764688969,-0.12391732908835061
1739615314.7223983,0.0,0.0,0.009050082275390503,0.03182372846679693,-0.09810687022900777,0.003476887057866521,-0.0004027731424642052,-0.12430589333721963
1739615314.7393441,0.0,0.0,0.0689051237792968,-0.06633853959960934,-1.8767328244274808,0.0034857052208075345,-0.000429114402153568,-0.1317182271916904
1739615314.7520304,0.0,0.0,0.013838485595702998,0.01027591352539059,1.9324274809160304,0.0035372745313455686,-0.0004110144285677044,-0.12408937674030239
1739615314.7725034,0.0,0.0,0.05453991381835932,0.024641123486328187,0.06983206106870221,0.0035759589640256377,-0.0004158498796031125,-0.1238146286458636
1739615314.78403,0.0,0.0,0.10242394702148427,0.017458518505859444,-0.09047328244274788,0.0036408111889903554,-0.0004265191061492959,-0.1241727796995425
1739615314.7964022,0.0,0.0,-0.0029209260253906244,-0.004089296435546896,-0.21261068702290076,0.00363893050278203,-0.00042936481191516667,-0.12501347500841775
1739615314.8092756,0.0,0.0,-0.0268629426269531,-0.023242909716796878,-0.11337404580152666,0.0036244633279791908,-0.0004291025840152258,-0.12546244635847068
1739615314.8206613,0.0,0.0,0.011444283935546862,-0.008877699755859392,1.9705954198473283,0.0036756130891070957,-0.0004101636925290303,-0.11768188393064191
1739615314.8324049,0.0,0.0,-0.06995857250976556,-0.03042551469726562,-0.02940458015267189,0.003635490928193927,-0.0004052355306541117,-0.11779815242372799
1739615314.8451247,0.0,0.0,-0.0005267243652344877,0.000699106884765599,0.06983206106870221,0.0036400519819503427,-0.00040528725641227775,-0.11752243027284658
1739615314.856684,0.0,0.0,-0.0005267243652344877,-0.03042551469726562,0.01639694656488544,0.003643519134633581,-0.0004059059770599512,-0.11745767522468484
1739615314.8691175,0.0,0.0,0.009050082275390503,0.000699106884765599,-0.2049770992366413,0.0036483902954604374,-0.0004097120458384399,-0.11826708012719751
1739615314.8804226,0.0,0.0,0.013838485595702998,-0.028031313037109373,-0.1210076335877861,0.003658059433730802,-0.0004130476229453626,-0.11874501172927428
1739615314.8925915,0.0,0.0,0.025809493896484348,0.0605541483886719,-0.0065038167938931135,0.0036775805881654414,-0.0004162053543172109,-0.11877082626483564
1739615314.905581,0.0,0.0,0.04735730883789069,-0.12619358110351564,-0.09047328244274788,0.003708791398156176,-0.0004221324640081028,-0.11912818489749416
1739615314.9175947,0.0,0.0,0.03538630053710934,0.017458518505859444,1.9705954198473283,0.0037752945971734346,-0.0004049409519699525,-0.11134668844649953
1739615314.9311717,0.0,0.0,0.028203695556640485,0.01027591352539059,-0.2736793893129772,0.003790140131256422,-0.00041113826755845816,-0.11242636024749016
1739615314.9438303,0.0,0.0,-0.014891934326171974,-0.01127190141601564,-0.021770992366412,0.0037836078337892573,-0.0004109054904585504,-0.11251154312137648
1739615314.9576328,0.0,0.0,0.009050082275390503,-0.016060304736328135,-1.8538320610687025,0.0037537897159370596,-0.0004325050128299251,-0.11983125267283462
1739615314.9699807,0.0,0.0,-0.005315127685546983,-0.06633853959960934,0.1919694656488551,0.0037586027982296445,-0.00043084136620176266,-0.1190735724526539
1739615314.9814248,0.0,0.0,-0.055593362548828074,-0.04239652299804686,0.14616793893129776,0.003730994584527139,-0.00042531791678724636,-0.11849673422997548
1739615314.99642,0.0,0.0,0.028203695556640485,-0.023242909716796878,-0.014137404580152557,0.0037522808831683724,-0.0004287782928867203,-0.11855264958456177
1739615315.0079331,0.0,0.0,0.049751510498046825,-0.013666103076171887,-1.907267175572519,0.003747179651111829,-0.0004546709754001999,-0.12608415849749288
1739615315.0197752,0.0,0.0,0.009050082275390503,-0.04000232133789061,-0.11337404580152666,0.003755388232179766,-0.000457602303159823,-0.12653316830513842
1739615315.0312467,0.0,0.0,-0.014891934326171974,-0.018454506396484383,1.9629618320610687,0.003792726431516778,-0.0004358215282757538,-0.11878323542921414
1739615315.0423136,0.0,0.0,-0.010103531005859478,-0.035213918017578116,0.23013740458015275,0.0037953762421024163,-0.00043331007537256156,-0.11787463765035132
1739615315.05342,0.0,0.0,0.04496310717773433,-0.023242909716796878,1.8560916030534351,0.0038672915290664253,-0.00041777547112322296,-0.11054523354198512
1739615315.0647128,0.0,0.0,0.2029804167480469,0.02224692182617194,0.1538015267175572,0.004001672329283934,-0.00043452014377527747,-0.10993631235876392
1739615315.0755875,0.0,0.0,0.004261678955078008,0.058159946728515655,-1.7087938931297708,0.003970979400833688,-0.0004544956414724562,-0.11668268841264927
1739615315.0869558,0.0,0.0,0.0329920988769532,-0.02084870805664063,-0.08283969465648844,0.003994233122614535,-0.00045914170062078544,-0.11700956487772636
1739615315.098138,0.0,0.0,0.049751510498046825,0.012670115185546837,-0.16680916030534365,0.0040263931047602956,-0.00046617605900658396,-0.11766802948351124
1739615315.1091897,0.0,0.0,-0.0268629426269531,-0.018454506396484383,-1.8461984732824426,0.00397363551370242,-0.00048522025661428225,-0.12495823329258672
1739615315.1204734,0.0,0.0,0.028203695556640485,-0.008877699755859392,0.1080000000000001,0.003999246381890246,-0.0004874230616794654,-0.12453284502855619
1739615315.1314626,0.0,0.0,0.04735730883789069,-0.03281971635742187,-0.03703816793893133,0.004033862424362716,-0.0004929080357729142,-0.12468004640913034
1739615315.1425123,0.0,0.0,-0.0029209260253906244,-0.008877699755859392,-0.23551145038167953,0.004032265900020991,-0.000496264871831514,-0.12561107972530663
1739615315.1534703,0.0,0.0,0.0736935270996093,0.017458518505859444,-0.18207633587786254,0.004080719396011812,-0.0005057033177030586,-0.1263310714470619
1739615315.1644795,0.0,0.0,0.030597897216796843,-0.09028055620117181,-0.044671755725190776,0.004105005149176486,-0.000509878871594844,-0.12650868456053266
1739615315.1755629,0.0,0.0,0.02341529223632799,0.027035325146484435,-1.8767328244274808,0.004083713738481327,-0.0005341421372949863,-0.1339205498797959
1739615315.186812,0.0,0.0,-0.043622354248046946,-0.0016950947753906487,-0.1210076335877861,0.004059960746291495,-0.0005328030033405358,-0.13440091399532847
1739615315.1983285,0.0,0.0,-0.0029209260253906244,0.03421793012695318,-0.24314503816793898,0.004059461355302373,-0.0005364131517837184,-0.13536350678041795
1739615315.2107315,0.0,0.0,0.05693411547851568,0.10364977827148436,-0.14390839694656488,0.004099635965667414,-0.0005441707049378886,-0.13593422655040607
1739615315.2232468,0.0,0.0,-0.010103531005859478,0.036612131787109425,-0.08283969465648844,0.004098416526968229,-0.0005453651363165238,-0.13626401402988325
1739615315.2354376,0.0,0.0,-0.0268629426269531,0.03421793012695318,1.9324274809160304,0.0041328357499355334,-0.0005219451141443307,-0.12863630305395313
1739615315.2470078,0.0,0.0,0.059328317138671816,-0.035213918017578116,-0.06757251908396955,0.004175639672456259,-0.0005290457922895196,-0.12890442082907697
1739615315.2595892,0.0,0.0,0.006655880615234366,0.02224692182617194,-0.075206106870229,0.004184547508813248,-0.0005315923913119414,-0.12920282361258378
1739615315.2722895,0.0,0.0,-0.0029209260253906244,0.027035325146484435,-0.05230534351145022,0.00418789529576229,-0.0005330356335243984,-0.1294108480869094
1739615315.2849238,0.0,0.0,0.001867477294921871,-0.013666103076171887,0.23013740458015275,0.0042009898793435325,-0.0005316294303998855,-0.12850362048324462
1739615315.2966602,0.0,0.0,0.021021090576171853,-0.018454506396484383,-0.014137404580152557,0.004220637019916072,-0.0005347653414071544,-0.12856072497195956
1739615315.308715,0.0,0.0,-0.0005267243652344877,-0.006483498095703144,-0.10574045801526721,0.004224268290080266,-0.0005370618372547073,-0.12897957138414645
1739615315.3207097,0.0,0.0,0.025809493896484348,-0.018454506396484383,-0.10574045801526721,0.004245000330136544,-0.0005417218682965572,-0.12939840031954108
1739615315.3330657,0.0,0.0,-0.0268629426269531,-0.004089296435546896,-0.10574045801526721,0.004231740111520539,-0.0005416897322542959,-0.12981740063414715
1739615315.3463588,0.0,0.0,-0.01728613598632811,-0.037608119677734364,-0.11337404580152666,0.004224531648116984,-0.0005426090814466086,-0.13026656436233305
1739615315.358595,0.0,0.0,0.04496310717773433,0.005487510205078094,-0.24314503816793898,0.004254641191201625,-0.0005506543653363928,-0.13122803068366465
1739615315.370314,0.0,0.0,0.009050082275390503,0.000699106884765599,0.09273282442748099,0.0042697059410801265,-0.0005515228434552329,-0.13086348938978518
1739615315.3816571,0.0,0.0,-0.06517016918945306,-0.0016950947753906487,1.9858625954198474,0.004282319972486407,-0.0005232006419970748,-0.12302400286327853
1739615315.3931136,0.0,0.0,-0.0268629426269531,-0.008877699755859392,0.07746564885496188,0.004272603321471815,-0.0005209507484520552,-0.12271849736093206
1739615315.40548,0.0,0.0,-0.02925714428710946,-0.008877699755859392,0.01639694656488544,0.0042597875430742714,-0.0005192109893049238,-0.12265407411282227
1739615315.4171333,0.0,0.0,0.06411672045898431,0.015064316845703196,1.9400610687022901,0.0043548438617940395,-0.000502869491175222,-0.1149938506909645
1739615315.4298837,0.0,0.0,0.061722518798828174,0.017458518505859444,0.008763358778625996,0.004400312584315154,-0.0005093717632301378,-0.11495811461445896
1739615315.4416497,0.0,0.0,-0.010103531005859478,-0.037608119677734364,0.01639694656488544,0.004399119974213837,-0.0005093111749239878,-0.11489242112502535
1739615315.4535944,0.0,0.0,0.04735730883789069,-0.14295299272460937,-0.19734351145038187,0.004430306962614615,-0.0005169984544738266,-0.11567052670836028
1739615315.4690967,0.0,0.0,-0.0268629426269531,-0.0016950947753906487,-0.05993893129771011,0.004416433018035417,-0.0005163637713992454,-0.11590641568628496
1739615315.4818923,0.0,0.0,0.04735730883789069,-0.06633853959960934,0.008763358778625996,0.004453001788802453,-0.0005215754279414265,-0.11587089553371757
1739615315.4947386,0.0,0.0,0.013838485595702998,-0.04239652299804686,-0.02940458015267189,0.004466704500575932,-0.0005242388584970547,-0.11598616511315774
1739615315.5082188,0.0,0.0,-0.05080495922851558,0.012670115185546837,-0.11337404580152666,0.004435861646951982,-0.0005221258799929983,-0.11643317087370697
1739615315.5199258,0.0,0.0,0.15988478686523444,0.05337154340820316,-0.09810687022900777,0.004544165202914308,-0.0005387422331585676,-0.11681943307797592
1739615315.533803,0.0,0.0,0.025809493896484348,0.000699106884765599,0.1538015267175572,0.004570729742747908,-0.0005402554134947378,-0.1162114714302622
1739615315.545115,0.0,0.0,-0.005315127685546983,-0.008877699755859392,-0.05230534351145022,0.004571572789973877,-0.0005414977374104287,-0.11641728864694817
1739615315.5574658,0.0,0.0,0.03538630053710934,-0.035213918017578116,0.1538015267175572,0.004604594314104919,-0.0005438627820302435,-0.1158092535578743
1739615315.570555,0.0,0.0,0.009050082275390503,0.027035325146484435,-0.08283969465648844,0.0046142129842242415,-0.0005467779426847361,-0.11613554197328158
1739615315.5821474,0.0,0.0,0.025809493896484348,-0.004089296435546896,-0.2507786259541984,0.004630741806984259,-0.0005532803249422311,-0.11712492507596839
1739615315.5945148,0.0,0.0,-0.0005267243652344877,-0.016060304736328135,-0.15154198473282432,0.004632548833798963,-0.0005562167093999032,-0.11772271642890994
1739615315.608117,0.0,0.0,-0.01728613598632811,0.029429526806640682,-1.861465648854962,0.004579342370912458,-0.000578929359010902,-0.12507197974989073
1739615315.6202798,0.0,0.0,0.030597897216796843,-0.016060304736328135,-0.1744427480916031,0.00460234772106083,-0.0005850289300780426,-0.12576136308196792
1739615315.6332345,0.0,0.0,0.004261678955078008,0.015064316845703196,-0.14390839694656488,0.004608777539800525,-0.0005884069573521498,-0.12633035098165707
1739615315.6448073,0.0,0.0,-0.022074539306640606,0.03900633344726567,-0.2202442748091602,0.004595782156026551,-0.0005903917672981572,-0.12720087913741704
1739615315.6566653,0.0,0.0,0.001867477294921871,0.000699106884765599,-0.10574045801526721,0.004601825907205018,-0.0005931037370026938,-0.12761937146317345
1739615315.6710706,0.0,0.0,-0.0005267243652344877,0.007881711865234342,0.04693129770992366,0.004610344458241643,-0.0005936872165710746,-0.12743512984609065
1739615315.6839085,0.0,0.0,-0.034045547607421955,-0.0016950947753906487,-0.05230534351145022,0.004593861794983747,-0.0005925018143505132,-0.12764274411786522
1739615315.699038,0.0,0.0,0.018626888916015494,0.036612131787109425,-0.06757251908396955,0.004612186610229279,-0.0005962639401110248,-0.12791051319628002
1739615315.7128353,0.0,0.0,-0.0915063874511719,0.005487510205078094,-0.05993893129771011,0.0045570668731647924,-0.0005899810268568107,-0.12814846218675283
1739615315.724978,0.0,0.0,0.025809493896484348,-0.04239652299804686,-0.06757251908396955,0.004580256135787606,-0.0005944007814877243,-0.12841625756707045
1739615315.740205,0.0,0.0,0.009050082275390503,0.024641123486328187,-0.044671755725190776,0.004592884950585622,-0.0005970207969476214,-0.1285937050726163
1739615315.7517145,0.0,0.0,0.04496310717773433,0.017458518505859444,-0.22787786259541964,0.004624782969186537,-0.0006052470398622257,-0.12949440057478703
1739615315.7658265,0.0,0.0,-0.024468740966796965,-0.09267475786132806,0.2683053435114504,0.004623446733789728,-0.0006008390906912736,-0.12843637909382424
1739615315.777346,0.0,0.0,-0.005315127685546983,0.02224692182617194,-0.06757251908396955,0.004625841972292428,-0.0006024611082417727,-0.1287042296313399
1739615315.7886488,0.0,0.0,-0.005315127685546983,0.015064316845703196,-0.3194809160305343,0.004621502606105095,-0.0006073195737015407,-0.12996668149640211
1739615315.79999,0.0,0.0,0.0329920988769532,0.012670115185546837,0.10036641221374043,0.004654432345461589,-0.0006102953435748804,-0.12957158444415612
1739615315.8127499,0.0,0.0,0.004261678955078008,-0.19562542924804682,-0.044671755725190776,0.0046640585207072885,-0.0006125163258748002,-0.12974911668403136
1739615315.825002,0.0,0.0,-0.04122815258789059,-0.035213918017578116,-0.11337404580152666,0.004641123914212809,-0.0006114592241779559,-0.13019802818640366
1739615315.837308,0.0,0.0,-0.0029209260253906244,0.08928456831054687,-0.1744427480916031,0.004642435471045773,-0.0006147021630997734,-0.13088799279761504
1739615315.8502598,0.0,0.0,0.04735730883789069,-0.0016950947753906487,-0.05230534351145022,0.004681171174728139,-0.0006209950812275971,-0.13109569464902623
1739615315.8655646,0.0,0.0,0.0377805021972657,-0.04000232133789061,1.8942595419847328,0.004766426936326237,-0.0006011876304384544,-0.1236182028032722
1739615315.8795736,0.0,0.0,0.009050082275390503,0.017458518505859444,-0.08283969465648844,0.004777447393592291,-0.0006043310723928825,-0.12394537680652393
1739615315.893275,0.0,0.0,0.004261678955078008,0.07970776166992188,-0.14390839694656488,0.004783615039665611,-0.0006078336566656521,-0.12451371324193991
1739615315.9064887,0.0,0.0,0.016232687255859357,-0.06633853959960934,-0.06757251908396955,0.0048000970574851465,-0.0006114545166677874,-0.12478071934326469
1739615315.918049,0.0,0.0,0.021021090576171853,0.000699106884765599,1.9400610687022901,0.004874974702580203,-0.0005893130827196272,-0.1171215014304575
1739615315.9295123,0.0,0.0,-0.0005267243652344877,0.029429526806640682,-0.2736793893129772,0.004873405257050393,-0.0005940465973233159,-0.11820109486363593
1739615315.9418316,0.0,0.0,-0.0029209260253906244,-0.013666103076171887,0.14616793893129776,0.004881931338651299,-0.0005930722323891582,-0.11762329975359716
1739615315.9542563,0.0,0.0,-0.00770932934570312,-0.025637111376953126,1.9629618320610687,0.004937291124363816,-0.0005678094303751076,-0.10987269792675768
1739615315.9676285,0.0,0.0,-0.0029209260253906244,-0.07352114458007808,-0.1210076335877861,0.00493730311705233,-0.0005702977028719275,-0.11034842152046893
1739615315.9815025,0.0,0.0,0.02341529223632799,-0.0016950947753906487,-0.11337404580152666,0.00495563035882909,-0.0005751130027612249,-0.11079402966409178
1739615315.9997964,0.0,0.0,0.016232687255859357,-0.018454506396484383,1.9782290076335878,0.005027225655551804,-0.000551694652718681,-0.10298213116044069
1739615316.0123997,0.0,0.0,0.052145712158203184,-0.013666103076171887,-0.18207633587786254,0.00506240794526829,-0.0005600011312230864,-0.1036977737166113
1739615316.023606,0.0,0.0,-0.005315127685546983,-0.023242909716796878,-0.14390839694656488,0.00505945654777177,-0.0005625361268744608,-0.10426303897267278
1739615316.0351315,0.0,0.0,-0.01968033764648447,0.03421793012695318,-0.15917557251908376,0.005046331016244014,-0.000563971966389871,-0.10488874001228622
1739615316.046735,0.0,0.0,-0.0316513459472656,0.000699106884765599,-0.021770992366412,0.005028920987838949,-0.0005625092408445061,-0.10497213900921995
1739615316.0591753,0.0,0.0,0.028203695556640485,-0.13577038774414063,0.1385343511450381,0.005057196221608324,-0.0005643646173923312,-0.10442253786023109
1739615316.0717783,0.0,0.0,-0.012497732666015615,-0.008877699755859392,-0.05993893129771011,0.0050518765759743406,-0.0005651546117220443,-0.10465655316407392
1739615316.0848432,0.0,0.0,0.004261678955078008,-0.03042551469726562,1.9858625954198474,0.005115670897334158,-0.0005402146412755447,-0.09681395944117006
1739615316.09801,0.0,0.0,0.030597897216796843,-0.04000232133789061,1.9553282442748092,0.00519578620186818,-0.0005179842628441785,-0.08909065720016648
1739615316.1096451,0.0,0.0,-0.0268629426269531,-0.016060304736328135,-0.11337404580152666,0.0051769586405820784,-0.0005181299005247588,-0.08953336289271414
1739615316.1212277,0.0,0.0,0.009050082275390503,-0.0016950947753906487,0.16143511450381687,0.005190817347263922,-0.0005178321895427124,-0.08889118434097101
1739615316.1324377,0.0,0.0,0.001867477294921871,0.005487510205078094,-0.10574045801526721,0.005192146953380835,-0.000520456011047076,-0.0893037570749014
1739615316.143719,0.0,0.0,-0.01728613598632811,0.10125557661132811,-0.06757251908396955,0.005181408682874268,-0.0005208691802681163,-0.08956582593173919
1739615316.155405,0.0,0.0,0.009050082275390503,0.07252515668945314,-0.014137404580152557,0.005190529916300988,-0.0005229002718432397,-0.08961696497333681
1739615316.1675615,0.0,0.0,0.013838485595702998,-0.008877699755859392,-0.2202442748091602,0.0051972140842539835,-0.0005281094109844216,-0.09048182834204377
1739615316.1805036,0.0,0.0,0.061722518798828174,0.027035325146484435,0.04693129770992366,0.005244969176742234,-0.0005339129552839528,-0.09029198615717753
1739615316.1942077,0.0,0.0,0.021021090576171853,-0.04239652299804686,-0.10574045801526721,0.005260186830481556,-0.0005381752003717847,-0.09070500107028613
1739615316.209227,0.0,0.0,-0.014891934326171974,-0.004089296435546896,-0.02940458015267189,0.005252712662242456,-0.000538275521925102,-0.09081687608245669
1739615316.22058,0.0,0.0,-0.005315127685546983,0.017458518505859444,-0.06757251908396955,0.00525088317779473,-0.0005397277523472118,-0.09107947103286178
1739615316.2336543,0.0,0.0,0.001867477294921871,0.005487510205078094,-1.8461984732824426,0.005203362320029427,-0.0005658261945935192,-0.09836373709136614
1739615316.2459319,0.0,0.0,-0.0005267243652344877,0.0653425517089844,-0.09810687022900777,0.005205196226729883,-0.000568134203867147,-0.09874814512955184
1739615316.2597692,0.0,0.0,-0.04122815258789059,0.005487510205078094,-1.792763358778626,0.005130132190875184,-0.0005898885468785995,-0.10582283017967567
1739615316.2725017,0.0,0.0,-0.05080495922851558,-0.0543675312988281,-0.03703816793893133,0.005099638316410208,-0.0005870851634315759,-0.10596753212304409
1739615316.2863874,0.0,0.0,0.025809493896484348,0.07252515668945314,-0.2507786259541984,0.005116655456859027,-0.0005937540831242279,-0.10695584800177779
1739615316.299696,0.0,0.0,0.1527021818847656,0.048583140087890664,0.09273282442748099,0.005232708634291096,-0.0006066310493378665,-0.1065878982177789
1739615316.311576,0.0,0.0,-0.04122815258789059,-0.035213918017578116,-0.128641221374046,0.005206444713071021,-0.0006058916898682082,-0.1070943640008916
1739615316.3264759,0.0,0.0,-0.01968033764648447,-0.18844282426757808,-0.021770992366412,0.005198434742047655,-0.0006055498914577543,-0.10717897315030189
1739615316.3381093,0.0,0.0,0.016232687255859357,-0.03281971635742187,-0.09810687022900777,0.005213482428185519,-0.0006093190953502547,-0.10756485981466896
1739615316.3498752,0.0,0.0,0.025809493896484348,-0.006483498095703144,-0.0065038167938931135,0.005238009087598768,-0.0006126575621396303,-0.10758917584172953
1739615316.3624797,0.0,0.0,-0.00770932934570312,0.04140053510742192,-0.08283969465648844,0.005236767015986452,-0.0006141723969738664,-0.10791494841750862
1739615316.375678,0.0,0.0,0.006655880615234366,0.024641123486328187,-0.03703816793893133,0.005247033651841758,-0.0006162894156205391,-0.10805993667823836
1739615316.3876224,0.0,0.0,-0.010103531005859478,-0.056761732958984346,0.1538015267175572,0.005251051424859703,-0.0006143656375929711,-0.10745164037629781
1739615316.3988771,0.0,0.0,0.004261678955078008,0.017458518505859444,0.054564885496183324,0.00526225407199353,-0.0006150204755330613,-0.10723497100476277
1739615316.4107957,0.0,0.0,-0.014891934326171974,-0.04000232133789061,-0.2889465648854961,0.005249911137544982,-0.0006187472011531235,-0.1083743812566299
1739615316.4227827,0.0,0.0,-0.012497732666015615,-0.02084870805664063,-0.02940458015267189,0.005246969406680294,-0.0006191241053618084,-0.10848940644744444
1739615316.4347475,0.0,0.0,-0.014891934326171974,-0.01127190141601564,-0.05230534351145022,0.005241671348974394,-0.0006196106559968082,-0.10869486873188997
1739615316.4459739,0.0,0.0,-0.005315127685546983,0.02224692182617194,0.01639694656488544,0.005245182682744921,-0.0006199681534874592,-0.10862913942853579
1739615316.4603777,0.0,0.0,-0.034045547607421955,-0.013666103076171887,-0.021770992366412,0.005227175480782974,-0.0006184018823950802,-0.10871415652953811
1739615316.4734912,0.0,0.0,0.016232687255859357,-0.023242909716796878,-0.2049770992366413,0.005239499996037622,-0.0006236327665789531,-0.10952227722186733
1739615316.4865909,0.0,0.0,-0.012497732666015615,-0.016060304736328135,0.04693129770992366,0.005238893765389973,-0.000622952063356395,-0.10933618991392242
1739615316.498983,0.0,0.0,0.025809493896484348,0.012670115185546837,-0.15154198473282432,0.005259697703306582,-0.0006282596866805412,-0.10993345870926961
1739615316.5109103,0.0,0.0,0.013838485595702998,0.0605541483886719,-0.0065038167938931135,0.005276333845253267,-0.0006305502871072796,-0.10995831868859797
1739615316.523202,0.0,0.0,-0.01728613598632811,0.01027591352539059,-0.06757251908396955,0.005269011046817889,-0.0006310314116651493,-0.1102243401863966
1739615316.535358,0.0,0.0,0.009050082275390503,-0.013666103076171887,-0.09047328244274788,0.005279819831697014,-0.0006340674273484844,-0.11058074028013044
1739615316.5469766,0.0,0.0,-0.010103531005859478,-0.10225156450195305,-0.044671755725190776,0.005278348659356333,-0.0006348400209821932,-0.11075645046349447
1739615316.559904,0.0,0.0,0.016232687255859357,0.007881711865234342,-0.11337404580152666,0.005293691513045397,-0.0006388000041841025,-0.11120332425426192
1739615316.5713973,0.0,0.0,0.025809493896484348,0.012670115185546837,-0.16680916030534365,0.0053143935933031555,-0.0006443125543895764,-0.11186117998165843
1739615316.584334,0.0,0.0,-0.0029209260253906244,-0.06155013627929684,-0.24314503816793898,0.005312399924903838,-0.0006484336788515022,-0.11282054784630578
1739615316.5956454,0.0,0.0,0.04496310717773433,-0.006483498095703144,-0.09810687022900777,0.005349107668238594,-0.0006546328499831093,-0.11320741262181759
1739615316.6073067,0.0,0.0,0.030597897216796843,-0.04239652299804686,-0.16680916030534365,0.0053735938507291385,-0.0006605615940246641,-0.11386557239318332
1739615316.620531,0.0,0.0,0.018626888916015494,-0.035213918017578116,-0.03703816793893133,0.005393431547902825,-0.0006636788222596457,-0.11401160380227118
1739615316.6332445,0.0,0.0,0.06411672045898431,-0.018454506396484383,-0.21261068702290076,0.005440816637701975,-0.0006731151487462248,-0.1148505958580745
1739615316.6446164,0.0,0.0,-0.05798756420898443,0.01027591352539059,-0.18207633587786254,0.005401490012189713,-0.0006717051430765934,-0.11556949649674743
1739615316.657068,0.0,0.0,0.040174703857421834,0.03182372846679693,-0.128641221374046,0.005434413069115643,-0.0006779475433815529,-0.11607732438848413
1739615316.6683905,0.0,0.0,0.0377805021972657,0.03421793012695318,-0.06757251908396955,0.005467532144863656,-0.0006831470834999542,-0.11634417077317463
1739615316.679813,0.0,0.0,0.001867477294921871,-0.018454506396484383,1.9400610687022901,0.00553435284108882,-0.0006573706626366361,-0.10868628199512065
1739615316.6916018,0.0,0.0,-0.06038176586914057,0.000699106884765599,-0.05230534351145022,0.005496081430776991,-0.0006539230879064003,-0.10889193406317575
1739615316.7031937,0.0,0.0,0.001867477294921871,-0.008877699755859392,-0.014137404580152557,0.005503857590546443,-0.0006552813531065687,-0.10894680717089926
1739615316.7151616,0.0,0.0,0.0329920988769532,0.01985272016601569,-0.10574045801526721,0.005531419461578785,-0.0006605819036814104,-0.10936320647039312
1739615316.7301483,0.0,0.0,0.04735730883789069,-0.025637111376953126,0.21487022900763364,0.005579023511234193,-0.0006626441783923957,-0.1085140894292586
1739615316.7424114,0.0,0.0,0.021021090576171853,0.02224692182617194,-0.11337404580152666,0.0055977272107345395,-0.0006670223495018311,-0.10896059624119016
1739615316.7540789,0.0,0.0,-0.0029209260253906244,0.007881711865234342,-0.08283969465648844,0.005600094303310018,-0.0006689241408352315,-0.10928671224136859
1739615316.765341,0.0,0.0,0.03538630053710934,-0.035213918017578116,-0.10574045801526721,0.0056296096184312,-0.0006744301356562063,-0.10970318705710994
1739615316.777197,0.0,0.0,0.02341529223632799,0.05576574506835941,-0.14390839694656488,0.005649406275749226,-0.0006794472372620826,-0.11027042250704187
1739615316.7931175,0.0,0.0,0.006655880615234366,0.017458518505859444,-0.11337404580152666,0.005658063748430633,-0.000682604894106537,-0.11071726583918763
1739615316.8049319,0.0,0.0,0.052145712158203184,-0.0016950947753906487,-0.14390839694656488,0.005698956624820992,-0.0006900946500803909,-0.11128459795985107
1739615316.8172567,0.0,0.0,0.052145712158203184,-0.008877699755859392,0.07746564885496188,0.005746668395118441,-0.0006944840298371553,-0.11097820472068279
1739615316.8311052,0.0,0.0,0.07129932543945317,0.02224692182617194,-1.8996335877862596,0.005748724552544279,-0.0007283235719766538,-0.11847579126296043
1739615316.84259,0.0,0.0,0.19579781176757804,0.058159946728515655,0.10036641221374043,0.0059030717545161485,-0.0007447909101305804,-0.11807979344963622
1739615316.8555696,0.0,0.0,-0.0867179841308594,-0.03042551469726562,-0.15154198473282432,0.005843930593773119,-0.0007405544169898061,-0.11867874603346877
1739615316.8680246,0.0,0.0,-0.022074539306640606,0.01985272016601569,-0.14390839694656488,0.0058322067109391924,-0.0007417715035155821,-0.11924749037955794
1739615316.880551,0.0,0.0,0.018626888916015494,0.04140053510742192,1.9782290076335878,0.0059151096485550265,-0.0007164177910824213,-0.11143973637021397
1739615316.8928537,0.0,0.0,0.016232687255859357,0.036612131787109425,-0.1744427480916031,0.005929373628666331,-0.0007213357283029678,-0.11212774472201541
1739615316.905616,0.0,0.0,0.018626888916015494,-0.025637111376953126,1.9553282442748092,0.006010968071320669,-0.0006961598471713746,-0.10440929885835445
1739615316.919083,0.0,0.0,-0.034045547607421955,0.036612131787109425,-0.128641221374046,0.005988857287059938,-0.0006960502471570905,-0.10491553669569274
1739615316.9318378,0.0,0.0,0.0377805021972657,-0.04000232133789061,-0.06757251908396955,0.006021344526097316,-0.0007012764661781895,-0.10518065037017896
1739615316.9480448,0.0,0.0,0.009050082275390503,-0.04239652299804686,-0.0065038167938931135,0.006034775570572891,-0.0007031535918883896,-0.10520484322163914
1739615316.95972,0.0,0.0,-0.005315127685546983,-0.028031313037109373,-0.14390839694656488,0.006033453294055053,-0.0007057652493966567,-0.10577144086224748
1739615316.9712477,0.0,0.0,-0.04122815258789059,-0.16210660600585935,-0.2507786259541984,0.006002529349406071,-0.0007068304136853228,-0.10676005345273368
1739615316.9836357,0.0,0.0,0.059328317138671816,-0.008877699755859392,-0.13627480916030543,0.006049234294879254,-0.0007149179838265211,-0.10729663594763016
1739615316.9953177,0.0,0.0,0.0377805021972657,0.024641123486328187,-0.15917557251908376,0.006079545736852723,-0.0007214877426935594,-0.10792375481010931
1739615317.0080125,0.0,0.0,-0.0005267243652344877,-0.013666103076171887,1.9629618320610687,0.0061483983291534166,-0.000694128919740639,-0.10017484372581065
1739615317.0201805,0.0,0.0,-0.005315127685546983,0.04379473676757817,-0.128641221374046,0.006146948206780384,-0.0006965137776768671,-0.10068043876339643
1739615317.0322163,0.0,0.0,0.009050082275390503,0.005487510205078094,-0.014137404580152557,0.006159818056655687,-0.000698480945239608,-0.10073415006641731
1739615317.0452464,0.0,0.0,-0.014891934326171974,0.012670115185546837,0.054564885496183324,0.006157253732649021,-0.0006973996798732271,-0.10051677770012679
1739615317.0605488,0.0,0.0,0.0377805021972657,0.000699106884765599,1.840824427480916,0.006250202433941135,-0.000674855960411602,-0.09324886510257892
1739615317.0720744,0.0,0.0,-0.012497732666015615,-0.035213918017578116,-0.06757251908396955,0.0062444862295403785,-0.0006757108375129922,-0.09351243519789973
1739615317.0844681,0.0,0.0,0.19579781176757804,0.08449616499023438,-0.09047328244274788,0.006392264665737974,-0.0006946437499257789,-0.0938659928080073
1739615317.097143,0.0,0.0,0.049751510498046825,0.048583140087890664,-0.2889465648854961,0.006425901729717233,-0.0007040034204497297,-0.09500334997349273
1739615317.1099885,0.0,0.0,-0.06995857250976556,-0.006483498095703144,-0.09047328244274788,0.006377457167481738,-0.0007003132363843299,-0.09535782189297352
1739615317.1218195,0.0,0.0,0.021021090576171853,-0.07830954790039057,-0.26604580152671775,0.006390891706385995,-0.0007069321382684305,-0.09640515006374159
1739615317.1353626,0.0,0.0,0.19579781176757804,-0.004089296435546896,1.9705954198473283,0.006606429016759962,-0.0006953996407777294,-0.0886243682569392
1739615317.1489532,0.0,0.0,-0.0316513459472656,0.029429526806640682,-0.2965801526717555,0.0065789497523699465,-0.000697946583210777,-0.08979133029757379
1739615317.1619186,0.0,0.0,-0.01728613598632811,0.04379473676757817,-0.22787786259541964,0.006564592123745423,-0.000700727683491748,-0.09068731979241054
1739615317.1750207,0.0,0.0,-0.04841075756835944,0.03421793012695318,-0.2202442748091602,0.006527508381047255,-0.0007008196874527252,-0.0915534273930533
1739615317.1895206,0.0,0.0,-0.0005267243652344877,-0.03042551469726562,-0.128641221374046,0.006529222399133449,-0.0007035882972297645,-0.09205805134008287
1739615317.2014241,0.0,0.0,-0.010103531005859478,0.04140053510742192,1.9553282442748092,0.006592341678251959,-0.0006745031291756269,-0.08433762472501767
1739615317.2148838,0.0,0.0,-0.010103531005859478,0.03900633344726567,-0.09047328244274788,0.006587154692518455,-0.0006758631727311642,-0.08469056149325721
1739615317.2276351,0.0,0.0,-0.0316513459472656,-0.047184926318359355,-0.25841221374045786,0.006560463734942271,-0.0006779678559570527,-0.08570647991312208
1739615317.2431808,0.0,0.0,0.021021090576171853,0.10364977827148436,0.2377709923664122,0.006589727845536435,-0.0006770075648274498,-0.0847641302885226
1739615317.2547762,0.0,0.0,0.030597897216796843,0.01027591352539059,-0.044671755725190776,0.0066167586263936,-0.0006810542046190824,-0.0849364157654077
1739615317.2663798,0.0,0.0,0.018626888916015494,0.000699106884765599,0.039297709923664215,0.006637768667667844,-0.0006828430091742145,-0.08477738913152406
1739615317.2799919,0.0,0.0,0.011444283935546862,0.058159946728515655,-0.05230534351145022,0.006650428835529393,-0.000685416366772011,-0.0849799393959146
1739615317.2942967,0.0,0.0,0.016232687255859357,0.005487510205078094,-0.22787786259541964,0.006660930919706051,-0.0006910320577105025,-0.08587550489020568
1739615317.3068993,0.0,0.0,0.011444283935546862,-0.0016950947753906487,-0.014137404580152557,0.006675233278569097,-0.0006930289437906948,-0.08592767720937204
1739615317.318424,0.0,0.0,-0.014891934326171974,0.01985272016601569,-0.1210076335877861,0.006666275369449543,-0.0006945144982719461,-0.08640174631604479
1739615317.3327785,0.0,0.0,-0.012497732666015615,0.007881711865234342,-0.2202442748091602,0.006655896305800858,-0.000697717386010367,-0.08726758665473358
1739615317.3471508,0.0,0.0,0.04256890551757819,-0.023242909716796878,0.0011297709923663302,0.006694572620946779,-0.0007019960130540862,-0.08725978291445617
1739615317.3602445,0.0,0.0,0.025809493896484348,-0.047184926318359355,0.0011297709923663302,0.006720761448913528,-0.0007049131325589305,-0.08725205133727586
1739615317.374197,0.0,0.0,-0.0029209260253906244,-0.03281971635742187,-0.09810687022900777,0.0067220516233156774,-0.0007070394621080607,-0.08763607245669461
1739615317.3881433,0.0,0.0,0.03538630053710934,0.01027591352539059,-0.06757251908396955,0.006753366767430971,-0.0007117642792845588,-0.08789960398767768
1739615317.400472,0.0,0.0,0.028203695556640485,0.007881711865234342,0.03166412213740455,0.0067828043264733726,-0.000714385655971246,-0.08777157187609883
1739615317.4138262,0.0,0.0,-0.0268629426269531,0.015064316845703196,-0.18207633587786254,0.006763459470089296,-0.0007159096888583093,-0.0884872249421464
1739615317.425458,0.0,0.0,-0.012497732666015615,-0.006483498095703144,-0.075206106870229,0.00675877056557988,-0.0007169470930399954,-0.08878121402430318
1739615317.4369786,0.0,0.0,0.018626888916015494,-0.02084870805664063,-0.05993893129771011,0.0067782205353497,-0.0007202205221760072,-0.08901496729700366
1739615317.4503145,0.0,0.0,-0.0029209260253906244,-0.013666103076171887,-0.05993893129771011,0.006781492722501991,-0.0007217911365035325,-0.08924882930150897
1739615317.4643836,0.0,0.0,0.0329920988769532,0.02224692182617194,-0.044671755725190776,0.006812564582352919,-0.0007259601340041242,-0.08942243754990943
1739615317.477413,0.0,0.0,0.006655880615234366,-0.03042551469726562,-0.06757251908396955,0.006823020427126374,-0.0007284072788762473,-0.08968653210979236
1739615317.4955559,0.0,0.0,-0.0005267243652344877,0.005487510205078094,-0.0065038167938931135,0.006830260682728648,-0.0007293436655715574,-0.08970969712670843
1739615317.50824,0.0,0.0,0.040174703857421834,0.007881711865234342,-0.06757251908396955,0.006866307970757994,-0.0007344230852191193,-0.08997383253284667
1739615317.5205421,0.0,0.0,-0.024468740966796965,-0.004089296435546896,1.9705954198473283,0.006924591564379321,-0.0007026145775124242,-0.08219441971620077
1739615317.5332158,0.0,0.0,0.004261678955078008,0.03421793012695318,-1.9149007633587785,0.006867634713513337,-0.0007337228833869528,-0.08974804503189426
1739615317.5475967,0.0,0.0,-0.01728613598632811,0.03900633344726567,-0.2889465648854961,0.006852499995514551,-0.0007377804575570717,-0.09088604097824995
1739615317.558957,0.0,0.0,-0.01728613598632811,-0.035213918017578116,-0.4034503816793895,0.0068335411598440905,-0.0007436545733786555,-0.09247612663791807
1739615317.5713174,0.0,0.0,-0.05080495922851558,-0.03281971635742187,1.9782290076335878,0.006873204331566773,-0.0007095118877162333,-0.08466725678304517
1739615317.582954,0.0,0.0,0.0329920988769532,-0.01127190141601564,-0.0065038167938931135,0.006905487088841434,-0.0007130295156448141,-0.08468977592806393
1739615317.595615,0.0,0.0,0.011444283935546862,0.012670115185546837,-0.03703816793893133,0.006920358778003043,-0.0007153486699329974,-0.0848328742620661
1739615317.6087866,0.0,0.0,0.006655880615234366,-0.07112694291992183,-1.8920000000000001,0.006866011272286577,-0.0007465684854737027,-0.09229654754519652
1739615317.6212473,0.0,0.0,-0.06277596752929693,0.027035325146484435,-0.19734351145038187,0.0068199330115756625,-0.0007457397500018844,-0.09307365884090492
1739615317.6334934,0.0,0.0,0.025809493896484348,-0.03281971635742187,-0.03703816793893133,0.006847303463394885,-0.0007492071171065168,-0.09321813342358073
1739615317.646122,0.0,0.0,0.009050082275390503,-0.047184926318359355,-0.18207633587786254,0.006856780792614762,-0.0007536801886257012,-0.09393505376041221
1739615317.6574566,0.0,0.0,-0.04122815258789059,-0.004089296435546896,0.09273282442748099,0.0068377270247193915,-0.0007499358051227588,-0.09356767449819449
1739615317.670267,0.0,0.0,0.004261678955078008,-0.0495791279785156,0.29883969465648863,0.0068607656287348285,-0.0007464132421809202,-0.09238680924152254
1739615317.6827986,0.0,0.0,0.05693411547851568,0.027035325146484435,-0.15154198473282432,0.006907916178063723,-0.0007540776301037035,-0.09298306861557208
1739615317.6950467,0.0,0.0,-0.03643974926757809,0.04140053510742192,-0.014137404580152557,0.006888576177266623,-0.0007523927233504013,-0.09303733108065372
1739615317.7086139,0.0,0.0,-0.03643974926757809,-0.03042551469726562,-0.03703816793893133,0.006868406840016866,-0.0007510751035625588,-0.09318199074283406
1739615317.7228882,0.0,0.0,0.013838485595702998,-0.013666103076171887,0.06983206106870221,0.006890663820181964,-0.0007519076384855045,-0.09290487214437182
1739615317.7343547,0.0,0.0,0.03538630053710934,0.03900633344726567,-0.33474809160305363,0.006914947667063429,-0.0007608366179189342,-0.09422429138714987
1739615317.746535,0.0,0.0,0.018626888916015494,-0.03281971635742187,-0.014137404580152557,0.006938124892524876,-0.0007633707135481856,-0.09427873221473708
1739615317.7582264,0.0,0.0,-0.07714117749023441,-0.004089296435546896,-0.18970992366412198,0.006881364226350505,-0.000761384078060161,-0.09502618190608782
1739615317.7706811,0.0,0.0,-0.0029209260253906244,-0.025637111376953126,-0.03703816793893133,0.006887276237301147,-0.0007626365657284872,-0.09517117457408543
1739615317.7830212,0.0,0.0,-0.01728613598632811,-0.013666103076171887,-0.1210076335877861,0.006879122325828489,-0.0007641328117108968,-0.09564758305362862
1739615317.7944002,0.0,0.0,-0.014891934326171974,-0.004089296435546896,-0.15154198473282432,0.006871772780487142,-0.0007663007727659022,-0.09624456670725923
1739615317.810366,0.0,0.0,0.030597897216796843,0.000699106884765599,-0.075206106870229,0.006902340641286367,-0.0007707231979903852,-0.09654035541022694
1739615317.821887,0.0,0.0,-0.022074539306640606,0.036612131787109425,-0.2202442748091602,0.006887098157939732,-0.0007734423513891496,-0.09740861379877853
1739615317.8342052,0.0,0.0,-0.0316513459472656,-0.07352114458007808,-0.10574045801526721,0.006868704876985346,-0.0007735935731474658,-0.09782517079527032
1739615317.8463287,0.0,0.0,-0.010103531005859478,-0.025637111376953126,-0.0065038167938931135,0.006870571051591228,-0.0007737985707651977,-0.09785016579688952
1739615317.857642,0.0,0.0,-0.0029209260253906244,0.04140053510742192,-0.2049770992366413,0.006870800388325991,-0.0007777336279140982,-0.0986583660215169
1739615317.8701653,0.0,0.0,-0.010103531005859478,0.03182372846679693,0.024030534351145105,0.006873858448905388,-0.0007774429088399515,-0.0985630077813684
1739615317.8820264,0.0,0.0,-0.01968033764648447,-0.0016950947753906487,-0.05993893129771011,0.006866418713481215,-0.0007777621689876256,-0.09879900247797106
1739615317.8934736,0.0,0.0,0.006655880615234366,-0.006483498095703144,-0.2889465648854961,0.006871106580494072,-0.0007837708201390253,-0.09993869451493555
1739615317.9060469,0.0,0.0,0.018626888916015494,-0.004089296435546896,-1.907267175572519,0.006826769746032402,-0.0008166704771217859,-0.10746459221465483
1739615317.9175632,0.0,0.0,0.02341529223632799,-0.006483498095703144,-0.10574045801526721,0.006852504071814138,-0.0008210332594024193,-0.10788267220845907
1739615317.9296992,0.0,0.0,-0.00770932934570312,0.027035325146484435,-0.16680916030534365,0.0068519173185728815,-0.0008239874246317586,-0.10854181646702325
1739615317.9435952,0.0,0.0,0.013838485595702998,-0.016060304736328135,0.054564885496183324,0.006876132955647773,-0.0008250494994247697,-0.1083274701003058
1739615317.9550679,0.0,0.0,0.03538630053710934,-0.04479072465820311,1.909526717557252,0.006984134238008582,-0.0007979907294206679,-0.10079330908354014
1739615317.9698877,0.0,0.0,0.021021090576171853,0.015064316845703196,-0.08283969465648844,0.007007620391801332,-0.000801817293626183,-0.10111991385497947
1739615317.9824333,0.0,0.0,0.049751510498046825,-0.0495791279785156,-0.0065038167938931135,0.007056286868908976,-0.0008066470284657394,-0.10114531804680697
1739615317.9944406,0.0,0.0,-0.03883395092773445,0.027035325146484435,-0.14390839694656488,0.007031024789230514,-0.0008068171305506062,-0.10171301161455357
1739615318.0062642,0.0,0.0,0.028203695556640485,0.04140053510742192,-0.075206106870229,0.007060529837936588,-0.0008110847021247509,-0.10200962657113039
1739615318.018705,0.0,0.0,-0.022074539306640606,0.024641123486328187,-0.1744427480916031,0.007047288070445575,-0.000813043754194529,-0.10269791776797729
1739615318.03025,0.0,0.0,-0.012497732666015615,0.029429526806640682,0.21487022900763364,0.007055715282104708,-0.0008094789645598018,-0.10185009233233833
1739615318.041582,0.0,0.0,-0.05798756420898443,0.007881711865234342,0.008763358778625996,0.007020967441016507,-0.0008056821574857341,-0.10181545906231029
1739615318.0534549,0.0,0.0,-0.0005267243652344877,0.04379473676757817,0.04693129770992366,0.007032401876971402,-0.0008057421154144812,-0.10163015617909527
1739615318.0656216,0.0,0.0,-0.005315127685546983,-0.013666103076171887,0.0011297709923663302,0.007038367063130425,-0.000806163164299483,-0.10162555544958266
1739615318.0808785,0.0,0.0,-0.0005267243652344877,-0.016060304736328135,-1.8690992366412214,0.00698014766578553,-0.0008370644229723835,-0.10900067198524958
1739615318.0938277,0.0,0.0,0.004261678955078008,0.000699106884765599,-0.09047328244274788,0.0069914452191942355,-0.0008397049489055901,-0.10935866788484748
1739615318.105374,0.0,0.0,-0.022074539306640606,0.005487510205078094,-0.03703816793893133,0.006984070765596571,-0.0008394192497018295,-0.10950587648550493
1739615318.1185024,0.0,0.0,0.03538630053710934,-0.047184926318359355,-0.21261068702290076,0.007015300125276564,-0.0008464732087644897,-0.11034582429001984
1739615318.1304336,0.0,0.0,0.02341529223632799,-0.02084870805664063,-0.19734351145038187,0.007037820212732557,-0.000852350807189996,-0.11112565219213343
1739615318.1452787,0.0,0.0,0.05693411547851568,0.01985272016601569,-1.8690992366412214,0.007026043391416407,-0.0008877976387340902,-0.11850200860581248
1739615318.1614604,0.0,0.0,0.018626888916015494,-0.03281971635742187,1.8789923664122137,0.0071215483443550845,-0.0008599089661939807,-0.11109024557782371
1739615318.1729023,0.0,0.0,0.0377805021972657,0.08449616499023438,-0.2507786259541984,0.007153451791982096,-0.0008678356659725223,-0.11208094144735725
1739615318.1843822,0.0,0.0,-0.05319916088867194,0.015064316845703196,-0.14390839694656488,0.007117895919682405,-0.0008668008718014571,-0.1126501549467374
1739615318.1984015,0.0,0.0,-0.005315127685546983,0.046188938427734416,0.06219847328244277,0.007127492148589931,-0.0008662567732161536,-0.11240614541894801
1739615318.2123764,0.0,0.0,0.004261678955078008,-0.004089296435546896,-0.3958167938931296,0.007127860724800383,-0.0008738607792684635,-0.11396928544204794
1739615318.2252128,0.0,0.0,-0.00770932934570312,0.015064316845703196,1.9400610687022901,0.007204061998191221,-0.0008428601117951727,-0.10631587791367603
1739615318.2384696,0.0,0.0,-0.014891934326171974,-0.013666103076171887,-0.03703816793893133,0.007201284452029782,-0.0008431392981191536,-0.10646237732963525
1739615318.25118,0.0,0.0,-0.07953537915039055,0.09407297163085937,-0.18207633587786254,0.007142244091162416,-0.000840536384978716,-0.10718121816670112
1739615318.2640224,0.0,0.0,0.009050082275390503,0.015064316845703196,-0.10574045801526721,0.007155852148189999,-0.0008438390427987967,-0.10759889512495892
1739615318.2773268,0.0,0.0,-0.043622354248046946,-0.028031313037109373,-0.25841221374045786,0.007122366849893229,-0.0008453378998837999,-0.10861906019039523
1739615318.2888947,0.0,0.0,-0.022074539306640606,-0.016060304736328135,-0.19734351145038187,0.007108198186871052,-0.0008475832827308065,-0.10939839739399602
1739615318.3016503,0.0,0.0,-0.014891934326171974,0.027035325146484435,-1.8232977099236642,0.007040643490767203,-0.00087656545335157,-0.11659330460294784
1739615318.3140695,0.0,0.0,0.04735730883789069,-0.04000232133789061,-0.044671755725190776,0.007088085479724823,-0.0008819756740265758,-0.11677142080142308
1739615318.3255045,0.0,0.0,0.001867477294921871,-0.09267475786132806,-0.15917557251908376,0.007095384290397204,-0.0008855335845547227,-0.11740135887114195
1739615318.3377469,0.0,0.0,-0.0005267243652344877,-0.03042551469726562,0.0011297709923663302,0.007106641355530811,-0.0008863199257903961,-0.11739886177662476
1739615318.3490913,0.0,0.0,-0.06995857250976556,0.036612131787109425,-0.18207633587786254,0.007056191717997408,-0.000884338801427956,-0.11811924345484752
1739615318.3611553,0.0,0.0,0.004261678955078008,0.005487510205078094,-1.8538320610687025,0.007003908521553947,-0.0009152748024309717,-0.12543573290518095
1739615318.3743465,0.0,0.0,-0.01968033764648447,-0.02084870805664063,0.07746564885496188,0.007003796524412579,-0.0009132167631057624,-0.1251332302475783
1739615318.3857715,0.0,0.0,-0.010103531005859478,0.029429526806640682,-0.03703816793893133,0.0070069596441957515,-0.0009137829206222942,-0.12528241251241368
1739615318.3988144,0.0,0.0,0.05693411547851568,-0.03281971635742187,-0.05993893129771011,0.007062406259634879,-0.0009203170891190343,-0.12552188350304255
1739615318.4109821,0.0,0.0,0.0329920988769532,0.027035325146484435,-1.861465648854962,0.007033708804517154,-0.0009537155707231289,-0.1328693776410101
1739615318.4229736,0.0,0.0,0.04256890551757819,-0.01127190141601564,-0.06757251908396955,0.007078608205266203,-0.0009592333762071624,-0.13314007932098568
1739615318.4357853,0.0,0.0,-0.012497732666015615,-0.023242909716796878,-0.22787786259541964,0.007073921408439576,-0.0009626857347620852,-0.13404329135460097
1739615318.4477026,0.0,0.0,0.016232687255859357,-0.004089296435546896,-0.06757251908396955,0.007097907135645123,-0.0009660214273646694,-0.1343140771093798
1739615318.4602692,0.0,0.0,0.016232687255859357,0.03900633344726567,-0.14390839694656488,0.007119088823044863,-0.0009705988472542173,-0.1348860282104913
1739615318.4738493,0.0,0.0,0.04256890551757819,-0.025637111376953126,-0.1744427480916031,0.007160138043349537,-0.0009779579077359853,-0.1355784619675582
1739615318.4855008,0.0,0.0,-0.01968033764648447,0.10364977827148436,-0.18207633587786254,0.007151380795386909,-0.0009800854173218159,-0.13630110511185559
1739615318.4997385,0.0,0.0,0.04256890551757819,0.10125557661132811,-0.2202442748091602,0.00719085154839602,-0.0009882403335157509,-0.137174344096775
1739615318.5110722,0.0,0.0,0.011444283935546862,0.000699106884765599,-0.08283969465648844,0.007210550557773913,-0.0009915199606458992,-0.13750555523385263
1739615318.5234966,0.0,0.0,0.025809493896484348,0.017458518505859444,-0.10574045801526721,0.00724084790552481,-0.0009964511215303797,-0.13792709758478114
1739615318.535906,0.0,0.0,0.025809493896484348,0.000699106884765599,-0.35764885496183196,0.007262033224434034,-0.0010054367665067057,-0.1393425287903388
1739615318.5488024,0.0,0.0,-0.0005267243652344877,0.01027591352539059,-0.09047328244274788,0.007272009775720562,-0.0010078437658367597,-0.13970401622029244
1739615318.5612395,0.0,0.0,-0.0316513459472656,0.024641123486328187,-1.7851297709923666,0.007195751694325553,-0.0010345252086126524,-0.146751626855907
1739615318.572884,0.0,0.0,0.028203695556640485,0.05097734174804691,0.008763358778625996,0.007233283805730125,-0.0010379427019717752,-0.14672259674391472
1739615318.5845463,0.0,0.0,-0.0029209260253906244,-0.06873274125976558,0.1080000000000001,0.0072494308406181795,-0.001036993100963787,-0.14630198192615235
1739615318.5980692,0.0,0.0,-0.024468740966796965,-0.04239652299804686,-0.18207633587786254,0.007237650175548526,-0.0010387127248556473,-0.14702570161362807
1739615318.609438,0.0,0.0,0.004261678955078008,0.029429526806640682,-0.1210076335877861,0.007251066664300295,-0.001042081703348545,-0.14750849560416615
1739615318.622057,0.0,0.0,0.049751510498046825,0.005487510205078094,-1.861465648854962,0.007237770738681928,-0.001077455141343302,-0.1548579581040424
1739615318.6365647,0.0,0.0,-0.04841075756835944,0.000699106884765599,-0.014137404580152557,0.007213939765327467,-0.0010742716331606035,-0.1549202349980096
1739615318.6514988,0.0,0.0,0.013838485595702998,-0.004089296435546896,-0.2889465648854961,0.007229877591279647,-0.001081265176000755,-0.1560665865771024
1739615318.6628923,0.0,0.0,0.059328317138671816,0.000699106884765599,-1.8843664122137402,0.00722443545994437,-0.001118051401784182,-0.1635074097838011
1739615318.6739051,0.0,0.0,-0.00770932934570312,0.017458518505859444,-0.2736793893129772,0.00722481228173395,-0.0011228496546893292,-0.16459470856640515
1739615318.685052,0.0,0.0,0.030597897216796843,0.012670115185546837,-0.03703816793893133,0.007264567710921939,-0.0011275549148564343,-0.16474841391834827
1739615318.6963923,0.0,0.0,0.028203695556640485,0.03182372846679693,-0.2202442748091602,0.007295649300812072,-0.0011350161626981102,-0.1656248360859025
1739615318.707782,0.0,0.0,0.018626888916015494,0.000699106884765599,-0.2202442748091602,0.007319066479219215,-0.0011416033911978401,-0.16650129650512246
1739615318.719422,0.0,0.0,0.025809493896484348,0.0030933085449218467,-0.24314503816793898,0.0073474436984930684,-0.001149309288253482,-0.16746812635394506
1739615318.7314773,0.0,0.0,-0.024468740966796965,-0.035213918017578116,-0.16680916030534365,0.007338229346351296,-0.001150869454694664,-0.16813389059983705
1739615318.743096,0.0,0.0,-0.00770932934570312,0.036612131787109425,0.18433587786259542,0.007355281766374111,-0.0011484700220059508,-0.16741428489602017
1739615318.7561255,0.0,0.0,0.006655880615234366,-0.056761732958984346,-0.08283969465648844,0.007373880941385015,-0.0011517904534259998,-0.16774850999508792
1739615318.77154,0.0,0.0,0.016232687255859357,0.01027591352539059,0.06219847328244277,0.00740542836305784,-0.0011537879851385244,-0.1675104644358633
1739615318.7845116,0.0,0.0,0.03538630053710934,0.02224692182617194,1.9324274809160304,0.007520755850375276,-0.00112786114611327,-0.1598938372573871
1739615318.7965164,0.0,0.0,0.018626888916015494,-0.013666103076171887,-0.21261068702290076,0.007542683674726926,-0.001134575682964336,-0.16073851850319107
1739615318.808883,0.0,0.0,-0.00770932934570312,-0.013666103076171887,1.9324274809160304,0.007622161558170043,-0.0011042642814516463,-0.15312074031680223
