timestamp,gps_lat,gps_lng,imu_accel_x,imu_accel_y,imu_gyro_z,estimated_x,estimated_y,estimated_heading
1740927281.4513068,None,None,-0.04647624262695316,0.01760217060546876,-0.10519083969465637,0.0,0.0,-0.00038250658061212333
1740927281.4638534,None,None,-0.07999506586914062,-0.16914555888671873,0.09328244274809161,-9.745919160857903e-07,1.4437444655089015e-10,-4.542530213469062e-05
1740927281.480888,None,None,0.006196193896484514,-0.09731950908203124,0.03984732824427484,-2.077060381763418e-06,-1.2141357282848639e-10,0.00010806218466273712
1740927281.492917,None,None,0.027744008837890632,-0.003945644335937526,-1.8532824427480916,-1.0333777582912664e-06,1.4950648104736964e-08,-0.007121597304719566
1740927281.5057971,None,None,0.03253241215820313,-0.12126152568359377,-0.2120610687022899,-1.3044258986745828e-06,1.846839290567325e-08,-0.007988443110777153
1740927281.517173,None,None,0.013378798876953146,-0.03028186259765625,0.352824427480916,-2.0833334085651854e-06,1.4228273849219524e-08,-0.006627671299783637
1740927281.5321162,None,None,-0.036899435986328166,-0.008734047656250021,0.20778625954198482,-4.251676882613431e-06,2.003532780383457e-08,-0.0058246977913418395
1740927281.555895,None,None,-0.022534226025390458,0.10618763203124998,-0.1815267175572517,-6.047451172598408e-06,2.996937345519684e-08,-0.00655216011858463
1740927281.5679913,None,None,0.020561403857422,-0.003945644335937526,1.9406106870229007,-7.796697491822387e-06,-2.7910846825095444e-09,0.001110635434208836
1740927281.5858355,None,None,-0.024928427685546817,0.04393838886718748,-0.22732824427480924,-9.781635588997384e-06,3.828208024206526e-09,0.00021232215170900281
1740927281.602323,None,None,0.020561403857422,-0.152386147265625,0.15435114503816805,-9.785946076799615e-06,-5.593486166534273e-09,0.0008239289862893435
1740927281.6176662,None,None,0.013378798876953146,0.024784775585937502,0.04748091603053428,-9.844263093434733e-06,-1.064716642161443e-08,0.0010128381732894282
1740927281.6379683,None,None,-0.012957419384765467,0.12773544697265624,0.02458015267175595,-1.1530565053470568e-05,-1.1157204352715842e-08,0.0011110698210150287
1740927281.657772,None,None,-0.0009864110839843399,0.10858183369140623,0.05511450381679395,-1.2538011738867585e-05,-1.4115767751213146e-08,0.0013304608105080477
1740927281.679823,None,None,0.022955605517578137,-0.003945644335937526,-1.7922137404580152,-1.0138251441282729e-05,3.392022591673863e-08,-0.005782384477970354
1740927281.6963902,None,None,-0.015351621044921826,0.022390573925781254,-0.15862595419847336,-1.2112076748657709e-05,4.340361264787298e-08,-0.006415073613054364
1740927281.7129784,None,None,0.008590395556640651,0.0008427589843749694,-0.005954198473282268,-1.2244883429393024e-05,4.602215840616523e-08,-0.006441583225404711
1740927281.7352855,None,None,0.01816720219726564,0.041544187207031236,-1.8303816793893128,-9.921086110025225e-06,1.030760805705185e-07,-0.013715644954604096
1740927281.7592487,None,None,-0.02014002436523432,0.03914998554687499,-0.03648854961832049,-1.2688255183196288e-05,1.1808030338096074e-07,-0.01386573994831696
1740927281.7719607,None,None,-0.07760086420898427,-0.008734047656250021,0.21541984732824426,-2.214866524893779e-05,1.666518822257741e-07,-0.01301436259673714
1740927281.7900069,None,None,0.04450342045898448,0.03914998554687499,-0.19679389312977102,-1.8660632508782764e-05,1.6061550063066595e-07,-0.01380071678966077
1740927281.8165648,None,None,-0.015351621044921826,-0.006339845996093774,0.032213740458015394,-2.1768938916253308e-05,1.8522576201482795e-07,-0.01367672509752753
1740927281.8342278,None,None,-0.029716831005859312,-0.02070505595703126,-0.1815267175572517,-2.6716853035280314e-05,2.3815314787642767e-07,-0.014402229421228646
1740927281.858766,None,None,-0.029716831005859312,0.010419565625000016,-0.08229007633587804,-3.2209375687093254e-05,2.9617726414378683e-07,-0.014733173583353888
1740927281.8833494,None,None,-0.017745822705077963,0.041544187207031236,-0.1204580152671757,-3.652214501170588e-05,3.5028950981400016e-07,-0.015215797419559017
1740927281.8992488,None,None,-0.022534226025390458,0.0008427589843749694,-0.013587786259542156,-4.188278994353967e-05,4.103144885086488e-07,-0.015273356739015554
1740927281.9161124,None,None,-0.0440820409667968,-0.152386147265625,-0.2654961832061069,-5.045088907648577e-05,5.285785896920546e-07,-0.016332657567850333
1740927281.928216,None,None,0.006196193896484514,0.0008427589843749694,-0.11282442748091581,-5.234065622762992e-05,5.676517343146711e-07,-0.016784837672124846
1740927281.941707,None,None,0.0038019922363281555,0.10139922871093748,-0.05938931297709926,-5.457869990781437e-05,6.048145851131529e-07,-0.017024430712302342
1740927281.953568,None,None,0.0014077905761720189,-0.16196295390624998,0.06274809160305339,-5.730325705411186e-05,6.32326635306589e-07,-0.0167780953566383
1740927281.968152,None,None,-0.036899435986328166,-0.12604992900390627,1.9406106870229007,-6.878064645460655e-05,5.211617013365329e-07,-0.009061515026154663
1740927281.9848757,None,None,0.025349807177734496,0.02717897724609375,0.032213740458015394,-6.767568285020947e-05,4.774368192494969e-07,-0.008934899192381303
1740927282.0058014,None,None,-0.0033806127441404765,0.029573178906249997,-0.05175572519083982,-7.110047703938642e-05,5.031064672567333e-07,-0.009142244422935712
1740927282.0202382,None,None,-0.01056321772460933,-0.03028186259765625,-1.7998473282442746,-7.329745562326764e-05,7.96225352739943e-07,-0.016303834246749582
1740927282.0324621,None,None,0.022955605517578137,-0.006339845996093774,0.05511450381679395,-7.229448631842665e-05,7.725361656945992e-07,-0.01608718393562274
1740927282.0458372,None,None,-0.008169016064452972,-0.013522450976562517,0.13145038167938927,-7.697496922864473e-05,8.017489893617229e-07,-0.015566730892795113
1740927282.0747418,None,None,0.022955605517578137,0.008025363964843768,-1.6319083969465646,-7.291629719707934e-05,1.049030838581083e-06,-0.02206122579922975
1740927282.0959249,None,None,0.034926613818359487,0.07266880878906248,0.10091603053435128,-6.898036348379723e-05,9.804046347887842e-07,-0.021663045029890034
1740927282.1097975,None,None,-0.029716831005859312,0.015207968945312511,2.001679389312977,-8.080719778562128e-05,7.405917053408353e-07,-0.013703039506519143
1740927282.137888,None,None,0.020561403857422,-0.03985866923828124,1.7497709923664122,-8.210407086494672e-05,3.7722742857505764e-07,-0.006743962727266423
1740927282.1514797,None,None,0.04929182377929697,-0.006339845996093774,-0.1357251908396946,-7.378663514953046e-05,2.620885210370692e-07,-0.007284674656384718
1740927282.1653955,None,None,0.013378798876953146,-0.013522450976562517,1.971145038167939,-7.605212843898216e-05,-1.4984805982852907e-07,0.0005558806783352377
1740927282.1805918,None,None,0.022955605517578137,-0.018310854296875012,2.024580152671756,-7.595814794243025e-05,-6.075319347259129e-07,0.008610008726031553
1740927282.1929338,None,None,0.03253241215820313,0.010419565625000016,-0.05938931297709926,-6.98910697593161e-05,-6.892175749338184e-07,0.008375190871254481
1740927282.2143304,None,None,0.015773000537109505,0.1253412453125,-0.04412213740457993,-6.72800174963521e-05,-7.222488600467231e-07,0.008201045808617717
1740927282.2308197,None,None,0.03732081547851562,0.07506301044921873,-0.18916030534351158,-5.913166687060763e-05,-7.650566301091139e-07,0.007449924949352674
1740927282.2427328,None,None,0.027744008837890632,-0.04464707255859374,-0.12809160305343514,-5.287016420100878e-05,-7.891123171771917e-07,0.006941606736923083
1740927282.254755,None,None,-0.024928427685546817,-0.003945644335937526,-0.14335877862595403,-5.914482633373142e-05,-7.17541400952598e-07,0.006372485725616995
1740927282.2691107,None,None,0.0038019922363281555,0.03675578388671874,0.0016793893129771753,-5.880500650577593e-05,-7.212877464902467e-07,0.0063801674980459395
1740927282.295687,None,None,-0.024928427685546817,-0.006339845996093774,-0.14335877862595403,-6.553198668606957e-05,-6.62875613817436e-07,0.005810967651736321
1740927282.3095977,None,None,0.03732081547851562,-0.006339845996093774,-0.04412213740457993,-5.664681889497908e-05,-6.99528691479283e-07,0.0056363797079114295
1740927282.322099,None,None,-0.01056321772460933,0.015207968945312511,-1.8227480916030534,-5.761923933870069e-05,-3.940125867221436e-07,-0.0016119715457451793
1740927282.341933,None,None,-0.005774814404296835,0.003236960644531217,0.04748091603053428,-5.984593263524687e-05,-3.953203388988814e-07,-0.0014232157200731218
1740927282.3536868,None,None,-0.04647624262695316,0.12773544697265624,-0.0212213740458016,-7.311643095168804e-05,-3.461522531488479e-07,-0.0015076572700771559
1740927282.3652866,None,None,0.01816720219726564,-0.06619488750000002,0.016946564885496063,-6.926406203655659e-05,-3.656316757521349e-07,-0.0014403244908261753
1740927282.3770463,None,None,0.07083963872070309,0.051120993847656226,-0.35709923664122156,-5.0011070748685006e-05,-3.773337061830643e-07,-0.002860385294365468
1740927282.3891609,None,None,0.027744008837890632,0.008025363964843768,-0.1357251908396946,-4.228030766506739e-05,-3.840975264301285e-07,-0.003400301278971913
1740927282.4018338,None,None,0.025349807177734496,-0.037464467578124994,-0.11282442748091581,-3.489223910942327e-05,-3.94182076948546e-07,-0.003849200875432447
1740927282.4175723,None,None,-0.03450523432617181,-0.023099257617187507,-0.15862595419847336,-4.457364783238711e-05,-3.4217146841476745e-07,-0.004480243317393597
1740927282.4349184,None,None,0.027744008837890632,0.010419565625000016,0.04748091603053428,-3.652642269686995e-05,-3.782803145658452e-07,-0.004291870426969579
1740927282.4483292,None,None,0.05168602543945311,0.10858183369140623,2.0322137404580154,-2.270582472419716e-05,-6.82258839920392e-07,0.0037873202388281936
1740927282.4643505,None,None,0.015773000537109505,-0.0326760642578125,1.9558778625954198,-1.884995233613339e-05,-9.065523078932837e-07,0.011563670562665489
1740927282.4828944,None,None,-0.03450523432617181,0.12773544697265624,-0.19679389312977102,-2.839672836370222e-05,-8.340716804830836e-07,0.010782837304578883
1740927282.5123067,None,None,0.01098459721679701,-0.023099257617187507,0.032213740458015394,-2.4448229741275537e-05,-8.246573701963606e-07,0.01091228955585861
1740927282.5260904,None,None,-0.022534226025390458,-0.1380209373046875,-0.013587786259542156,-3.0848893010097815e-05,-7.958188280348384e-07,0.010859669422217073
1740927282.54042,None,None,0.025349807177734496,0.019996372265625006,0.02458015267175595,-2.235440342355938e-05,-7.874867948340954e-07,0.010958743115268038
1740927282.5542073,None,None,0.020561403857422,-0.05182967753906248,2.016946564885496,-1.6209286621156442e-05,-9.151683393226208e-07,0.018976962800287597
1740927282.5707102,None,None,-0.012957419384765467,0.02717897724609375,-0.15099236641221392,-1.941769350883004e-05,-8.726855257338105e-07,0.018379116710666624
1740927282.5840642,None,None,0.03013821049804699,0.12055284199218749,0.1772519083969466,-8.819856738559138e-06,-8.359993636413203e-07,0.019085775924909298
1740927282.5964541,None,None,0.04210921879882812,-0.06380068583984377,-0.08229007633587804,6.246741398831942e-06,-7.597061609965011e-07,0.018760982402873837
1740927282.6104383,None,None,0.01816720219726564,-0.008734047656250021,0.0016793893129771753,1.3798661907923665e-05,-6.930915278667859e-07,0.018769839678397817
1740927282.6269858,None,None,-0.0440820409667968,0.029573178906249997,0.04748091603053428,5.445681632368089e-07,-7.010745165953972e-07,0.018960683171439556
1740927282.640207,None,None,0.03732081547851562,0.03675578388671874,-1.860916030534351,1.498356760570927e-05,-5.786964786924723e-07,0.01156812152476292
1740927282.6532593,None,None,0.01816720219726564,-0.006339845996093774,0.009312977099236619,2.2819303639013106e-05,-5.223075172452499e-07,0.01160641047372155
1740927282.6694474,None,None,-0.04647624262695316,-0.003945644335937526,0.016946564885496063,8.452550308772723e-06,-5.769342910888256e-07,0.01167501931140224
1740927282.6812158,None,None,-0.012957419384765467,0.12773544697265624,-0.08229007633587804,5.276774843012021e-06,-5.81999501984091e-07,0.011349336169970593
1740927282.6950853,None,None,-0.012957419384765467,-0.013522450976562517,-0.09755725190839692,1.9515401341209393e-06,-5.925025164406032e-07,0.010962960903349856
1740927282.7134128,None,None,0.01816720219726564,-0.04464707255859374,-0.15862595419847336,9.551073021031417e-06,-5.441271945258296e-07,0.010333932251567464
1740927282.7350366,None,None,0.0014077905761720189,-0.003945644335937526,-0.07465648854961815,1.1359090996478714e-05,-5.282341451911192e-07,0.010038427279185606
1740927282.7549922,None,None,-0.036899435986328166,0.003236960644531217,-0.12809160305343514,-6.546164030889587e-07,-6.032644137808218e-07,0.009530622885110009
1740927282.767247,None,None,-0.029716831005859312,0.003236960644531217,1.8795419847328245,-1.0300446820616224e-05,-5.656202470795342e-07,0.0169976235748064
1740927282.7860322,None,None,-0.015351621044921826,-0.16675135722656248,-0.09755725190839692,-1.519069082027009e-05,-5.95609399036405e-07,0.016611927563840986
1740927282.809909,None,None,0.03013821049804699,-0.0015514426757812783,-0.11282442748091581,-3.46117448216574e-06,-5.106680827904141e-07,0.0161655472977767
1740927282.8243108,None,None,0.013378798876953146,0.003236960644531217,-0.15099236641221392,2.377695204522881e-06,-4.6633917384965133e-07,0.015567526503291972
1740927282.8387513,None,None,0.01098459721679701,-0.0326760642578125,-0.1662595419847328,7.471654560486764e-06,-4.276155658677086e-07,0.014908813692424985
1740927282.8534381,None,None,0.015773000537109505,-0.14520354228515625,0.02458015267175595,1.4530760420352867e-05,-3.591138369967247e-07,0.015007933265786947
1740927282.876535,None,None,-0.0033806127441404765,-0.12126152568359377,0.06274809160305339,1.452559237443989e-05,-3.4503087266663346e-07,0.015258616957656814
1740927282.892513,None,None,-0.0009864110839843399,0.015207968945312511,-0.2120610687022899,1.5339267213803164e-05,-3.4647067325917616e-07,0.014418035880026409
1740927282.90792,None,None,0.0014077905761720189,0.024784775585937502,2.0093129770992366,1.7659352854902e-05,-1.4425641412434646e-07,0.022398063781537598
1740927282.921733,None,None,-0.06802405756835928,-0.013522450976562517,-1.860916030534351,-7.846713690024131e-06,-5.410944848845099e-07,0.015011335867355403
1740927282.9379392,None,None,-0.03211103266601567,-0.023099257617187507,-0.005954198473282268,-1.9609512957340004e-05,-6.560936003344421e-07,0.01498912959005417
1740927282.956926,None,None,0.03013821049804699,0.005631162304687465,-0.17389312977099225,-7.50825403831988e-06,-5.527640365178042e-07,0.014300142643400552
1740927282.969695,None,None,0.04450342045898448,-0.003945644335937526,-0.1662595419847328,1.0540334908077773e-05,-3.845094471993775e-07,0.013641399998273747
1740927282.985805,None,None,0.04210921879882812,0.015207968945312511,0.02458015267175595,2.8177249557281583e-05,-1.9816915580833269e-07,0.013740218670514222
1740927283.002124,None,None,-0.03450523432617181,-0.13562673564453126,0.10854961832061072,1.5997632972901127e-05,-3.1166028896373044e-07,0.01417237063559338
1740927283.019531,None,None,-0.029716831005859312,0.03675578388671874,-0.1204580152671757,5.2928589573032825e-06,-4.3710366752114515e-07,0.013695478247133512
1740927283.0463457,None,None,-0.03211103266601567,-0.008734047656250021,-1.8532824427480916,-7.312157221334617e-06,-7.782593298881671e-07,0.006340264409309044
1740927283.0839734,None,None,0.01098459721679701,0.031967380566406245,0.03984732824427484,-2.2531834365026695e-06,-7.24891860479207e-07,0.006498771917706406
1740927283.1063824,None,None,-0.036899435986328166,0.115764438671875,-0.028854961832061043,-1.6371419003719948e-05,-8.825891699041641e-07,0.00638460460671908
1740927283.1216397,None,None,0.01816720219726564,-0.02070505595703126,-0.2502290076335876,-8.69435089655842e-06,-8.33620877404414e-07,0.005391819332059936
1740927283.138518,None,None,0.006196193896484514,-0.11647312236328128,2.024580152671756,-4.827826794420189e-06,-5.723260583240311e-07,0.01342700321043387
1740927283.1528656,None,None,0.0014077905761720189,0.04872679218749998,0.07038167938931306,-3.595495404404195e-06,-5.531439962747853e-07,0.01370747346742116
1740927283.175879,None,None,0.04210921879882812,-0.018310854296875012,-0.05175572519083982,1.4230932097198547e-05,-3.7209176749062874e-07,0.013503268423992455
1740927283.19382,None,None,-0.024928427685546817,-0.003945644335937526,-0.03648854961832049,4.999080746101185e-06,-4.750227710032037e-07,0.013359620202797491
1740927283.2171292,None,None,-0.017745822705077963,-0.05422387919921878,-0.2883969465648857,-1.6113993351588544e-06,-5.814413765115787e-07,0.012216373503930672
1740927283.2443326,None,None,0.056474428759765605,0.03675578388671874,-0.05938931297709926,2.2321905841290437e-05,-3.3025731442802834e-07,0.011981698981018035
1740927283.2620997,None,None,0.04210921879882812,-0.035070265917968746,-1.7769465648854963,4.014307830853404e-05,-3.518431020178336e-07,0.004932279755162904
1740927283.2940085,None,None,0.0014077905761720189,-0.16196295390624998,-0.08229007633587804,4.218097336868752e-05,-3.5396711005453096e-07,0.004605890899961565
1740927283.318801,None,None,-0.005774814404296835,0.005631162304687465,0.04748091603053428,4.1312852009091934e-05,-3.708917696760674e-07,0.004794322722656114
1740927283.3373265,None,None,-0.03450523432617181,-0.006339845996093774,-0.2120610687022899,2.8295481450292454e-05,-5.489232993346651e-07,0.003953118706952368
1740927283.3593524,None,None,-0.005774814404296835,0.022390573925781254,-0.1815267175572517,2.700658536638311e-05,-5.986461752480877e-07,0.0032329796878430074
1740927283.3730652,None,None,-0.01056321772460933,0.005631162304687465,-0.05938931297709926,2.37247206914015e-05,-6.510753155679025e-07,0.0029972860249349734
1740927283.3931596,None,None,-0.017745822705077963,0.010419565625000016,-0.1204580152671757,1.7306153750362715e-05,-7.417981047830556e-07,0.002519334652287546
1740927283.405837,None,None,0.03013821049804699,0.005631162304687465,0.016946564885496063,3.0978242422876756e-05,-6.156465117460801e-07,0.0025863658595359283
1740927283.4204164,None,None,0.03253241215820313,-0.025493459277343755,-0.03648854961832049,4.590742183253847e-05,-4.910210595346075e-07,0.0024414610736331016
1740927283.433338,None,None,-0.022534226025390458,0.003236960644531217,0.18488549618320604,3.794807528184901e-05,-5.493015746197463e-07,0.0031745605086108577
1740927283.447896,None,None,-0.03211103266601567,-0.015916652636718764,-1.8685496183206105,2.4658555692626984e-05,-9.789114052871955e-07,-0.004236290043381845
1740927283.4671907,None,None,-0.005774814404296835,0.005631162304687465,-0.1204580152671757,2.322094216490528e-05,-1.0241111440051195e-06,-0.004715004793860346
1740927283.485906,None,None,-0.03211103266601567,0.012813767285156263,0.07038167938931306,1.0635642006562213e-05,-1.1286854111058395e-06,-0.004436930878231368
1740927283.5104294,None,None,-0.008169016064452972,0.115764438671875,-0.028854961832061043,7.930432596036865e-06,-1.1607377827234409e-06,-0.004552354311746304
1740927283.5245209,None,None,0.04210921879882812,0.0008427589843749694,0.04748091603053428,2.6661038011089218e-05,-1.0168231948097406e-06,-0.00436507429201455
1740927283.5416152,None,None,0.013378798876953146,0.05590939716796875,-0.31893129770992346,3.3272233661879805e-05,-1.032895578736572e-06,-0.005630688685015338
1740927283.5533826,None,None,0.03013821049804699,0.015207968945312511,0.0016793893129771753,4.734812102102481e-05,-9.50916754232535e-07,-0.0056251432019881085
1740927283.5747602,None,None,-0.0009864110839843399,-0.018310854296875012,-0.08229007633587804,4.8291934975451135e-05,-9.768658849069781e-07,-0.005952521661342819
1740927283.5873377,None,None,-0.04168783930664066,0.03436158222656249,-1.8685496183206105,3.078176738428123e-05,-1.4268135473519995e-06,-0.013362080080945577
1740927283.6160166,None,None,0.08041644536132808,0.04633259052734373,-1.7998473282442746,6.547485439413827e-05,-1.5721500937125733e-06,-0.020499869498524576
1740927283.6329694,None,None,-0.022534226025390458,0.04633259052734373,0.15435114503816805,5.762031948869432e-05,-1.6273188083082822e-06,-0.019890822403648357
1740927283.646683,None,None,-0.05365884760742179,0.012813767285156263,-0.08992366412213748,3.60457374508281e-05,-1.7648026697696945e-06,-0.020250087304752314
1740927283.6707945,None,None,0.025349807177734496,0.04393838886718748,-0.05175572519083982,4.814409463066156e-05,-1.7552513817715205e-06,-0.02045805060593527
1740927283.6857524,None,None,-0.04647624262695316,-0.08295429912109376,1.9406106870229007,3.0610683119407226e-05,-1.4487686607416091e-06,-0.012768148803010243
1740927283.6998034,None,None,-0.0009864110839843399,-0.0015514426757812783,-0.20442748091603047,3.109616806808875e-05,-1.494656166772124e-06,-0.013580297796215555
1740927283.7231746,None,None,-0.022534226025390458,0.015207968945312511,0.05511450381679395,2.241022734915108e-05,-1.5037426119483908e-06,-0.013363735753323357
1740927283.7399337,None,None,-0.048870444287109294,-0.011128249316406269,-0.03648854961832049,2.095744500369929e-06,-1.5336383079836278e-06,-0.013510216552501297
1740927283.760367,None,None,-0.024928427685546817,-0.0015514426757812783,0.13145038167938927,-8.140960258026249e-06,-1.50720049358376e-06,-0.012991069120884047
1740927283.7744029,None,None,-0.005774814404296835,0.02717897724609375,-0.04412213740457993,-1.0376228780500175e-05,-1.504738662226082e-06,-0.013167711455644346
1740927283.7930243,None,None,0.07802224370117194,-0.047041274218749984,-0.005954198473282268,2.3698731528120173e-05,-1.503488267417212e-06,-0.013193084877270661
1740927283.8066504,None,None,0.0014077905761720189,-0.008734047656250021,-0.1204580152671757,2.506409253882932e-05,-1.5277355025370056e-06,-0.013672229234721982
1740927283.8204217,None,None,0.03013821049804699,-0.02070505595703126,-0.14335877862595403,3.8905064609997305e-05,-1.570441091622492e-06,-0.014242153613073363
1740927283.839491,None,None,0.01098459721679701,0.010419565625000016,-0.12809160305343514,4.4666052927719406e-05,-1.6090349824581042e-06,-0.014751611576392766
1740927283.8525226,None,None,-0.024928427685546817,-0.03985866923828124,-0.028854961832061043,3.495672346818234e-05,-1.6038191079172918e-06,-0.014867857621160031
1740927283.87094,None,None,-0.012957419384765467,-0.023099257617187507,-0.05938931297709926,3.0251721144422615e-05,-1.607501169713084e-06,-0.015105088486047349
1740927283.8843746,None,None,0.008590395556640651,-0.13083833232421876,-1.8685496183206105,3.391766802340772e-05,-1.9652358476073137e-06,-0.02251091087560942
1740927283.9088328,None,None,-0.008169016064452972,-0.12844413066406252,0.24595419847328248,3.14290167172976e-05,-1.91618309124304e-06,-0.02153920741163557
1740927283.9293697,None,None,-0.024928427685546817,-0.023099257617187507,-0.05175572519083982,2.143420725069449e-05,-1.888867697513259e-06,-0.02174694745375386
1740927283.9455516,None,None,0.008590395556640651,0.04393838886718748,-0.25786259541984746,2.5747671883602597e-05,-1.952440680255329e-06,-0.022771273708283562
1740927283.9597213,None,None,-0.06802405756835928,0.008025363964843768,-0.09755725190839692,-3.166193937555878e-06,-1.8220692040760062e-06,-0.02316056303020813
1740927283.9768703,None,None,0.0038019922363281555,-0.018310854296875012,0.13145038167938927,-1.191984980721179e-06,-1.7924861245563362e-06,-0.022642594540420793
1740927283.9896266,None,None,0.03253241215820313,-0.02070505595703126,0.10091603053435128,1.330197146542581e-05,-1.8491468870795988e-06,-0.022245513352057645
1740927284.0079906,None,None,-0.017745822705077963,-0.013522450976562517,0.23832061068702304,6.172393822156368e-06,-1.7519055790444812e-06,-0.021304041460750628
1740927284.0260043,None,None,-0.029716831005859312,0.05590939716796875,-0.0212213740458016,-6.4254192892737826e-06,-1.6541831522599246e-06,-0.021390589640497233
1740927284.0380878,None,None,-0.048870444287109294,0.012813767285156263,-0.028854961832061043,-2.7602723780682067e-05,-1.4811156704748977e-06,-0.02150735965789642
1740927284.0557747,None,None,-0.017745822705077963,0.12294704365234374,-0.08992366412213748,-3.5601961270637024e-05,-1.4067996346466239e-06,-0.021866015775216494
1740927284.0683806,None,None,0.015773000537109505,0.12294704365234374,-0.14335877862595403,-2.9147857992494893e-05,-1.4574280765733621e-06,-0.022436337940823614
1740927284.0808637,None,None,0.04450342045898448,-0.008734047656250021,-0.14335877862595403,-1.0064181840281677e-05,-1.6269270586866754e-06,-0.023006691332140637
1740927284.0929127,None,None,-0.024928427685546817,-0.003945644335937526,-0.0212213740458016,-2.091365132186928e-05,-1.511140366338606e-06,-0.023093320829352212
1740927284.1142354,None,None,-0.0009864110839843399,0.08463981708984375,0.4215267175572519,-2.138928312765112e-05,-1.4308563301449256e-06,-0.02142637304354798
1740927284.128251,None,None,-0.015351621044921826,0.04393838886718748,1.971145038167939,-2.7761253726948788e-05,-1.0967244854626147e-06,-0.013621955097601442
1740927284.1466587,None,None,-0.04647624262695316,-0.04464707255859374,0.07038167938931306,-4.833871942843268e-05,-8.646914980899467e-07,-0.013344491981117429
1740927284.1590571,None,None,-0.02014002436523432,-0.011128249316406269,-0.22732824427480924,-5.784354301677595e-05,-7.80944378559468e-07,-0.014246001033451012
1740927284.172567,None,None,-0.0033806127441404765,0.005631162304687465,-0.028854961832061043,-6.016050600206774e-05,-7.488649905882654e-07,-0.014361603241568816
1740927284.1949623,None,None,0.027744008837890632,-0.003945644335937526,-0.0670229007633587,-4.895205768152377e-05,-8.688082018475554e-07,-0.014628350392074446
1740927284.2089186,None,None,0.008590395556640651,0.1253412453125,-1.8532824427480916,-4.612905701627677e-05,-1.0483129444173276e-06,-0.021968584109246538
1740927284.2232969,None,None,-0.029716831005859312,-0.008734047656250021,0.04748091603053428,-5.974622387570605e-05,-8.671663117130105e-07,-0.021782876407089438
1740927284.2412295,None,None,0.0038019922363281555,-0.035070265917968746,1.635267175572519,-5.887302592360462e-05,-7.44396895549147e-07,-0.015309946347473994
1740927284.2607188,None,None,0.022955605517578137,-0.11168471904296873,0.02458015267175595,-4.974799935283615e-05,-8.454083403750384e-07,-0.015213998083412486
1740927284.2797234,None,None,-0.036899435986328166,-0.12365572734375002,2.0322137404580154,-6.655925079466139e-05,-5.280545195624934e-07,-0.007168808722611639
1740927284.3152175,None,None,0.006196193896484514,0.041544187207031236,-0.1357251908396946,-6.488470334601377e-05,-5.642186998641914e-07,-0.007706466714491185
1740927284.3417528,None,None,0.025349807177734496,-0.1475977439453125,-0.10519083969465637,-5.482970521923316e-05,-6.982808952237581e-07,-0.008123284855059547
1740927284.3645885,None,None,0.022955605517578137,-0.018310854296875012,-0.0212213740458016,-4.566125736546922e-05,-8.160914195835245e-07,-0.008207694011152832
1740927284.3853865,None,None,-0.01056321772460933,0.003236960644531217,-1.7082442748091604,-5.0834315682756765e-05,-7.933617915120762e-07,-0.014971153430551654
1740927284.404599,None,None,0.03732081547851562,-0.003945644335937526,-0.03648854961832049,-3.533940944691223e-05,-9.785347014336735e-07,-0.015116908757598226
1740927284.4170964,None,None,0.03253241215820313,0.005631162304687465,-1.815114503816794,-2.1489770280744154e-05,-1.163622174895066e-06,-0.022304008182804643
1740927284.4296913,None,None,0.04210921879882812,-0.023099257617187507,0.11618320610687016,-3.4529626756337992e-06,-1.3860464764489526e-06,-0.02184632212640457
1740927284.4445198,None,None,0.008590395556640651,0.010419565625000016,0.06274809160305339,2.6161408289962206e-07,-1.4330468999733394e-06,-0.021600093944349922
1740927284.458528,None,None,-0.08957187250976562,-0.15956875224609374,0.009312977099236619,-3.877518821838867e-05,-9.104932550252067e-07,-0.02156534230985366
1740927284.4736059,None,None,-0.005774814404296835,-0.17393396220703122,-0.14335877862595403,-4.187632774950713e-05,-8.593347371948645e-07,-0.022134910080415213
1740927284.4857006,None,None,-0.008169016064452972,0.022390573925781254,-0.03648854961832049,-4.6086992464286804e-05,-7.906607257141294e-07,-0.022281486926104047
1740927284.4978878,None,None,0.025349807177734496,-0.008734047656250021,-0.15099236641221392,-3.572805148436565e-05,-9.277945701830599e-07,-0.02288129429742092
1740927284.5173385,None,None,0.05886863041992196,0.031967380566406245,-1.7158778625954199,-1.0326338331613043e-05,-1.2706855917908455e-06,-0.029675237346055046
1740927284.5306728,None,None,0.01816720219726564,0.041544187207031236,-0.05175572519083982,-2.543796690469334e-06,-1.3854147284246218e-06,-0.02988318843082993
1740927284.5420754,None,None,-0.0009864110839843399,-0.02070505595703126,1.9482442748091604,-3.3081436823801856e-06,-1.40027747012797e-06,-0.022175155889555823
1740927284.5561323,None,None,-0.03211103266601567,-0.152386147265625,-0.15862595419847336,-1.7324598624421502e-05,-1.1752035898566772e-06,-0.02280498795815755
1740927284.575039,None,None,0.015773000537109505,0.041544187207031236,-0.09755725190839692,-1.0683629806668242e-05,-1.2793427191480364e-06,-0.0231931719083074
1740927284.5910413,None,None,-0.012957419384765467,0.005631162304687465,-0.028854961832061043,-1.6483480432812512e-05,-1.1823012658933012e-06,-0.023309473999106593
1740927284.6031482,None,None,-0.036899435986328166,0.022390573925781254,-0.05938931297709926,-3.282105241513997e-05,-9.050818590550527e-07,-0.023546610079363695
1740927284.6153502,None,None,-0.008169016064452972,0.02717897724609375,0.06274809160305339,-3.690283451819954e-05,-8.320082613427854e-07,-0.02330038803097034
1740927284.6297557,None,None,-0.036899435986328166,0.022390573925781254,1.8642748091603054,-5.390972534544106e-05,-5.768764806698773e-07,-0.015924676276435415
1740927284.6420004,None,None,-0.022534226025390458,0.019996372265625006,-0.0212213740458016,-6.458044095062602e-05,-3.933302636972547e-07,-0.016009666305958865
1740927284.6557655,None,None,0.0014077905761720189,0.015207968945312511,-0.0212213740458016,-6.496826201283038e-05,-3.8916637713325053e-07,-0.016094655145417094
1740927284.6706593,None,None,0.11632947026367191,0.02717897724609375,0.04748091603053428,-1.5184096822344002e-05,-1.2669823967834131e-06,-0.015907775067850176
1740927284.6860044,None,None,-0.012957419384765467,-0.008734047656250021,-0.11282442748091581,-2.1032427091998087e-05,-1.1607974879779252e-06,-0.016355206281050444
1740927284.6999362,None,None,0.03013821049804699,-0.06619488750000002,1.902442748091603,-8.592662462436473e-06,-1.4650297383136858e-06,-0.008828240013720524
1740927284.714362,None,None,-0.005774814404296835,0.12773544697265624,1.9100763358778625,-1.1626120484288035e-05,-1.4948818775592284e-06,-0.0012701693867203396
1740927284.728956,None,None,-0.05365884760742179,0.07506301044921873,0.04748091603053428,-3.522168844086418e-05,-1.093930300382981e-06,-0.0010812112928521823
1740927284.7415943,None,None,0.013378798876953146,-0.018310854296875012,0.009312977099236619,-2.9877723053748662e-05,-1.195301952284837e-06,-0.001043264118668849
1740927284.7550063,None,None,0.015773000537109505,-0.1475977439453125,0.0780152671755725,-2.341280645195254e-05,-1.3135812645680205e-06,-0.0007334911644175841
1740927284.7666817,None,None,0.025349807177734496,0.03914998554687499,-0.20442748091603047,-1.2587656076675688e-05,-1.4829932666314393e-06,-0.0015412077656591005
1740927284.7818277,None,None,-0.06084145258789064,-0.02070505595703126,-0.09755725190839692,-3.9328785579145104e-05,-1.0585523554834087e-06,-0.0019261990603577877
1740927284.7960515,None,None,0.034926613818359487,0.005631162304687465,-0.1204580152671757,-2.4572738816872754e-05,-1.290821858362475e-06,-0.002401853212996217
1740927284.811024,None,None,0.04450342045898448,0.012813767285156263,0.11618320610687016,-5.434079443313746e-06,-1.5909499703132875e-06,-0.001941334709024019
1740927284.823684,None,None,0.01098459721679701,-0.023099257617187507,-0.10519083969465637,-6.156446621500062e-07,-1.654757513109496e-06,-0.0023565908417539313
1740927284.8402777,None,None,0.022955605517578137,0.060697800488281245,-1.8380152671755723,9.889902469047094e-06,-1.7160794872034802e-06,-0.009627339792104148
1740927284.8552568,None,None,0.013378798876953146,-0.15478034892578124,-0.2196946564885498,1.602054155772645e-05,-1.7926564070251342e-06,-0.010496677053209629
1740927284.869051,None,None,0.04210921879882812,0.0008427589843749694,-0.0212213740458016,3.481401054722564e-05,-2.060682195971293e-06,-0.010580944481675066
1740927284.8902814,None,None,-0.01056321772460933,0.015207968945312511,-0.24259541984732813,3.084072289876363e-05,-1.9904555010839203e-06,-0.011540973695324395
1740927284.9044752,None,None,0.006196193896484514,0.06788040546874999,-0.07465648854961815,3.413221593375784e-05,-2.0327158048959836e-06,-0.011836764064288104
1740927284.9303112,None,None,-0.06562985590820314,0.012813767285156263,0.0780152671755725,5.914835785656095e-06,-1.6260355888304041e-06,-0.011528639313612546
1740927284.941981,None,None,-0.01056321772460933,0.010419565625000016,-0.22732824427480924,1.4716800054464652e-06,-1.5561943250048083e-06,-0.01242834248570348
1740927284.9580739,None,None,-0.012957419384765467,0.003236960644531217,0.02458015267175595,-4.125673255133906e-06,-1.4760210644890477e-06,-0.012331676106510838
1740927284.9719892,None,None,-0.029716831005859312,0.060697800488281245,0.016946564885496063,-1.7183171269825953e-05,-1.288580470356563e-06,-0.012265187056988184
1740927284.9864855,None,None,0.0038019922363281555,-0.023099257617187507,-0.07465648854961815,-1.5692202909567798e-05,-1.3093106569970707e-06,-0.012561025851625135
1740927285.0001068,None,None,-0.01056321772460933,0.11097603535156247,0.13145038167938927,-2.0523899740434954e-05,-1.2433180845839278e-06,-0.012041639472127415
1740927285.0209236,None,None,0.20730913334960932,0.029573178906249997,1.8108396946564886,7.03592156591241e-05,-2.5954556083176847e-06,-0.004879464427074757
1740927285.0415342,None,None,0.013378798876953146,-0.16675135722656248,-0.013587786259542156,7.745370561739861e-05,-2.6751524110467284e-06,-0.004932663780009478
1740927285.0547664,None,None,-0.01056321772460933,0.04872679218749998,0.07038167938931306,7.409963950579701e-05,-2.606638791338257e-06,-0.004653751439295077
1740927285.0769975,None,None,-0.058447250927734284,0.010419565625000016,0.18488549618320604,4.955661405191411e-05,-2.246020089692386e-06,-0.003921920019149641
1740927285.112004,None,None,0.01098459721679701,0.04633259052734373,0.05511450381679395,5.527934700591059e-05,-2.3083385846280675e-06,-0.0037032684152538994
1740927285.140555,None,None,0.046897622119140614,-0.14041513896484376,-0.05938931297709926,7.696458842241194e-05,-2.5833172974013245e-06,-0.003937471479845223
1740927285.1612687,None,None,0.027744008837890632,-0.011128249316406269,-1.8456488549618322,9.045141303496275e-05,-2.7907173182472626e-06,-0.011236451181742404
1740927285.1786013,None,None,-0.048870444287109294,-0.1475977439453125,-0.2196946564885498,7.032157854021001e-05,-2.528585112260209e-06,-0.012105753476079747
1740927285.1919456,None,None,0.01816720219726564,0.0008427589843749694,-0.311297709923664,7.95342805605905e-05,-2.661407841132608e-06,-0.013337445711738751
1740927285.2251809,None,None,-0.0033806127441404765,-0.037464467578124994,-0.12809160305343514,7.936154161941501e-05,-2.665374731615482e-06,-0.013844736248570744
1740927285.2424903,None,None,-0.036899435986328166,0.015207968945312511,0.1772519083969466,6.435964777394368e-05,-2.4548684336902236e-06,-0.01314451185116246
1740927285.2645261,None,None,0.027744008837890632,0.005631162304687465,-0.15862595419847336,7.774657797997638e-05,-2.6431109406573806e-06,-0.013772497328828988
1740927285.2767398,None,None,0.05168602543945311,0.0008427589843749694,-0.08992366412213748,0.00010199345354027581,-2.974853219389635e-06,-0.014128861192872065
1740927285.289294,None,None,0.0014077905761720189,0.024784775585937502,0.36809160305343513,0.0001043787443626455,-2.9758390122541645e-06,-0.012673985506543639
1740927285.3027213,None,None,0.015773000537109505,0.0008427589843749694,-0.20442748091603047,0.00011305687960414154,-3.109142409111802e-06,-0.013482974335752101
1740927285.3152206,None,None,-0.01056321772460933,0.03914998554687499,0.16961832061068716,0.00011024252777244342,-3.0510732567260795e-06,-0.012812895736193243
1740927285.327411,None,None,-0.01056321772460933,-0.008734047656250021,-0.1204580152671757,0.00010729070639094044,-3.0211426166294295e-06,-0.01328981392779026
1740927285.3475192,None,None,0.03253241215820313,0.04393838886718748,-1.7158778625954199,0.00012297854494180426,-3.44774650588775e-06,-0.020075708571461116
1740927285.361375,None,None,0.05886863041992196,0.12294704365234374,0.09328244274809161,0.00015128869003959517,-3.842883764124062e-06,-0.019708457149816186
1740927285.3753324,None,None,-0.03211103266601567,0.04633259052734373,-0.15099236641221392,0.00013930651069803644,-3.7137534567938995e-06,-0.020307070762403217
1740927285.389623,None,None,0.056474428759765605,0.029573178906249997,-0.028854961832061043,0.00016678808048947743,-4.1274469068771375e-06,-0.02042278614433688
1740927285.4032362,None,None,0.04929182377929697,0.03675578388671874,0.13145038167938927,0.00019156946491531783,-4.483445195539859e-06,-0.019904622388043625
1740927285.417356,None,None,0.05168602543945311,-0.008734047656250021,0.04748091603053428,0.00021777968280069235,-4.879594712407598e-06,-0.01971839653275508
1740927285.431707,None,None,-0.022534226025390458,-0.047041274218749984,-0.04412213740457993,0.0002110677026121939,-4.808486995102037e-06,-0.019894333340098935
1740927285.4455318,None,None,-0.017745822705077963,0.03675578388671874,0.009312977099236619,0.00020641462036186277,-4.753670488840538e-06,-0.019858992963271996
1740927285.462322,None,None,-0.005774814404296835,-0.04225287089843749,-0.05938931297709926,0.00020700513389878725,-4.792687169988722e-06,-0.02009527725611531
1740927285.4743447,None,None,0.0014077905761720189,0.1253412453125,-0.11282442748091581,0.0002107814442648825,-4.895727767633652e-06,-0.020542854326913874
1740927285.4859986,None,None,-0.012957419384765467,-0.035070265917968746,-0.07465648854961815,0.000208160566447199,-4.890693894811191e-06,-0.02083956340918624
1740927285.4983652,None,None,0.0014077905761720189,0.031967380566406245,-0.03648854961832049,0.00021198386980681897,-4.976600885452704e-06,-0.020985385514690497
1740927285.511683,None,None,0.1809729150878907,-0.011128249316406269,-0.10519083969465637,0.0002968235406991534,-6.390534972008775e-06,-0.021402841910556605
1740927285.5251923,None,None,-0.017745822705077963,0.02717897724609375,-1.7006106870229005,0.000291815847900314,-6.906594668208889e-06,-0.028128183364576287
1740927285.5383055,None,None,0.03253241215820313,-0.03985866923828124,0.03984732824427484,0.0003110648426824497,-7.2743010306626835e-06,-0.027973215620713653
1740927285.5561824,None,None,0.046897622119140614,-0.015916652636718764,0.016946564885496063,0.00033708830546848317,-7.772857225553858e-06,-0.02790873757176267
1740927285.5678868,None,None,0.0038019922363281555,0.01760217060546876,0.24595419847328248,0.000344235816479238,-7.858629100329352e-06,-0.026938821108368656
1740927285.5801365,None,None,-0.06084145258789064,-0.011128249316406269,0.11618320610687016,0.0003220011816453024,-7.464915839888439e-06,-0.026481797005488538
1740927285.5920696,None,None,-0.0009864110839843399,0.010419565625000016,-0.028854961832061043,0.0003263891964477252,-7.597740543185761e-06,-0.026598089711858373
1740927285.6036632,None,None,0.0038019922363281555,-0.04464707255859374,-0.11282442748091581,0.0003328884430721876,-7.809892108577338e-06,-0.027046340737118993
1740927285.6163733,None,None,-0.058447250927734284,0.005631162304687465,-0.1204580152671757,0.0003111089651726381,-7.5014043169927055e-06,-0.027524806014060352
1740927285.6317391,None,None,0.020561403857422,-0.013522450976562517,1.818473282442748,0.0003276702692350379,-6.886370342515064e-06,-0.020338028131379627
1740927285.644232,None,None,-0.015351621044921826,0.058303598828125,-0.005954198473282268,0.0003254478297085511,-6.841436517235651e-06,-0.020362760538512346
1740927285.6559007,None,None,0.027744008837890632,-0.061406484179687526,0.14671755725190838,0.0003430741570556086,-7.090697044541346e-06,-0.019783929883448577
1740927285.6693652,None,None,-0.012957419384765467,0.02717897724609375,-0.4639694656488551,0.00034138922156685736,-7.3208317852556175e-06,-0.0216191882708455
1740927285.681839,None,None,0.0612628320800781,0.022390573925781254,-0.1204580152671757,0.00037418230760963284,-8.031047562784179e-06,-0.022096724705348184
1740927285.6946948,None,None,-0.04647624262695316,0.0008427589843749694,0.21541984732824426,0.00035861116135824366,-7.589569333882407e-06,-0.02124653908070995
1740927285.7107506,None,None,-0.048870444287109294,-0.11407892070312498,0.03984732824427484,0.0003413498756992803,-7.215681148436702e-06,-0.02109027422015007
1740927285.722942,None,None,-0.024928427685546817,-0.003945644335937526,0.02458015267175595,0.0003347476175318438,-7.058672778695038e-06,-0.02099432466823318
1740927285.734626,None,None,0.008590395556640651,0.04633259052734373,2.0322137404580154,0.0003469594755684236,-5.902489394558833e-06,-0.012962133675750245
1740927285.7486691,None,None,-0.01056321772460933,0.003236960644531217,0.07038167938931306,0.00034693861464999505,-5.808257097754984e-06,-0.012683886208582166
1740927285.760804,None,None,-0.0033806127441404765,0.10379343037109373,-0.08992366412213748,0.00034989482657870035,-5.886725828181441e-06,-0.013039277478728371
1740927285.7736685,None,None,0.046897622119140614,0.02717897724609375,0.1772519083969466,0.000376588425691033,-6.241030682153685e-06,-0.012338600865571328
1740927285.7864716,None,None,-0.07760086420898427,-0.16675135722656248,-0.005954198473282268,0.00034570494595026995,-5.59322128849839e-06,-0.012362014634865998
1740927285.8007846,None,None,-0.024928427685546817,0.022390573925781254,0.04748091603053428,0.00033878516231248195,-5.382308987890544e-06,-0.012174213482405043
1740927285.8201811,None,None,-0.0009864110839843399,-0.05901228251953128,-0.05175572519083982,0.00034262228896073875,-5.457943260537961e-06,-0.012378648529150021
1740927285.8379045,None,None,0.05168602543945311,-0.035070265917968746,0.20778625954198482,0.0003714555610925213,-5.813158150749616e-06,-0.011557209589437772
1740927285.851043,None,None,0.04929182377929697,-0.037464467578124994,-0.0670229007633587,0.0003990428207520621,-6.348641109157475e-06,-0.011821897582239919
1740927285.8677533,None,None,0.05408022709960947,-0.003945644335937526,1.9329770992366413,0.0004332747003269156,-5.391458054162364e-06,-0.004181272080919932
1740927285.8809252,None,None,-0.0033806127441404765,0.0008427589843749694,-0.013587786259542156,0.00043717262493524645,-5.387758824673154e-06,-0.004233637192729054
1740927285.8973782,None,None,-0.029716831005859312,-0.08295429912109376,0.0780152671755725,0.0004289698135098677,-5.087711340070533e-06,-0.003923955135043576
1740927285.9139616,None,None,0.05886863041992196,-0.03985866923828124,-0.04412213740457993,0.00046176824292643194,-5.6374353998341485e-06,-0.004097001481847927
1740927285.9336214,None,None,-0.0392936376464843,-0.1571745505859375,-0.2120610687022899,0.00044868805101691876,-5.506730545893195e-06,-0.004933873475148489
1740927285.945876,None,None,0.0014077905761720189,-0.023099257617187507,-0.15099236641221392,0.0004545817587685148,-5.671540000704248e-06,-0.005529506419325729
1740927285.9624522,None,None,-0.022534226025390458,0.029573178906249997,-0.2196946564885498,0.00044911780249837175,-5.7094547607971905e-06,-0.006396782129508948
1740927285.9835837,None,None,-0.08957187250976562,-0.013522450976562517,-0.013587786259542156,0.0004124419839471948,-5.042801005539553e-06,-0.006449570859835061
1740927285.995182,None,None,-0.03450523432617181,-0.013522450976562517,-0.2196946564885498,0.0004006017329310738,-5.004412840143226e-06,-0.007316995267871556
1740927286.0076487,None,None,0.034926613818359487,-0.0015514426757812783,0.07038167938931306,0.0004219572587756974,-5.252401065609517e-06,-0.0070380661920275795
1740927286.0243905,None,None,0.0014077905761720189,0.01760217060546876,0.07038167938931306,0.0004277528209816125,-5.238231722366424e-06,-0.006759106176080583
1740927286.0360794,None,None,0.046897622119140614,-0.013522450976562517,-0.10519083969465637,0.0004547018432648396,-5.730855980160513e-06,-0.0071740316093613764
1740927286.0487604,None,None,-0.036899435986328166,0.010419565625000016,-0.08229007633587804,0.0004423634891966038,-5.5703876874772065e-06,-0.007498516750759869
1740927286.0627558,None,None,0.04929182377929697,0.06309200214843749,0.009312977099236619,0.0004709032837406842,-5.971372165917363e-06,-0.007461020198284937
1740927286.0739233,None,None,-0.04168783930664066,-0.015916652636718764,-1.8074809160305345,0.0004522624490466673,-7.435748139187702e-06,-0.014603880321628442
1740927286.117071,None,None,-0.08238926752929676,0.005631162304687465,1.8413740458015266,0.0004227344064800007,-5.1122968920032114e-06,-0.007326846402106033
1740927286.1299973,None,None,0.1953381250488282,-0.07337749248046876,-0.04412213740457993,0.0005204442619488809,-6.630286551419102e-06,-0.0075005190720395356
1740927286.1467268,None,None,0.006196193896484514,0.015207968945312511,-0.0212213740458016,0.0005293804394477114,-6.740938817168786e-06,-0.007583719074711071
1740927286.1675935,None,None,0.046897622119140614,0.003236960644531217,-0.11282442748091581,0.0005576364364610781,-7.237611104240376e-06,-0.008028962921936092
1740927286.1804497,None,None,0.03732081547851562,0.029573178906249997,-0.17389312977099225,0.0005815403666395169,-7.73115601118417e-06,-0.008715626721999239
1740927286.1930916,None,None,-0.005774814404296835,-0.13562673564453126,-0.08992366412213748,0.0005853048455574779,-7.838735271487342e-06,-0.009070547236646045
1740927286.205584,None,None,-0.024928427685546817,0.12294704365234374,0.03984732824427484,0.0005802018237390089,-7.678437669336304e-06,-0.008912669340368573
1740927286.2186935,None,None,-0.008169016064452972,-0.025493459277343755,0.0016793893129771753,0.0005829141134455115,-7.67624760422694e-06,-0.008905612127425145
1740927286.2335653,None,None,0.022955605517578137,-0.023099257617187507,-0.03648854961832049,0.0006004993282203519,-7.933078246426789e-06,-0.0090493967586063
1740927286.2458513,None,None,0.015773000537109505,0.02717897724609375,-0.0212213740458016,0.0006148692966094276,-8.12510046898522e-06,-0.009132872781857431
1740927286.2578552,None,None,-0.06084145258789064,-0.03028186259765625,-0.10519083969465637,0.0005921291660527663,-7.887253849283686e-06,-0.009548204451177636
1740927286.2739437,None,None,0.04450342045898448,0.1253412453125,-0.2807633587786258,0.0006194823246043445,-8.575544724696578e-06,-0.010657441017518598
1740927286.2867897,None,None,0.025349807177734496,0.05590939716796875,-0.15862595419847336,0.0006382635197461525,-9.003140799059115e-06,-0.01128417616637152
1740927286.2992215,None,None,-0.03211103266601567,-0.015916652636718764,-0.09755725190839692,0.000629541545328459,-8.975373707756873e-06,-0.011669672669453991
1740927286.3169973,None,None,0.006196193896484514,-0.037464467578124994,0.23832061068702304,0.0006402242764499094,-8.807611204018562e-06,-0.010727907030995548
1740927286.3290362,None,None,-0.017745822705077963,0.11815864033203125,-0.10519083969465637,0.0006383135706210663,-8.887251337385167e-06,-0.011143479255931269
1740927286.343082,None,None,-0.022534226025390458,0.019996372265625006,-1.860916030534351,0.0006287544633136423,-1.110121124465561e-05,-0.01849728442954148
1740927286.361408,None,None,-0.029716831005859312,-0.018310854296875012,-1.8303816793893128,0.0006156671040787364,-1.3285724495430278e-05,-0.02573151147998172
1740927286.3773463,None,None,-0.005774814404296835,-0.027887660937500003,-0.08992366412213748,0.0006193982289430484,-1.3491379521501418e-05,-0.02608904070100838
1740927286.4046695,None,None,0.0014077905761720189,0.005631162304687465,0.05511450381679395,0.0006270757245116414,-1.3564692130501526e-05,-0.02587345357397711
1740927286.4169307,None,None,0.03732081547851562,-0.006339845996093774,-0.27312977099236635,0.0006514168585952631,-1.4323535169242768e-05,-0.02695491161631244
1740927286.441769,None,None,0.015773000537109505,0.10379343037109373,-0.14335877862595403,0.0006658735415257882,-1.4775745414992008e-05,-0.02752369796856494
1740927286.456301,None,None,-0.029716831005859312,0.041544187207031236,1.9100763358778625,0.0006644776836719407,-1.2192299999475204e-05,-0.019978195383712184
1740927286.4689338,None,None,-0.005774814404296835,-0.003945644335937526,-1.8685496183206105,0.0006627792653100641,-1.4737498313864739e-05,-0.027363059281755177
1740927286.4807684,None,None,-0.012957419384765467,0.010419565625000016,0.09328244274809161,0.000663767964948704,-1.4653112533205695e-05,-0.026996728625351307
1740927286.4973333,None,None,0.04929182377929697,-0.06619488750000002,0.06274809160305339,0.0006953953440724205,-1.5111210002242412e-05,-0.026750972769781684
1740927286.5135438,None,None,0.04450342045898448,0.031967380566406245,-0.013587786259542156,0.0007247995678771595,-1.5651948709184017e-05,-0.026806795007847817
1740927286.525454,None,None,0.025349807177734496,0.0008427589843749694,0.10854961832061072,0.0007454556337530332,-1.587987033547883e-05,-0.02637997560245499
1740927286.5422554,None,None,0.03971501713867198,0.005631162304687465,1.9940458015267175,0.0007796737261288404,-1.360338840751739e-05,-0.01850260230851343
1740927286.5551066,None,None,0.0038019922363281555,0.12055284199218749,-0.2349618320610687,0.0007889104017327948,-1.4098345525754472e-05,-0.01943181778673972
1740927286.5733454,None,None,-0.04168783930664066,-0.015916652636718764,-0.08992366412213748,0.0007760073085764428,-1.3997095928478736e-05,-0.01978805607593741
1740927286.5899942,None,None,0.008590395556640651,-0.02070505595703126,-1.860916030534351,0.0007819262384316863,-1.6907170933194285e-05,-0.02714223006689215
1740927286.6061375,None,None,0.03732081547851562,0.005631162304687465,-0.0670229007633587,0.000808524747053243,-1.7514882806522175e-05,-0.027409145292954764
1740927286.6203427,None,None,0.03013821049804699,-0.018310854296875012,-0.27312977099236635,0.0008311224062233022,-1.8381343463845488e-05,-0.02849047637549743
1740927286.6406424,None,None,0.04929182377929697,0.022390573925781254,0.10854961832061072,0.0008649538943091853,-1.887585539076426e-05,-0.028063800270101115
1740927286.6583073,None,None,-0.07041825922851563,0.0008427589843749694,-0.18916030534351158,0.000837918098103895,-1.870413590279059e-05,-0.028813378707284107
1740927286.6807673,None,None,0.0038019922363281555,0.015207968945312511,2.0322137404580154,0.0008558339197645826,-1.578885976868904e-05,-0.02078573787419817
1740927286.7011929,None,None,0.01098459721679701,0.11337023701171872,-0.1815267175572517,0.0008693095796607403,-1.632983977022517e-05,-0.021503963340609188
1740927286.7165647,None,None,-0.005774814404296835,0.03914998554687499,0.009312977099236619,0.0008751432925649862,-1.6414497889984896e-05,-0.021468228320864827
1740927286.7390685,None,None,-0.022534226025390458,-0.04464707255859374,-0.22732824427480924,0.0008716007735131786,-1.671197831442637e-05,-0.02236750049356764
1740927286.76463,None,None,-0.01056321772460933,0.008025363964843768,-0.15862595419847336,0.0008742588301739504,-1.702127272343677e-05,-0.02299543731001056
1740927286.7902613,None,None,0.1905497217285157,0.11097603535156247,0.0016793893129771753,0.0009796393876889784,-1.909285092588655e-05,-0.022990055045057814
1740927286.802616,None,None,-0.029716831005859312,-0.17153976054687498,0.03984732824427484,0.0009745796458996212,-1.891854266731148e-05,-0.02283384888231043
1740927286.82297,None,None,0.03971501713867198,0.041544187207031236,1.9940458015267175,0.0010124022721274338,-1.6149726898968383e-05,-0.014956246872057238
1740927286.8386097,None,None,-0.017745822705077963,-0.06380068583984377,0.1619847328244275,0.0010139467707362152,-1.582589685080365e-05,-0.014316180169977183
1740927286.8514214,None,None,0.0014077905761720189,0.01760217060546876,2.0093129770992366,0.0010326730065157177,-1.2482201414282845e-05,-0.006376988447377326
1740927286.8659177,None,None,-0.005774814404296835,0.008025363964843768,-0.1662595419847328,0.0010388531201443495,-1.2789742645342023e-05,-0.007032523804557507
1740927286.8815446,None,None,-0.03211103266601567,0.015207968945312511,-1.8380152671755723,0.0010245870900893635,-1.5827578849611177e-05,-0.014293436334162895
1740927286.904886,None,None,-0.036899435986328166,0.09182242207031249,-0.18916030534351158,0.0010146184264125814,-1.5934017513055496e-05,-0.0150407139693712
1740927286.924722,None,None,-0.029716831005859312,-0.018310854296875012,-0.1662595419847328,0.0010082118267199659,-1.607705186094453e-05,-0.015697623868128188
1740927286.9419482,None,None,-0.0033806127441404765,0.029573178906249997,-0.005954198473282268,0.001015885656608526,-1.6190778330865934e-05,-0.015721260086129042
1740927286.955366,None,None,-0.027322629345702953,0.005631162304687465,-0.0212213740458016,0.0010111426802824242,-1.609687052693502e-05,-0.015805219632433497
1740927286.9717352,None,None,-0.0033806127441404765,0.04393838886718748,-0.03648854961832049,0.0010185442672413633,-1.6267519972804714e-05,-0.01594951112009803
1740927286.99924,None,None,-0.0009864110839843399,0.02717897724609375,-1.860916030534351,0.0010192211098250781,-1.9910868497939186e-05,-0.023302121164595815
1740927287.0143974,None,None,0.0014077905761720189,0.02717897724609375,-0.20442748091603047,0.001028515777418255,-2.04896810597467e-05,-0.024111100454632477
1740927287.0317802,None,None,0.022955605517578137,0.029573178906249997,0.0016793893129771753,0.001049968727081355,-2.0898475960469397e-05,-0.02410586659898118
1740927287.0432732,None,None,0.008590395556640651,-0.011128249316406269,0.20778625954198482,0.001065065626785354,-2.0769121803474815e-05,-0.02328629785650264
1740927287.0547218,None,None,0.006196193896484514,0.0008427589843749694,0.03984732824427484,0.0010782500471295316,-2.093811569542895e-05,-0.023130101954532644
1740927287.0706892,None,None,0.01098459721679701,-0.0015514426757812783,-0.10519083969465637,0.0010933571735124087,-2.1443080633419027e-05,-0.023546900127314693
1740927287.085446,None,None,0.03971501713867198,-0.025493459277343755,1.9940458015267175,0.0011331725800403636,-1.8088176690343126e-05,-0.015669875709270344
1740927287.0989625,None,None,0.046897622119140614,-0.06619488750000002,-0.04412213740457993,0.0011676670372626288,-1.881546764448987e-05,-0.015844198565774587
1740927287.1143374,None,None,0.01816720219726564,0.019996372265625006,-0.14335877862595403,0.0011870167108010957,-1.944968230488909e-05,-0.01641061917571538
1740927287.1268032,None,None,-0.06084145258789064,0.1253412453125,0.08564885496183217,0.00116609143803864,-1.8799287843970634e-05,-0.016072350732821074
1740927287.1396868,None,None,-0.07281246088867177,-0.015916652636718764,-0.311297709923664,0.0011365698239776151,-1.8835826329159922e-05,-0.01730230157921192
1740927287.1507971,None,None,-0.015351621044921826,0.022390573925781254,-0.028854961832061043,0.0011381932009112531,-1.8890260182779154e-05,-0.017416557173302986
1740927287.1634388,None,None,-0.012957419384765467,-0.02070505595703126,0.1925190839694657,0.0011420511877828009,-1.8506517986371005e-05,-0.016656219909956235
1740927287.1749053,None,None,-0.029716831005859312,0.029573178906249997,-0.11282442748091581,0.0011354986426220805,-1.8583297808115165e-05,-0.01710211350663722
1740927287.1883972,None,None,0.03013821049804699,-0.003945644335937526,0.04748091603053428,0.001161242327146069,-1.8948608354616237e-05,-0.016914741259733582
1740927287.2031837,None,None,-0.005774814404296835,0.005631162304687465,0.032213740458015394,0.0011680959463492083,-1.8972216095624167e-05,-0.01678765505103395
1740927287.2192097,None,None,0.01098459721679701,0.0008427589843749694,0.02458015267175595,0.0011838017731904537,-1.9186886495406195e-05,-0.01669070537774559
1740927287.2391417,None,None,-0.029716831005859312,0.029573178906249997,-0.04412213740457993,0.0011776046161408444,-1.912334253327068e-05,-0.016865164355926422
1740927287.255016,None,None,0.16660770512695322,-0.003945644335937526,-0.08992366412213748,0.0012757014201421138,-2.1217412663777827e-05,-0.017220595925730036
1740927287.269643,None,None,-0.01056321772460933,0.008025363964843768,-0.08229007633587804,0.0012804623365941744,-2.1455891085995773e-05,-0.017545923550225318
1740927287.2872787,None,None,0.020561403857422,0.015207968945312511,-1.8456488549618322,0.0012931080173282556,-2.590104796450047e-05,-0.024837808204937258
1740927287.3038812,None,None,0.006196193896484514,-0.023099257617187507,-0.03648854961832049,0.0013073368241789233,-2.6268498358774864e-05,-0.024983374909751544
1740927287.3194506,None,None,-0.05126464594726565,-0.02070505595703126,-1.8456488549618322,0.0012816944518242715,-3.0069876619221687e-05,-0.03227635994448169
1740927287.3423429,None,None,0.020561403857422,0.02717897724609375,-0.0212213740458016,0.001303646411984685,-3.059814439573622e-05,-0.032362742530641454
1740927287.3562562,None,None,-0.08957187250976562,0.1253412453125,0.21541984732824426,0.0012676822421599956,-2.937325967951258e-05,-0.031514220018020914
1740927287.3728862,None,None,0.046897622119140614,0.01760217060546876,-0.0212213740458016,0.0013034640000570267,-3.018672183494925e-05,-0.03160041874892592
1740927287.407281,None,None,-0.0009864110839843399,0.012813767285156263,0.08564885496183217,0.0013143020732639067,-3.022626003362578e-05,-0.031264396974775205
1740927287.4318035,None,None,-0.048870444287109294,0.012813767285156263,-0.0212213740458016,0.0012986913147306038,-2.995007046644428e-05,-0.03135049828254179
1740927287.4595559,None,None,-0.022534226025390458,0.003236960644531217,-1.8685496183206105,0.00128740644908812,-3.426114253348709e-05,-0.03873465348199436
1740927287.4797096,None,None,0.0014077905761720189,-0.03985866923828124,0.20015267175572515,0.0012998749513763337,-3.407170964170259e-05,-0.037947312277983876
1740927287.4977462,None,None,0.025349807177734496,0.003236960644531217,-1.761679389312977,0.001315109600375533,-3.877911035693272e-05,-0.04491019089040024
1740927287.513806,None,None,-0.0009864110839843399,0.031967380566406245,0.02458015267175595,0.001325690239482403,-3.900983740431116e-05,-0.04481735529619322
1740927287.555058,None,None,0.0014077905761720189,0.031967380566406245,1.8948091603053436,0.0013474463687602847,-3.483883102416838e-05,-0.0373359954649274
1740927287.5699196,None,None,0.05408022709960947,-0.03028186259765625,0.009312977099236619,0.0013879171724601367,-3.580752423358752e-05,-0.03730217554780578
1740927287.582516,None,None,-0.015351621044921826,0.003236960644531217,0.23068702290076337,0.0013920008768809641,-3.533539733607481e-05,-0.036393767108017804
1740927287.598688,None,None,0.034926613818359487,0.12773544697265624,0.15435114503816805,0.0014231258069008516,-3.5725032274062526e-05,-0.035786747850064374
1740927287.6106775,None,None,-0.04168783930664066,0.058303598828125,-1.8074809160305345,0.0014019365764107825,-3.9814133378519155e-05,-0.042929856763070304
1740927287.6234343,None,None,0.04210921879882812,-0.018310854296875012,-0.0212213740458016,0.001436264713724534,-4.0778861108347356e-05,-0.04301740354908594
1740927287.642401,None,None,0.015773000537109505,-0.027887660937500003,-0.15099236641221392,0.001455724523588038,-4.17091852230314e-05,-0.043617577964176084
1740927287.654847,None,None,0.0612628320800781,0.008025363964843768,-1.8074809160305345,0.0014913752424981763,-4.7421663400460744e-05,-0.05076173680682146
1740927287.6739259,None,None,0.0014077905761720189,0.04872679218749998,0.02458015267175595,0.0015045968518838425,-4.779332794948745e-05,-0.050669440667526815
1740927287.6866076,None,None,-0.012957419384765467,-0.17153976054687498,-0.09755725190839692,0.0015092380262762303,-4.82476980990516e-05,-0.05105957018850147
1740927287.6994562,None,None,0.015773000537109505,0.01760217060546876,0.12381679389312983,0.0015309701930096163,-4.859731040609325e-05,-0.0505751714777826
1740927287.7130506,None,None,-0.01056321772460933,0.012813767285156263,-0.19679389312977102,0.0015364302776641552,-4.933995234992497e-05,-0.051357194747489954
1740927287.7300768,None,None,0.020561403857422,0.0008427589843749694,-1.8074809160305345,0.0015500279802999203,-5.472625642895201e-05,-0.05850220124851612
1740927287.7433949,None,None,0.056474428759765605,-0.11886732402343753,-0.013587786259542156,0.0015940959054561964,-5.620481451106151e-05,-0.05856161075827925
1740927287.7583206,None,None,0.015773000537109505,-0.06619488750000002,-0.028854961832061043,0.001615840364107265,-5.706411437495813e-05,-0.05868127032287085
1740927287.7744188,None,None,-0.04647624262695316,0.024784775585937502,0.13908396946564894,0.0016039672542935526,-5.6374975511146775e-05,-0.058137451293690016
1740927287.7911947,None,None,0.020561403857422,-0.10450211406249998,-0.15862595419847336,0.0016275191927737508,-5.766288295357266e-05,-0.058769549048827266
1740927287.803308,None,None,-0.005774814404296835,0.05590939716796875,0.016946564885496063,0.001637551140215966,-5.801310533565824e-05,-0.05870809709582128
1740927287.819744,None,None,-0.05126464594726565,0.012813767285156263,-0.08992366412213748,0.0016214307377851699,-5.776261217436548e-05,-0.05906874628305614
1740927287.834749,None,None,-0.05605304926757815,-0.14520354228515625,0.11618320610687016,0.001603511752794095,-5.681672290248348e-05,-0.05861518469492609
1740927287.8467722,None,None,-0.0033806127441404765,0.01760217060546876,0.04748091603053428,0.001614410516712842,-5.7066868673309715e-05,-0.058432882177110367
1740927287.8629777,None,None,-0.0392936376464843,0.0008427589843749694,-1.8074809160305345,0.0015938928411847128,-6.162616241098802e-05,-0.06557824611712001
1740927287.8746548,None,None,0.015773000537109505,-0.04464707255859374,0.0016793893129771753,0.001615225259837719,-6.241471981295936e-05,-0.06557784490202165
1740927287.88606,None,None,0.0038019922363281555,0.0008427589843749694,-0.05175572519083982,0.0016295975620372613,-6.311147307567772e-05,-0.06578845257870836
1740927287.8995042,None,None,-0.008169016064452972,-0.15956875224609374,0.10091603053435128,0.001638169684634163,-6.313106015840895e-05,-0.06539591236473995
1740927287.919585,None,None,0.008590395556640651,-0.05182967753906248,0.10854961832061072,0.001656231352125392,-6.349849837963432e-05,-0.06497307840310776
1740927287.9344902,None,None,0.17857871342773435,-0.12844413066406252,0.13908396946564894,0.0017710151578877729,-6.770069390352978e-05,-0.06442947627639636
1740927287.9516537,None,None,-0.01056321772460933,-0.0015514426757812783,0.21541984732824426,0.0017800940306258457,-6.743313226366781e-05,-0.06358417381484306
1740927287.9672966,None,None,-0.008169016064452972,0.024784775585937502,-0.14335877862595403,0.0017882535079089474,-6.821667506331572e-05,-0.0641559503333904
1740927287.9822037,None,None,-0.027322629345702953,-0.037464467578124994,1.8413740458015266,0.0017979083353201841,-6.289390044062329e-05,-0.056887479245094484
1740927287.995569,None,None,0.056474428759765605,0.1253412453125,-0.005954198473282268,0.00184349463122568,-6.481762069188522e-05,-0.05691526642478715
1740927288.0096936,None,None,0.006196193896484514,0.03436158222656249,-0.04412213740457993,0.001860537672012478,-6.564431800818093e-05,-0.057093780520038336
1740927288.0234165,None,None,-0.029716831005859312,0.06548620380859374,-0.013587786259542156,0.001857296757210707,-6.5485084870231e-05,-0.057151652513813794
1740927288.0367327,None,None,0.008590395556640651,0.019996372265625006,-0.15862595419847336,0.0018749060397672916,-6.670773054552141e-05,-0.05778241701033673
1740927288.0516763,None,None,0.04450342045898448,0.01760217060546876,-0.08992366412213748,0.00191368632412382,-6.867270268594793e-05,-0.05814183467300369
1740927288.0800965,None,None,-0.008169016064452972,0.010419565625000016,-0.11282442748091581,0.0019223869106296818,-6.93682639895367e-05,-0.05859172232167995
1740927288.0921826,None,None,-0.0033806127441404765,0.008025363964843768,0.0016793893129771753,0.001934581450871285,-6.985052580397175e-05,-0.05858931016648209
1740927288.104082,None,None,-0.017745822705077963,-0.17393396220703122,0.24595419847328248,0.0019401201417841756,-6.92146121460835e-05,-0.05762190416451914
1740927288.1233644,None,None,0.01816720219726564,0.02717897724609375,0.13908396946564894,0.001965582425630139,-6.985167563859334e-05,-0.05707645301166517
1740927288.1368523,None,None,-0.022534226025390458,-0.008734047656250021,0.0016793893129771753,0.0019667350678339306,-6.980224563386703e-05,-0.057073646735244205
1740927288.1601288,None,None,0.0014077905761720189,0.03914998554687499,0.07038167938931306,0.001982091037366013,-7.019046739929099e-05,-0.05679940201696021
1740927288.1760619,None,None,-0.08478346918945312,-0.17632816386718753,-0.0670229007633587,0.0019465459014644756,-6.859796618860415e-05,-0.0570678484240016
1740927288.190833,None,None,-0.05126464594726565,0.003236960644531217,0.14671755725190838,0.0019313500940331464,-6.72352520155036e-05,-0.05649197218494492
1740927288.2120554,None,None,0.008590395556640651,0.003236960644531217,-0.08992366412213748,0.0019489973350746348,-6.826993465797701e-05,-0.05685073162582076
1740927288.2270439,None,None,0.03013821049804699,0.02717897724609375,-0.05175572519083982,0.001979544409706718,-6.981432957692081e-05,-0.05705873081355418
1740927288.2466547,None,None,0.006196193896484514,0.010419565625000016,-0.05175572519083982,0.0019963578055623155,-7.069084356366041e-05,-0.05726671971951278
1740927288.2590847,None,None,-0.01056321772460933,-0.025493459277343755,-0.1357251908396946,0.0020028650745373263,-7.135014188833199e-05,-0.05780639127171806
1740927288.2757854,None,None,0.008590395556640651,0.008025363964843768,-1.8303816793893128,0.0020088158706682625,-7.790470765739975e-05,-0.06504026366154943
1740927288.2964008,None,None,-0.0033806127441404765,-0.003945644335937526,-1.8456488549618322,0.0020078629505739442,-8.421774114995527e-05,-0.07233553520881233
1740927288.3093402,None,None,0.006196193896484514,-0.011128249316406269,0.009312977099236619,0.0020255678464873804,-8.499541390404572e-05,-0.07230452268499377
1740927288.3304358,None,None,0.020561403857422,0.015207968945312511,2.0322137404580154,0.002065892424070221,-7.978362532084218e-05,-0.06428269119619046
1740927288.3433487,None,None,-0.022534226025390458,0.10858183369140623,0.02458015267175595,0.002066802935260914,-7.960928773148584e-05,-0.06418995172212838
1740927288.3568254,None,None,0.015773000537109505,0.031967380566406245,-0.17389312977099225,0.0020887475113130437,-8.125416885374867e-05,-0.06488113370381457
1740927288.3736045,None,None,-0.029716831005859312,-0.03028186259765625,0.03984732824427484,0.002085494123147126,-8.079434587693954e-05,-0.06472807433373357
1740927288.3938577,None,None,0.05408022709960947,0.11815864033203125,-0.013587786259542156,0.0021311848299412402,-8.31595187198916e-05,-0.0647860023357364
1740927288.4083688,None,None,-0.04647624262695316,0.03675578388671874,0.10091603053435128,0.002118579808728135,-8.195951019909146e-05,-0.06439159395449924
1740927288.4283884,None,None,0.020561403857422,0.03675578388671874,-0.04412213740457993,0.002144348338635269,-8.337556909928768e-05,-0.0645699786967291
1740927288.440484,None,None,0.04929182377929697,0.03675578388671874,0.13145038167938927,0.002188584421263852,-8.518092343510211e-05,-0.06405480815562967
1740927288.4527297,None,None,0.03013821049804699,0.010419565625000016,0.26885496183206103,0.0022227823637276374,-8.593704825952669e-05,-0.0629967467859346
1740927288.4761634,None,None,-0.07281246088867177,0.12294704365234374,-1.7998473282442746,0.002181039747237541,-9.009532620731204e-05,-0.07011003054288956
1740927288.4898353,None,None,-0.022534226025390458,-0.0015514426757812783,0.23068702290076337,0.0021835675484216444,-8.922786294122246e-05,-0.06920361006918908
1740927288.512264,None,None,0.008590395556640651,-0.03028186259765625,-0.1357251908396946,0.0022018495336405723,-9.0614357257864e-05,-0.06974433742520104
1740927288.5306702,None,None,-0.017745822705077963,-0.15956875224609374,-0.30366412213740457,0.0022032582919492816,-9.166891794743447e-05,-0.07094846533667724
1740927288.542724,None,None,-0.017745822705077963,-0.027887660937500003,-0.028854961832061043,0.0022065766631589843,-9.18012019541853e-05,-0.0710672112984252
1740927288.5628912,None,None,-0.0009864110839843399,-0.003945644335937526,0.03984732824427484,0.002220322439359694,-9.22802253107469e-05,-0.0709145356972566
1740927288.58609,None,None,-0.0440820409667968,0.04872679218749998,-0.2807633587786258,0.0022058655339442794,-9.230997278431171e-05,-0.0720282109368299
1740927288.6025915,None,None,-0.008169016064452972,-0.16675135722656248,-0.15099236641221392,0.0022136531786434615,-9.315896157117176e-05,-0.0726293967904164
1740927288.6278446,None,None,0.0014077905761720189,0.01760217060546876,-0.005954198473282268,0.0022282193275268733,-9.386454481857487e-05,-0.0726577094005957
1740927288.6605852,None,None,-0.0009864110839843399,-0.025493459277343755,-0.04412213740457993,0.00224107363212153,-9.461670018662381e-05,-0.07283673101229877
1740927288.6855783,None,None,-0.04168783930664066,0.003236960644531217,0.14671755725190838,0.00223076625885995,-9.322699090901527e-05,-0.07226190484020217
1740927288.7049422,None,None,0.03732081547851562,0.115764438671875,0.20778625954198482,0.002268318996327367,-9.453424203454352e-05,-0.07144569345787535
1740927288.7239585,None,None,-0.01056321772460933,-0.008734047656250021,-0.07465648854961815,0.0022750806110957617,-9.503465436963747e-05,-0.07174495768030378
1740927288.7521574,None,None,-0.015351621044921826,0.010419565625000016,-0.14335877862595403,0.0022783709895979605,-9.558312520741655e-05,-0.07231558978489988
1740927288.7678597,None,None,-0.036899435986328166,-0.008734047656250021,-0.07465648854961815,0.002268998458960229,-9.506887646820466e-05,-0.07261488584603436
1740927288.7867055,None,None,-0.04168783930664066,-0.03028186259765625,-0.11282442748091581,0.0022561810187969517,-9.447361256172796e-05,-0.07306493802768045
1740927288.8002021,None,None,0.0014077905761720189,0.12773544697265624,0.05511450381679395,0.0022705031360605436,-9.49481053835328e-05,-0.07285163970854391
1740927288.8196268,None,None,0.07562804204101559,-0.0326760642578125,-0.05175572519083982,0.0023292306755083865,-9.86924731678428e-05,-0.07306037556676073
1740927288.8330584,None,None,0.01098459721679701,0.08703401875,-0.005954198473282268,0.002349403853977134,-9.980008842055447e-05,-0.07308818605412405
1740927288.8460646,None,None,-0.029716831005859312,-0.015916652636718764,-0.03648854961832049,0.0023445798082427504,-9.940776336994051e-05,-0.073236564520327
1740927288.863491,None,None,0.0660512354003906,-0.17153976054687498,-0.05175572519083982,0.0023979807564207876,-0.00010288013304882314,-0.07344519957234823
1740927288.880697,None,None,0.056474428759765605,0.1253412453125,-0.12809160305343514,0.002445428538538359,-0.00010628535905685848,-0.0739553409523539
1740927288.9048142,None,None,0.013378798876953146,0.015207968945312511,-0.12809160305343514,0.0024668732367732872,-0.00010799232290016564,-0.07446551847591633
1740927288.9182062,None,None,0.034926613818359487,0.010419565625000016,1.8566412213740457,0.00251618183917764,-0.00010378009851567248,-0.06713609129727338
1740927288.9394338,None,None,-0.017745822705077963,0.1253412453125,-1.815114503816794,0.002506267169975046,-0.00011003208989312438,-0.0743087570359529
1740927288.9528062,None,None,0.0038019922363281555,-0.018310854296875012,0.12381679389312983,0.0025239337937079252,-0.00011051305726586341,-0.07382381840268099
1740927288.9647713,None,None,0.034926613818359487,0.03675578388671874,-1.860916030534351,0.0025461377470089954,-0.00011917998898886992,-0.08117834499306707
1740927288.980809,None,None,0.027744008837890632,0.09661082539062499,0.13908396946564894,0.0025791460094261977,-0.00012067564942090489,-0.08063408899851189
1740927288.9928257,None,None,0.03971501713867198,-0.15478034892578124,0.1925190839694657,0.002620146396723654,-0.00012251908659220484,-0.07987861368402976
1740927289.004441,None,None,-0.036899435986328166,-0.0015514426757812783,-0.05938931297709926,0.002612159512398904,-0.00012199909560027574,-0.08011799651471718
1740927289.018256,None,None,0.05168602543945311,-0.047041274218749984,-1.8074809160305345,0.0026456391355197026,-0.00013143852730572474,-0.08726218486305919
1740927289.0313177,None,None,0.015773000537109505,-0.04464707255859374,0.009312977099236619,0.002671097569209925,-0.00013300505341317534,-0.08723124125874301
1740927289.0436487,None,None,0.034926613818359487,0.04872679218749998,-1.7845801526717557,0.002694917537873428,-0.00014182105450682699,-0.09428596095753314
1740927289.0579004,None,None,-0.01056321772460933,0.005631162304687465,0.16961832061068716,0.002705809518173176,-0.00014174184762795117,-0.09362280273122664
1740927289.0778828,None,None,0.027744008837890632,0.0008427589843749694,-0.20442748091603047,0.0027375998515888657,-0.00014471965751561993,-0.09443689408594398
1740927289.0903792,None,None,0.05408022709960947,-0.152386147265625,1.9177099236641222,0.002802513888260794,-0.0001412739718581374,-0.08686876241797094
1740927289.110102,None,None,-0.024928427685546817,-0.10689631572265623,-0.18916030534351158,0.0028019588181114026,-0.0001418250850585418,-0.08762131724012989
1740927289.1262708,None,None,0.025349807177734496,-0.003945644335937526,0.04748091603053428,0.002834548717741353,-0.0001438324690885281,-0.08743919908205702
1740927289.152229,None,None,-0.03450523432617181,0.01760217060546876,0.21541984732824426,0.0028312446471793033,-0.00014244666353248485,-0.08659365733920803
1740927289.167084,None,None,0.027744008837890632,-0.08534850078125,0.02458015267175595,0.0028651781125203406,-0.00014466567851226367,-0.08650169424734189
1740927289.1794798,None,None,0.01816720219726564,-0.008734047656250021,-0.10519083969465637,0.002892284532013862,-0.00014694241176974016,-0.08692223604996044
1740927289.2132976,None,None,0.034926613818359487,-0.02070505595703126,0.26885496183206103,0.0029331085731653453,-0.00014865057701590872,-0.08586533577745441
1740927289.2308617,None,None,-0.03211103266601567,0.0008427589843749694,0.10854961832061072,0.002930754637561183,-0.00014774717891402253,-0.0854414116786673
1740927289.2450004,None,None,-0.008169016064452972,0.07027460712890624,0.12381679389312983,0.0029434032933630698,-0.00014792009333826437,-0.08495704867849918
1740927289.2588239,None,None,0.04210921879882812,0.10858183369140623,-0.15862595419847336,0.0029853613127309524,-0.00015162271852838126,-0.08558814872712589
1740927289.2738328,None,None,0.03971501713867198,-0.05182967753906248,0.10091603053435128,0.003028306250986285,-0.00015426405415157207,-0.08519413348390839
1740927289.2901444,None,None,-0.07281246088867177,0.07027460712890624,-0.0212213740458016,0.002999463981750219,-0.00015182394232778334,-0.08528246017554492
1740927289.3027377,None,None,0.034926613818359487,0.03675578388671874,2.0322137404580154,0.003055657360627528,-0.00014675163729870795,-0.07725991347899443
1740927289.3200843,None,None,-0.2140703588378905,-0.05661808085937503,-1.7998473282442746,0.0029217352896936475,-0.00014404722559768546,-0.08437223798252375
1740927289.332328,None,None,-0.005774814404296835,0.02717897724609375,-1.7845801526717557,0.0029187162583242227,-0.0001516879590143631,-0.09142527885209016
1740927289.344378,None,None,-0.029716831005859312,0.041544187207031236,-0.2807633587786258,0.002913508397563405,-0.00015226691949443369,-0.09253953383012635
1740927289.359246,None,None,0.025349807177734496,0.12773544697265624,-0.10519083969465637,0.0029446228222675943,-0.00015496062330686057,-0.09296039438738687
1740927289.3740752,None,None,0.01816720219726564,-0.04464707255859374,-0.22732824427480924,0.0029703058084464547,-0.00015779797675766622,-0.09386368037847491
1740927289.3857522,None,None,0.04210921879882812,0.008025363964843768,-1.860916030534351,0.00299733884340912,-0.00016835505547890258,-0.10121945162069292
1740927289.3981159,None,None,-0.012957419384765467,-0.003945644335937526,-0.2120610687022899,0.003003947850593944,-0.00016960648288832342,-0.10206362556644674
1740927289.4113019,None,None,-0.015351621044921826,-0.03028186259765625,0.04748091603053428,0.00301121543028904,-0.00016969664481472128,-0.10188270261172094
1740927289.4243882,None,None,-0.024928427685546817,0.008025363964843768,-0.11282442748091581,0.003010870151189275,-0.00016989635019707056,-0.10233485040941505
1740927289.4369278,None,None,-0.0033806127441404765,0.041544187207031236,-1.8456488549618322,0.0030090932850269274,-0.0001781495525142981,-0.10963134279697793
1740927289.4502127,None,None,0.013378798876953146,0.010419565625000016,0.009312977099236619,0.003034375653608265,-0.00017995250671335567,-0.10960212614878814
1740927289.462938,None,None,0.013378798876953146,0.010419565625000016,0.016946564885496063,0.003059813087637487,-0.00018175037034838366,-0.10954265764427824
1740927289.4743705,None,None,-0.005774814404296835,-0.0015514426757812783,-1.8685496183206105,0.0030565387911139236,-0.0001900782129837695,-0.11693046411161373
1740927289.485945,None,None,-0.06084145258789064,-0.006339845996093774,-0.10519083969465637,0.003033491996182739,-0.00018824048673499172,-0.11735442880382743
1740927289.4983838,None,None,0.008590395556640651,-0.04225287089843749,-0.10519083969465637,0.003054717930796581,-0.00019028512417631276,-0.11777832496588438
1740927289.5106833,None,None,-0.07520666254882813,0.015207968945312511,-0.08229007633587804,0.003022230077734116,-0.0001874142086674966,-0.1181117637761526
1740927289.5223248,None,None,-0.024928427685546817,0.022390573925781254,-0.05175572519083982,0.0030219259913602096,-0.00018725032827807475,-0.11832452315396852
1740927289.5369725,None,None,0.0014077905761720189,-0.023099257617187507,0.10854961832061072,0.003039850703390456,-0.0001879644881080292,-0.11790402478657461
1740927289.5501025,None,None,0.01816720219726564,-0.023099257617187507,0.26885496183206103,0.0030699867197170644,-0.00018904040221909117,-0.11685017348222357
1740927289.5641851,None,None,0.03253241215820313,0.003236960644531217,0.11618320610687016,0.0031081425762716545,-0.00019163386079539853,-0.11639906823526715
1740927289.5822425,None,None,-0.027322629345702953,0.005631162304687465,0.03984732824427484,0.0031070490214147547,-0.00019094139427498243,-0.11624933099859659
1740927289.5997398,None,None,-0.029716831005859312,-0.12126152568359377,-0.15099236641221392,0.003102524924766522,-0.00019084289386626992,-0.1168532512627504
1740927289.6195734,None,None,0.0014077905761720189,-0.003945644335937526,1.986412213740458,0.0031367639485759356,-0.00018396914932479922,-0.10901486327279883
1740927289.6398315,None,None,0.008590395556640651,-0.003945644335937526,-0.0212213740458016,0.003157800270518389,-0.00018568632625581656,-0.10910485020285962
1740927289.6694846,None,None,0.006196193896484514,0.024784775585937502,0.02458015267175595,0.003177722890995144,-0.00018708305801657998,-0.10901386841558897
1740927289.692124,None,None,-0.03450523432617181,0.022390573925781254,-0.2349618320610687,0.0031688882643317764,-0.00018696302455640203,-0.10994794863732167
1740927289.7148943,None,None,0.01816720219726564,-0.037464467578124994,1.8719083969465649,0.003212613226369413,-0.00018161762676362266,-0.102560410169234
1740927289.7576885,None,None,-0.0033806127441404765,0.053515195507812474,-0.12809160305343514,0.0032246513014107295,-0.00018302417340148227,-0.1030711752453888
1740927289.7735531,None,None,-0.0009864110839843399,-0.09731950908203124,-0.05938931297709926,0.003238832969075914,-0.00018430854462093364,-0.10331060091133291
1740927289.7917829,None,None,-0.04647624262695316,0.04393838886718748,-0.028854961832061043,0.0032235122233221767,-0.0001825166844024314,-0.1034294241963484
1740927289.8044152,None,None,-0.015351621044921826,-0.006339845996093774,0.016946564885496063,0.0032286494343620586,-0.0001825308978620251,-0.10336728303110393
1740927289.8171823,None,None,-0.0392936376464843,-0.17632816386718753,1.8948091603053436,0.0032342964984358787,-0.00017333829219588282,-0.09588797696603985
1740927289.8358383,None,None,-0.008169016064452972,-0.003945644335937526,-0.17389312977099225,0.003241871191900973,-0.0001745618526561401,-0.09657827608866607
1740927289.8485339,None,None,0.025349807177734496,-0.16196295390624998,-0.2883969465648857,0.003270424303073618,-0.00017846113578552918,-0.09772088401108152
1740927289.8622522,None,None,-0.036899435986328166,0.03675578388671874,-1.815114503816794,0.003245052057939648,-0.00018442712242011872,-0.10489382139394972
1740927289.874727,None,None,-0.05365884760742179,0.0008427589843749694,0.10854961832061072,0.003225180508972845,-0.0001814648691213125,-0.10446987315523011
1740927289.9071567,None,None,-0.022534226025390458,0.031967380566406245,0.04748091603053428,0.0032248981569099463,-0.0001807882399324005,-0.10428698426817319
1740927289.930724,None,None,-0.0033806127441404765,0.06788040546874999,-0.14335877862595403,0.003235434145045071,-0.0001821520184526153,-0.104857763753198
1740927289.9483514,None,None,0.03253241215820313,-0.0326760642578125,-0.11282442748091581,0.0032699136001267093,-0.00018582289463103672,-0.10530795146206863
1740927289.9674234,None,None,0.025349807177734496,-0.10210791240234374,0.13908396946564894,0.0033019670337685854,-0.00018803058392498302,-0.10476318492603874
1740927289.98128,None,None,0.0038019922363281555,-0.015916652636718764,-0.1204580152671757,0.003317682855108536,-0.0001898318052751191,-0.10524340938957927
1740927289.9985147,None,None,0.01816720219726564,0.010419565625000016,0.08564885496183217,0.0033446625990824646,-0.00019180331779613182,-0.10490957743159843
1740927290.015099,None,None,0.056474428759765605,-0.047041274218749984,0.10854961832061072,0.0033973265781462826,-0.000196346700716362,-0.10448515862673942
1740927290.0270092,None,None,0.03253241215820313,-0.006339845996093774,0.21541984732824426,0.0034353189237627973,-0.00019886126130622448,-0.10363852438134315
1740927290.040548,None,None,0.013378798876953146,0.022390573925781254,0.23068702290076337,0.003460876664265559,-0.00020001438877377322,-0.10273141320374267
1740927290.0536268,None,None,-0.012957419384765467,-0.025493459277343755,0.0780152671755725,0.0034676782174064896,-0.00019995061692157628,-0.10242713531208497
1740927290.0665147,None,None,-0.005774814404296835,-0.02070505595703126,0.12381679389312983,0.003479542129459815,-0.00020019985571948626,-0.10194185185644201
1740927290.0788426,None,None,-0.029716831005859312,0.12055284199218749,-0.03648854961832049,0.0034740335016065042,-0.00019940206452780882,-0.10208962121485637
1740927290.0990229,None,None,-0.08957187250976562,0.058303598828125,-0.12809160305343514,0.0034275952120425505,-0.00019472422463438714,-0.10259921665868058
1740927290.1104038,None,None,-0.06084145258789064,0.031967380566406245,0.1772519083969466,0.003402310879298104,-0.00019079601148882597,-0.1019028074411344
1740927290.1223993,None,None,0.027744008837890632,0.051120993847656226,0.05511450381679395,0.0034348260665244164,-0.00019360243928295503,-0.10168858400117722
1740927290.1364799,None,None,-0.005774814404296835,0.029573178906249997,1.9787786259541984,0.003460908133047183,-0.00018643239532288987,-0.09387639299930704
1740927290.1522262,None,None,0.022955605517578137,0.09421662373046874,2.0322137404580154,0.0035063332555765247,-0.00018112404413759016,-0.08585183847673623
1740927290.1753032,None,None,-0.012957419384765467,-0.04464707255859374,0.22305343511450393,0.0035126662955637005,-0.00018040908178283447,-0.0849716533946633
1740927290.1906145,None,None,0.013378798876953146,-0.015916652636718764,0.06274809160305339,0.003535247229087236,-0.00018220169250717118,-0.0847244560335059
1740927290.205737,None,None,-0.027322629345702953,0.06309200214843749,0.13908396946564894,0.0035311311819170056,-0.00018079268411812227,-0.08417573860763679
1740927290.239109,None,None,0.1354830835449219,0.09182242207031249,0.20778625954198482,0.0036369723311650945,-0.0001907246702474469,-0.08335544550044816
1740927290.2584095,None,None,-0.0440820409667968,0.010419565625000016,-0.028854961832061043,0.003620707042105799,-0.00018881023154855084,-0.08346981793811101
1740927290.2705073,None,None,0.0014077905761720189,0.07506301044921873,0.18488549618320604,0.003636573084449069,-0.00018929124463598694,-0.08273995819929424
1740927290.2861202,None,None,0.0038019922363281555,0.012813767285156263,-0.27312977099236635,0.003650333127152958,-0.00019173196841915704,-0.08381899430910793
1740927290.2996516,None,None,0.013378798876953146,0.012813767285156263,0.13145038167938927,0.003673879372543761,-0.00019327578741145822,-0.0833002254779678
1740927290.312124,None,None,-0.022534226025390458,0.041544187207031236,-0.09755725190839692,0.0036713338499917963,-0.00019315867778187603,-0.08368590654696118
1740927290.3259363,None,None,0.034926613818359487,-0.06858908916015627,-0.08992366412213748,0.0037076411366808878,-0.00019709511835072944,-0.08404144680256788
1740927290.3376498,None,None,-0.0033806127441404765,-0.003945644335937526,-0.10519083969465637,0.0037180699120998623,-0.00019837455669211997,-0.08445737144158387
1740927290.3504996,None,None,0.008590395556640651,0.04872679218749998,-0.005954198473282268,0.0037374073272677644,-0.00020011843535058086,-0.0844813934851452
1740927290.3639908,None,None,0.0038019922363281555,0.12773544697265624,1.8490076335877863,0.0037684246631322026,-0.00019430524049396603,-0.07717891224061688
1740927290.377324,None,None,-0.012957419384765467,-0.152386147265625,-0.14335877862595403,0.0037718639104762967,-0.00019504759585432343,-0.07774447800733249
1740927290.3895352,None,None,-0.05365884760742179,0.005631162304687465,-0.005954198473282268,0.0037486115146780946,-0.0001923665009425936,-0.07776747428116387
1740927290.402734,None,None,0.027744008837890632,0.022390573925781254,0.08564885496183217,0.003781240983498056,-0.0001950866346906695,-0.0774286078149413
1740927290.4154387,None,None,-0.0033806127441404765,0.010419565625000016,-0.2196946564885498,0.0037903474228568454,-0.00019679204410083417,-0.07829572851740721
1740927290.4289784,None,None,-0.04168783930664066,0.10858183369140623,-0.0670229007633587,0.0037744966591240756,-0.000195197711580177,-0.0785600263553358
1740927290.4424262,None,None,0.027744008837890632,-0.013522450976562517,0.05511450381679395,0.0038068345537306055,-0.00019801995131553846,-0.07834190761788697
1740927290.4620404,None,None,-0.008169016064452972,-0.05422387919921878,-1.7769465648854963,0.0038001877985827464,-0.00020539840403993335,-0.08535982143050512
1740927290.4764397,None,None,0.056474428759765605,-0.16675135722656248,-0.08992366412213748,0.0038513827904363626,-0.00021080703194503348,-0.08571562872847477
1740927290.49448,None,None,-0.036899435986328166,0.019996372265625006,-0.04412213740457993,0.003839248094234483,-0.0002094775383408971,-0.08589066928726928
1740927290.5064716,None,None,0.006196193896484514,0.010419565625000016,-1.8303816793893128,0.003842316521401496,-0.00021806453470474922,-0.09312080773698246
1740927290.5180964,None,None,0.03732081547851562,0.115764438671875,0.16961832061068716,0.003882852051333389,-0.00022114247192516417,-0.09245274476625316
1740927290.532004,None,None,0.01098459721679701,0.060697800488281245,-0.1662595419847328,0.0039028173161128783,-0.0002236735086552886,-0.09311117811414131
1740927290.5449362,None,None,-0.04647624262695316,-0.013522450976562517,0.05511450381679395,0.0038850426596116526,-0.0002212876733108198,-0.09289539704022817
1740927290.5573964,None,None,0.027744008837890632,0.09182242207031249,-0.08229007633587804,0.003917036155977671,-0.0002246746653669903,-0.09322218782828348
1740927290.5717287,None,None,0.0014077905761720189,0.04872679218749998,0.09328244274809161,0.003932420403134235,-0.00022552992168928582,-0.09285558289660639
1740927290.583206,None,None,-0.027322629345702953,0.022390573925781254,-0.2654961832061069,0.003925112018420774,-0.00022572269154157463,-0.0939059738771409
1740927290.5947657,None,None,-0.0009864110839843399,-0.05661808085937503,-0.14335877862595403,0.003936825495815357,-0.0002273101572450348,-0.09447408507723458
1740927290.607769,None,None,0.04450342045898448,0.02717897724609375,-0.1662595419847328,0.003979837476059111,-0.00023223763780314943,-0.09513266871283003
1740927290.6193724,None,None,-0.017745822705077963,-0.023099257617187507,-0.0670229007633587,0.003980802869315242,-0.000232354783653351,-0.09539944438057983
1740927290.6311371,None,None,0.046897622119140614,-0.015916652636718764,-1.8685496183206105,0.004012235775601142,-0.00024403054894862802,-0.10278156173520553
1740927290.643745,None,None,-0.02014002436523432,0.012813767285156263,1.9177099236641222,0.00402758683128064,-0.00023636182352775303,-0.09521052949785502
1740927290.6551456,None,None,-0.015351621044921826,0.029573178906249997,2.0093129770992366,0.004046659103816544,-0.00022866110674119668,-0.08727644211226021
1740927290.6673722,None,None,-0.0033806127441404765,0.041544187207031236,0.009312977099236619,0.004057892445374901,-0.00022950644039531517,-0.08724032717698735
1740927290.678983,None,None,-0.0033806127441404765,-0.03028186259765625,1.9558778625954198,0.004084522961489527,-0.0002228592579587101,-0.07951597264326388
1740927290.6907675,None,None,-0.012957419384765467,0.07985141376953123,0.20015267175572515,0.0040903301921508504,-0.00022226942244415782,-0.07872485958985913
1740927290.702403,None,None,-0.022534226025390458,0.04633259052734373,-0.07465648854961815,0.00408717547064527,-0.00022204397980453574,-0.07901903296810191
1740927290.7139423,None,None,0.03732081547851562,0.02717897724609375,-0.07465648854961815,0.004125663451136982,-0.00022611647488319925,-0.07931320079335565
1740927290.7275002,None,None,-0.008169016064452972,-0.15956875224609374,-0.22732824427480924,0.004131398711156451,-0.00022751446069690145,-0.08021046843438182
1740927290.738678,None,None,0.04929182377929697,0.04872679218749998,-0.2502290076335876,0.004177110404286795,-0.0002331197494253662,-0.08119827700438671
1740927290.7500815,None,None,0.03253241215820313,0.010419565625000016,-0.028854961832061043,0.0042131787462745904,-0.0002366845689033323,-0.08131192201963178
1740927290.7826717,None,None,0.04450342045898448,0.04633259052734373,-1.7235114503816793,0.0042443942512384964,-0.00024763425324596185,-0.08811883693818381
1740927290.795992,None,None,-0.07041825922851563,-0.035070265917968746,-0.07465648854961815,0.004208572568668854,-0.00024404154278013704,-0.08841460650133422
1740927290.8147776,None,None,-0.02014002436523432,-0.013522450976562517,-1.8074809160305345,0.004193806148357887,-0.0002507078078058116,-0.09555436328334019
1740927290.843535,None,None,0.04210921879882812,-0.02070505595703126,-0.08992366412213748,0.004236540763680752,-0.00025522484232932036,-0.09591148238127373
1740927290.856392,None,None,0.008590395556640651,-0.061406484179687526,-0.08229007633587804,0.0042560322664449935,-0.0002573290918754888,-0.09623851967314295
1740927290.874372,None,None,-0.06084145258789064,-0.13562673564453126,0.05511450381679395,0.004227813387538387,-0.0002539025534765207,-0.09602296248146319
1740927290.8936617,None,None,-0.0440820409667968,-0.027887660937500003,0.22305343511450393,0.004212363856421694,-0.0002510017526573088,-0.09514403143402692
1740927290.918188,None,None,-0.03211103266601567,-0.0015514426757812783,0.10854961832061072,0.004204132289219067,-0.00024938462269165194,-0.09471716717466666
1740927290.9330056,None,None,0.013378798876953146,0.022390573925781254,1.9253435114503816,0.004242322355758865,-0.0002440371199588705,-0.0871145251200903
1740927290.9503899,None,None,-0.036899435986328166,0.029573178906249997,-0.05938931297709926,0.004228969069342189,-0.0002427052904056633,-0.08734962750145193
1740927290.962721,None,None,-0.0033806127441404765,-0.035070265917968746,-0.05938931297709926,0.004239083947861411,-0.0002437916823540435,-0.08758472390863112
1740927290.974219,None,None,-0.0033806127441404765,0.015207968945312511,0.07038167938931306,0.004250204769506436,-0.0002443765087968022,-0.08730730628244344
1740927290.988506,None,None,0.022955605517578137,0.03675578388671874,0.032213740458015394,0.004279633967462342,-0.0002470186686133391,-0.08718055628165144
1740927291.0003712,None,None,0.03253241215820313,0.008025363964843768,1.9635114503816795,0.004331320137501304,-0.000242953343795328,-0.0794259000628213
1740927291.0127993,None,None,0.008590395556640651,0.10858183369140623,0.009312977099236619,0.004350468678777302,-0.0002446522525446594,-0.07938833931360406
1740927291.0256014,None,None,-0.0440820409667968,0.11815864033203125,0.08564885496183217,0.0043328567922303945,-0.00024224266142727663,-0.07904934516119842
1740927291.0384233,None,None,-0.03450523432617181,0.003236960644531217,0.22305343511450393,0.004322854416446856,-0.00023999209061068659,-0.07816760150473458
1740927291.0498307,None,None,-0.005774814404296835,0.029573178906249997,0.10091603053435128,0.004332079166520713,-0.00024027870235167039,-0.07776808825202362
1740927291.0612793,None,None,0.05168602543945311,-0.011128249316406269,0.21541984732824426,0.004383073615168533,-0.0002442700598280838,-0.07691621296347807
1740927291.0731683,None,None,0.03013821049804699,0.012813767285156263,-0.10519083969465637,0.004416462017925781,-0.00024793554374475833,-0.07733052318157131
1740927291.0869071,None,None,0.03253241215820313,0.031967380566406245,-1.8685496183206105,0.0044378467318136085,-0.00025849547831498704,-0.08470947153686513
1740927291.098416,None,None,0.0038019922363281555,0.01760217060546876,1.7268702290076337,0.004467474999732322,-0.0002533007674062439,-0.07788918565900825
1740927291.1250992,None,None,-0.015351621044921826,-0.027887660937500003,1.9177099236641222,0.004484764465894754,-0.0002459942895426885,-0.07031408826333685
1740927291.1711974,None,None,-0.05365884760742179,0.022390573925781254,-1.7693129770992364,0.004445227523903842,-0.00024999208491544164,-0.07730008253062601
1740927291.1880317,None,None,-0.0392936376464843,0.06788040546874999,-0.08992366412213748,0.0044291049240733835,-0.000248613362816678,-0.07765429907540966
1740927291.2042108,None,None,0.022955605517578137,0.012813767285156263,-0.14335877862595403,0.004456938143737645,-0.00025187227132711853,-0.07821955871440749
1740927291.218157,None,None,0.034926613818359487,-0.011128249316406269,-0.15099236641221392,0.0044934460569742265,-0.0002560137736502154,-0.07881505636925885
1740927291.2319112,None,None,0.03971501713867198,0.0008427589843749694,0.032213740458015394,0.004535056386252801,-0.0002598045472173002,-0.07868706546922408
1740927291.243674,None,None,-0.022534226025390458,-0.018310854296875012,-0.07465648854961815,0.004531330020157013,-0.00025958002364475144,-0.07898123046360554
1740927291.2551572,None,None,-0.022534226025390458,-0.17393396220703122,1.9558778625954198,0.004543454776502915,-0.0002516437197914232,-0.07125567707030692
1740927291.267366,None,None,-0.03211103266601567,0.029573178906249997,-0.10519083969465637,0.004532111917332365,-0.00025084411283322775,-0.07166927619389178
1740927291.2796397,None,None,0.034926613818359487,0.008025363964843768,-0.03648854961832049,0.00456942150076976,-0.00025451972423627125,-0.07181154009094753
1740927291.2917898,None,None,0.0014077905761720189,-0.15478034892578124,-1.7998473282442746,0.004568923639688137,-0.0002625055827940951,-0.0789184250101283
1740927291.3032744,None,None,0.013378798876953146,-0.0015514426757812783,-0.04412213740457993,0.004591055041858556,-0.0002646892464237724,-0.07909207288479969
1740927291.3165045,None,None,-0.05365884760742179,-0.04225287089843749,-0.005954198473282268,0.004565142984968378,-0.00026201223674741583,-0.0791150891042959
1740927291.329511,None,None,0.09478165532226579,0.019996372265625006,0.24595419847328248,0.004648195378605923,-0.0002688087885797197,-0.07814300490064735
1740927291.3428495,None,None,0.03732081547851562,-0.011128249316406269,0.016946564885496063,0.0046884170212394246,-0.00027245035936062246,-0.07807532628488595
1740927291.3563476,None,None,-0.04168783930664066,0.060697800488281245,-0.12809160305343514,0.004670507773723957,-0.0002711028698494185,-0.07858058103309497
1740927291.3693447,None,None,0.025349807177734496,-0.152386147265625,-0.013587786259542156,0.004701856225805521,-0.0002740144828296656,-0.07863360252316966
1740927291.3819737,None,None,0.05168602543945311,0.10858183369140623,-0.08229007633587804,0.0047519255772500825,-0.0002790358659916728,-0.07895795381827053
1740927291.3947017,None,None,-0.03450523432617181,-0.061406484179687526,0.08564885496183217,0.0047410709360827755,-0.00027740024343782797,-0.07861918208115672
1740927291.4063716,None,None,0.034926613818359487,0.022390573925781254,0.06274809160305339,0.004780281007081231,-0.0002806989783078452,-0.07837072654619247
1740927291.4179344,None,None,0.0014077905761720189,0.10379343037109373,-0.11282442748091581,0.004793932679219177,-0.0002823296324677049,-0.07881571643945406
1740927291.4309766,None,None,0.022955605517578137,0.01760217060546876,-0.0212213740458016,0.0048240274417679415,-0.0002851184955205993,-0.07889896634900209
1740927291.442637,None,None,0.027744008837890632,0.12055284199218749,-0.12809160305343514,0.0048569081997918715,-0.00028865493939732724,-0.07940432253615409
1740927291.4546747,None,None,-0.06562985590820314,0.022390573925781254,0.3604580152671757,0.004825823133496616,-0.00028382559689878114,-0.07798031937481967
1740927291.4678082,None,None,-0.06562985590820314,0.005631162304687465,0.032213740458015394,0.004791685689402161,-0.0002802334845304991,-0.0778525162004433
1740927291.479655,None,None,0.04450342045898448,0.02717897724609375,0.13145038167938927,0.004838383665249945,-0.0002839122695437373,-0.07733262323040428
1740927291.492003,None,None,0.03013821049804699,0.02717897724609375,-1.8532824427480916,0.0048588461322863616,-0.0002941958133133131,-0.08465150972820105
1740927291.5036361,None,None,-0.0440820409667968,0.005631162304687465,-0.30366412213740457,0.004837889610958998,-0.0002934133545777151,-0.08585134952886567
1740927291.5164237,None,None,-0.02014002436523432,0.02717897724609375,0.05511450381679395,0.004837134644777897,-0.0002929071213935312,-0.08563432629711676
1740927291.5293546,None,None,-0.08717767084960926,0.02717897724609375,-0.028854961832061043,0.004786459664827435,-0.00028804524295927044,-0.08574898531519232
1740927291.5443363,None,None,0.008590395556640651,-0.13083833232421876,2.024580152671756,0.004822091301923949,-0.0002819542214750673,-0.07775336421949469
1740927291.562258,None,None,0.013378798876953146,0.022390573925781254,-0.03648854961832049,0.0048443867693916684,-0.0002840935192891058,-0.07789676737348526
1740927291.5761964,None,None,0.013378798876953146,0.058303598828125,-0.0670229007633587,0.004866512662713567,-0.0002863506641049061,-0.07816079980610395
1740927291.6012034,None,None,-0.02014002436523432,0.10139922871093748,1.9253435114503816,0.004880165886903479,-0.00027866176255616023,-0.07055595368790692
1740927291.6178527,None,None,0.006196193896484514,-0.023099257617187507,-0.15099236641221392,0.004896096996552739,-0.00028073101121072386,-0.07115047488924701
1740927291.6385338,None,None,0.013378798876953146,0.019996372265625006,0.10854961832061072,0.004919458731258033,-0.0002823037749042429,-0.0707200295923983
1740927291.6561894,None,None,0.14984829350585938,-0.02070505595703126,1.971145038167939,0.0050584456566351585,-0.0002861906964088839,-0.06293294072244836
1740927291.6905348,None,None,-0.008169016064452972,0.115764438671875,-0.19679389312977102,0.0050641161439281684,-0.00028744405891110655,-0.06370722105560404
1740927291.7167118,None,None,-0.029716831005859312,0.1253412453125,-0.0212213740458016,0.005055293982280419,-0.00028655271791193566,-0.06378825667046997
1740927291.731172,None,None,0.0038019922363281555,0.11337023701171872,-1.8685496183206105,0.005056065802178119,-0.00029503255562278214,-0.07116542191752841
1740927291.7466233,None,None,0.013378798876953146,-0.003945644335937526,0.009312977099236619,0.0050794119854618855,-0.00029698457405325125,-0.07112707480536348
1740927291.7629771,None,None,0.0014077905761720189,-0.011128249316406269,0.12381679389312983,0.005094927232034076,-0.0002976828799485986,-0.07063651753377408
1740927291.776389,None,None,0.01816720219726564,-0.02070505595703126,-0.09755725190839692,0.005121049850290043,-0.0003003681419035648,-0.07102020841263168
1740927291.7934768,None,None,-0.008169016064452972,-0.03028186259765625,-0.08992366412213748,0.005127850903848829,-0.00030124253354802663,-0.07137386491064165
1740927291.809629,None,None,-0.022534226025390458,-0.025493459277343755,-1.8227480916030534,0.005109717484097481,-0.00030783239654712485,-0.07857149050156889
1740927291.8305182,None,None,-0.01056321772460933,-0.011128249316406269,0.0780152671755725,0.00511619032331763,-0.0003079091695544083,-0.07826311632018784
1740927291.8443706,None,None,0.0038019922363281555,0.04633259052734373,-0.2120610687022899,0.0051308745086021375,-0.00031007483938481954,-0.07910034816581661
1740927291.8584878,None,None,-0.017745822705077963,0.11337023701171872,0.04748091603053428,0.0051317415214846476,-0.0003097842677629677,-0.0789126719984804
1740927291.8743796,None,None,-0.01056321772460933,0.11337023701171872,0.28412213740458014,0.0051398112766743624,-0.0003090569245772677,-0.07779033344685488
1740927291.889169,None,None,0.008590395556640651,-0.011128249316406269,0.06274809160305339,0.005160215667402266,-0.0003104755970777767,-0.07754212003321677
1740927291.9159255,None,None,0.025349807177734496,-0.006339845996093774,-0.19679389312977102,0.005190996353901588,-0.0003140337051198303,-0.0783189231602866
1740927291.931461,None,None,-0.015351621044921826,0.008025363964843768,-0.013587786259542156,0.005193132204809925,-0.00031414376849999277,-0.07837232694530546
1740927291.9468107,None,None,0.027744008837890632,0.1253412453125,0.032213740458015394,0.005227723518893631,-0.00031697918305421285,-0.07824479383979958
1740927291.9591377,None,None,0.013378798876953146,-0.003945644335937526,0.1925190839694657,0.005253095925214226,-0.0003182299918798684,-0.07748412962879336
1740927291.9714572,None,None,0.03013821049804699,0.051120993847656226,-0.08229007633587804,0.005288758182567131,-0.0003216826403207387,-0.07780869600439302
1740927291.9852946,None,None,0.008590395556640651,-0.14999194560546875,-0.19679389312977102,0.005307539361470998,-0.00032414061526466257,-0.0785855841447014
1740927291.9992523,None,None,-0.027322629345702953,0.024784775585937502,0.0780152671755725,0.00530184587469838,-0.00032311156940807354,-0.07827727711676141
1740927292.015692,None,None,0.013378798876953146,-0.0015514426757812783,0.02458015267175595,0.00532603108332614,-0.0003250254019500875,-0.07817991613327842
1740927292.0287127,None,None,-0.036899435986328166,-0.03028186259765625,-0.08229007633587804,0.005311715110122222,-0.0003239769311282827,-0.07850469359504983
1740927292.0547707,None,None,0.03253241215820313,-0.03985866923828124,-1.8380152671755723,0.0053343524517676395,-0.00033449121538918925,-0.08576373670814347
1740927292.0734768,None,None,0.020561403857422,0.010419565625000016,-0.1662595419847328,0.005362622904062425,-0.0003376662198270294,-0.0864213068251195
1740927292.0924118,None,None,0.006196193896484514,-0.0015514426757812783,-0.34183206106870223,0.005378745916226568,-0.0003405789554918037,-0.08777241796577939
1740927292.1054661,None,None,-0.03450523432617181,0.053515195507812474,-0.028854961832061043,0.005367039047161213,-0.0003395142665281525,-0.08788767048503476
1740927292.1275642,None,None,0.006196193896484514,-0.018310854296875012,-0.14335877862595403,0.005384778898094706,-0.00034164435160828,-0.08845511064020485
1740927292.1412337,None,None,0.025349807177734496,0.06788040546874999,-0.11282442748091581,0.005417257876873401,-0.0003449619495978812,-0.08890200579892119
1740927292.1555831,None,None,-0.024928427685546817,-0.02070505595703126,0.1772519083969466,0.005414538392558337,-0.0003437265224755931,-0.08820335420632117
1740927292.168415,None,None,0.0038019922363281555,0.04872679218749998,0.06274809160305339,0.005432334926093066,-0.00034488959761250085,-0.0879567727529288
1740927292.184853,None,None,0.03253241215820313,-0.006339845996093774,-1.6853435114503816,0.005456625778856003,-0.00035497633025145743,-0.09461423423380902
1740927292.1979327,None,None,-0.017745822705077963,-0.011128249316406269,1.971145038167939,0.005475211712826905,-0.0003470916193737889,-0.08683141672452015
1740927292.2110286,None,None,-0.005774814404296835,-0.14520354228515625,0.0016793893129771753,0.005485336589598115,-0.0003478538706321474,-0.08682576005369522
1740927292.2236278,None,None,0.04210921879882812,0.12773544697265624,-0.05175572519083982,0.0055311698850515996,-0.00035211749187172227,-0.08703107339298624
1740927292.2361133,None,None,-0.029716831005859312,0.01760217060546876,0.06274809160305339,0.005523931568581088,-0.00035100677666574485,-0.08678426269332826
1740927292.251865,None,None,-0.01056321772460933,-0.003945644335937526,-0.04412213740457993,0.005530088834385784,-0.000351630433105249,-0.08695946180539817
1740927292.2845845,None,None,0.008590395556640651,-0.015916652636718764,-0.08229007633587804,0.0055503739218527495,-0.00035372582402400495,-0.08728539815049306
1740927292.3106573,None,None,0.01816720219726564,-0.07098329082031252,-0.1357251908396946,0.005577512487845884,-0.0003567056329821384,-0.08782240595533153
1740927292.322955,None,None,0.008590395556640651,-0.05182967753906248,-0.10519083969465637,0.005597785170568888,-0.0003589139455615732,-0.08823890373944424
1740927292.337934,None,None,-0.012957419384765467,-0.15956875224609374,0.26885496183206103,0.005605110560986351,-0.0003581252751880653,-0.08717818173899634
1740927292.3569572,None,None,0.01816720219726564,0.04872679218749998,2.016946564885496,0.005651646065352351,-0.00035240108603724744,-0.07921311989296317
1740927292.3709214,None,None,0.15942510014648437,0.0008427589843749694,0.05511450381679395,0.005787887800493597,-0.0003644062769911735,-0.07899487686118972
1740927292.3856375,None,None,0.008590395556640651,-0.006339845996093774,0.1925190839694657,0.0058115479790581065,-0.0003654397450403397,-0.07823411448749004
1740927292.4161649,None,None,0.008590395556640651,0.029573178906249997,-0.05938931297709926,0.005832991927752479,-0.00036750290268483293,-0.07846815075462114
1740927292.4331944,None,None,0.04450342045898448,0.029573178906249997,0.09328244274809161,0.005883284418093828,-0.0003714324994124384,-0.0780992069789101
1740927292.4515152,None,None,-0.08238926752929676,0.06548620380859374,0.0016793893129771753,0.00583627959749713,-0.0003669703139754012,-0.07809215801228545
1740927292.470265,None,None,0.008590395556640651,0.029573178906249997,-0.25786259541984746,0.0058558526021108715,-0.00036986026187266587,-0.0791100620201382
1740927292.5012217,None,None,-0.027322629345702953,0.041544187207031236,-0.09755725190839692,0.0058496018144307705,-0.0003696137893924581,-0.07949505401521631
1740927292.5321739,None,None,-0.027322629345702953,-0.035070265917968746,-0.0670229007633587,0.005843521999252344,-0.00036923787123166463,-0.07975951609008111
1740927292.5443242,None,None,-0.022534226025390458,-0.0015514426757812783,-1.860916030534351,0.005824122612392427,-0.0003767032151015089,-0.08710901003626256
1740927292.5688932,None,None,-0.04647624262695316,-0.03985866923828124,-1.7998473282442746,0.005787046509683766,-0.0003822950677337101,-0.09421852466484641
1740927292.586932,None,None,0.034926613818359487,0.005631162304687465,-0.0212213740458016,0.005829042913130985,-0.0003860641111913014,-0.09430437344713777
1740927292.6029801,None,None,-0.04647624262695316,-0.015916652636718764,0.10854961832061072,0.005810123707260352,-0.0003836483191338736,-0.09387778235714697
1740927292.620137,None,None,0.03971501713867198,0.01760217060546876,-0.30366412213740457,0.005853095156216445,-0.00038895787098472526,-0.09507902543626676
1740927292.6476336,None,None,0.01098459721679701,-0.16914555888671873,0.23068702290076337,0.005879390428310272,-0.00039003249877648226,-0.09417005309148889
1740927292.665006,None,None,0.0038019922363281555,-0.003945644335937526,-0.005954198473282268,0.005897961828043417,-0.0003916126523907978,-0.09419553138317426
1740927292.6835904,None,None,-0.005774814404296835,0.12773544697265624,-0.09755725190839692,0.0059083356529699045,-0.0003929144447615515,-0.09458278710261163
1740927292.6973586,None,None,-0.0009864110839843399,0.022390573925781254,0.02458015267175595,0.005923559655751568,-0.0003940350758338751,-0.09448769272611447
1740927292.7100062,None,None,-0.02014002436523432,-0.16435715556640623,-0.0212213740458016,0.005923617769884523,-0.00039399827402367805,-0.09457347523809298
1740927292.7424192,None,None,0.03253241215820313,-0.018310854296875012,0.016946564885496063,0.00596448445080667,-0.00039752393585331893,-0.0945084352118837
1740927292.7562287,None,None,-0.036899435986328166,0.12294704365234374,-1.7998473282442746,0.005934412748221959,-0.0004039288334237661,-0.10161886489827045
1740927292.780992,None,None,0.034926613818359487,-0.023099257617187507,-0.2196946564885498,0.005975082170644429,-0.0004086820429173212,-0.10248951814958854
1740927292.8021982,None,None,-0.03450523432617181,-0.05661808085937503,-1.761679389312977,0.00594736373650175,-0.0004151376946454636,-0.10945041705646699
1740927292.8147779,None,None,0.01098459721679701,0.03675578388671874,-1.7769465648854963,0.00595459243073925,-0.00042494125560031367,-0.11647263178688336
1740927292.828134,None,None,-0.0440820409667968,-0.05661808085937503,0.13908396946564894,0.005938387671083918,-0.00042252370982049536,-0.11592865035990252
1740927292.848509,None,None,0.0014077905761720189,-0.03028186259765625,-1.8685496183206105,0.005937296038627891,-0.00043206244546799554,-0.12331357866533535
1740927292.8620813,None,None,0.013378798876953146,0.005631162304687465,-0.15862595419847336,0.005962535385949444,-0.00043511023574857377,-0.12394629177664636
1740927292.8894138,None,None,0.056474428759765605,-0.08056009746093751,-0.12809160305343514,0.006021490624212605,-0.0004412507427844056,-0.12445837646255435
1740927292.926681,None,None,0.0038019922363281555,0.12773544697265624,1.7192366412213742,0.006058333584551896,-0.00043551357482240853,-0.11767454045988283
1740927292.968759,None,None,0.020561403857422,0.0008427589843749694,-0.08229007633587804,0.006090087684283007,-0.00043885937914694593,-0.11800461241473914
1740927292.986074,None,None,0.0014077905761720189,-0.003945644335937526,-0.1815267175572517,0.006106141755425212,-0.0004412228615770132,-0.11872663116444364
1740927292.999396,None,None,-0.03450523432617181,0.024784775585937502,0.04748091603053428,0.006096687777127809,-0.00043986118324206805,-0.11854428736513838
1740927293.02979,None,None,0.04929182377929697,-0.003945644335937526,-0.0670229007633587,0.006150895331556281,-0.0004453822682975916,-0.11881396851430412
1740927293.043318,None,None,-0.005774814404296835,-0.035070265917968746,0.016946564885496063,0.006163496043938849,-0.0004463595083493754,-0.11875206688959862
1740927293.063179,None,None,0.04450342045898448,0.06548620380859374,-0.028854961832061043,0.006214656235529253,-0.000451433750068645,-0.11887091669016416
1740927293.0758033,None,None,-0.08238926752929676,0.003236960644531217,-0.15099236641221392,0.006166237721004428,-0.000447218133762157,-0.11947227118113404
1740927293.0907078,None,None,-0.005774814404296835,-0.023099257617187507,-0.11282442748091581,0.006177354576365375,-0.00044874800376295274,-0.11992281299920109
1740927293.1035163,None,None,-0.029716831005859312,-0.011128249316406269,-1.860916030534351,0.006151976642115573,-0.00045615072338204134,-0.12727743549725093
1740927293.1171877,None,None,0.015773000537109505,0.01760217060546876,0.02458015267175595,0.006181350703840987,-0.00045878065395236534,-0.12718640157225333
1740927293.1339095,None,None,-0.0033806127441404765,-0.08774270244140625,0.0016793893129771753,0.006195653424630584,-0.00046001008379156896,-0.12718574805169452
1740927293.145689,None,None,0.025349807177734496,0.031967380566406245,0.13145038167938927,0.006233658566191002,-0.00046297439636238183,-0.12667245285035753
1740927293.1581845,None,None,0.0014077905761720189,-0.0015514426757812783,-1.7082442748091604,0.0062341623951618205,-0.00047225646149010064,-0.13342484641608277
1740927293.1738608,None,None,-0.036899435986328166,-0.008734047656250021,0.032213740458015394,0.00622295275297594,-0.00047066785504280677,-0.13330442487113872
1740927293.1884897,None,None,-0.01056321772460933,-0.05901228251953128,0.1619847328244275,0.006233439806755534,-0.00047061214161518537,-0.13267133538801876
1740927293.2132797,None,None,-0.07999506586914062,0.008025363964843768,-0.09755725190839692,0.006186931377520495,-0.0004659629851017339,-0.13306320811859654
1740927293.22647,None,None,-0.0440820409667968,-0.03028186259765625,-0.07465648854961815,0.006168296097981864,-0.00046409217915754377,-0.1333645647559246
1740927293.2469099,None,None,-0.017745822705077963,-0.023099257617187507,-0.0670229007633587,0.006170083220585327,-0.0004643385225966702,-0.13363570173300335
1740927293.258762,None,None,0.008590395556640651,0.03436158222656249,-1.7845801526717557,0.006174580097105502,-0.0004744884471190664,-0.1406901848498078
1740927293.270245,None,None,-0.06323565424804678,0.005631162304687465,0.0016793893129771753,0.006141606141438456,-0.0004705398167496697,-0.14069106618900384
1740927293.2868266,None,None,0.04450342045898448,-0.0015514426757812783,-0.2960305343511451,0.006189556821563233,-0.00047707116569462195,-0.14186748978877572
1740927293.301382,None,None,0.022955605517578137,-0.013522450976562517,-0.07465648854961815,0.006223149564656597,-0.00048083073381251175,-0.14216973396443364
1740927293.3144915,None,None,0.05168602543945311,-0.03028186259765625,0.23832061068702304,0.00628259104325296,-0.00048574135493354044,-0.14123580193607205
1740927293.328796,None,None,-0.0392936376464843,-0.08534850078125,0.06274809160305339,0.006269083655590843,-0.0004835428041558037,-0.14099517592552988
1740927293.3438358,None,None,0.0014077905761720189,0.10139922871093748,2.001679389312977,0.006307265557321598,-0.00047622231920187673,-0.1330966454162216
1740927293.3566954,None,None,0.06844543706054695,0.0008427589843749694,-0.0212213740458016,0.006376947792443178,-0.00048390369428651976,-0.13318600271557546
1740927293.3698437,None,None,0.05886863041992196,0.05590939716796875,0.11618320610687016,0.006440873013246207,-0.0004902130689194958,-0.1327326452323429
1740927293.3854997,None,None,-0.058447250927734284,0.12773544697265624,-0.07465648854961815,0.00641090654193505,-0.0004869164699277813,-0.13303303382592044
1740927293.3992515,None,None,0.01816720219726564,0.003236960644531217,0.16961832061068716,0.0064434142600054535,-0.0004893776019525953,-0.1323685335714075
1740927293.4209073,None,None,0.013378798876953146,0.12294704365234374,-0.04412213740457993,0.006470007275682303,-0.0004923896255247296,-0.1325480213628037
1740927293.4349902,None,None,0.0038019922363281555,0.012813767285156263,-0.15099236641221392,0.006488021636830212,-0.0004950307313037808,-0.13314956420705917
1740927293.456453,None,None,0.034926613818359487,0.03914998554687499,-0.013587786259542156,0.006532013994937598,-0.0004999223048537591,-0.1332084172237811
1740927293.473311,None,None,0.0014077905761720189,0.008025363964843768,-0.1204580152671757,0.006548659137541522,-0.0005022556172186093,-0.13368934395158633
1740927293.5028625,None,None,-0.01056321772460933,0.003236960644531217,-0.25786259541984746,0.006554451949117904,-0.0005041089907135894,-0.13471297221423165
1740927293.53288,None,None,0.01098459721679701,0.010419565625000016,-0.15099236641221392,0.00657833640044855,-0.00050748306248845,-0.13531458676892813
1740927293.556867,None,None,0.03013821049804699,-0.023099257617187507,-0.03648854961832049,0.006618614437548948,-0.0005121549347652453,-0.1354639741081709
1740927293.5753434,None,None,-0.0392936376464843,0.12294704365234374,1.9787786259541984,0.0066253782213194145,-0.0005012238615815512,-0.1276542624442482
1740927293.5902123,None,None,-0.06323565424804678,0.12294704365234374,-0.03648854961832049,0.006591587784173353,-0.0004970952785403782,-0.1278024346738812
1740927293.6060228,None,None,-0.036899435986328166,-0.17632816386718753,2.016946564885496,0.006599905241501622,-0.00048609101839904104,-0.11984063092325561
1740927293.6310701,None,None,0.01098459721679701,-0.06619488750000002,0.032213740458015394,0.006624738729092063,-0.0004885924818944831,-0.1197159858633417
1740927293.6459625,None,None,-0.08478346918945312,0.051120993847656226,2.0322137404580154,0.006594854121189099,-0.0004729266872496193,-0.11169258729068636
1740927293.6684432,None,None,-0.08957187250976562,-0.015916652636718764,0.009312977099236619,0.006539146446228701,-0.0004659221231111192,-0.11165717927472493
1740927293.6853933,None,None,0.07083963872070309,0.051120993847656226,-0.09755725190839692,0.0066089563425106015,-0.000474642035648877,-0.11204355125055464
1740927293.6987336,None,None,0.0038019922363281555,-0.04943547587890623,-0.15099236641221392,0.006625412229154213,-0.0004772442002258804,-0.11264112429026663
1740927293.7106342,None,None,0.03732081547851562,-0.011128249316406269,-0.2120610687022899,0.006667852326633205,-0.000483324712035495,-0.11347990564474919
1740927293.7254806,None,None,0.006196193896484514,-0.025493459277343755,-1.8456488549618322,0.00666875646306989,-0.0004938104098685768,-0.12077059172484564
1740927293.7406194,None,None,-0.01056321772460933,0.019996372265625006,0.29938931297709925,0.0066789843316934945,-0.0004930334571821524,-0.11959079603142557
1740927293.753807,None,None,0.025349807177734496,-0.0015514426757812783,-0.005954198473282268,0.0067144632030097405,-0.0004970749091761705,-0.11961664440689719
1740927293.7744534,None,None,-0.03450523432617181,0.005631162304687465,-0.08229007633587804,0.006701666556762276,-0.0004957195379618214,-0.11994405644894487
1740927293.788778,None,None,0.01816720219726564,-0.023099257617187507,0.20015267175572515,0.006733534611471243,-0.0004981505652341065,-0.11915591102138469
1740927293.8020139,None,None,0.015773000537109505,0.04872679218749998,-1.8532824427480916,0.006742216100776252,-0.0005095910432201549,-0.12647748868596617
1740927293.8175344,None,None,-0.0009864110839843399,0.01760217060546876,0.18488549618320604,0.00675903598149029,-0.0005102703694988252,-0.12575066885129146
1740927293.830349,None,None,0.013378798876953146,-0.018310854296875012,0.14671755725190838,0.006786863732512171,-0.0005125197140107984,-0.12517440409464334
1740927293.8475444,None,None,-0.0033806127441404765,0.07266880878906248,-1.860916030534351,0.006780524490656707,-0.0005221627608107479,-0.13252701614587567
1740927293.8600683,None,None,-0.027322629345702953,0.005631162304687465,0.07038167938931306,0.006775346126944476,-0.0005207989357142907,-0.13225332053308783
1740927293.8714647,None,None,0.03971501713867198,-0.0326760642578125,-0.013587786259542156,0.006822642724801821,-0.0005263694391282427,-0.13231103135896913
1740927293.889284,None,None,-0.024928427685546817,0.03675578388671874,-0.2883969465648857,0.006815648813212356,-0.0005268489152703078,-0.13345415621822582
1740927293.9017901,None,None,-0.024928427685546817,-0.16435715556640623,-0.15099236641221392,0.006809975166108953,-0.000526689453949404,-0.1340547455355643
1740927293.9152477,None,None,-0.03450523432617181,0.09661082539062499,-0.15862595419847336,0.006796438999541541,-0.0005255895264382019,-0.13468554409326
1740927293.934897,None,None,-0.012957419384765467,-0.16675135722656248,0.09328244274809161,0.006802568614554159,-0.0005254739753176459,-0.13432145882265664
1740927293.9472632,None,None,0.01816720219726564,-0.13562673564453126,-0.24259541984732813,0.006830030131215022,-0.000529963915915794,-0.1352837183393091
1740927293.9597192,None,None,-0.0033806127441404765,-0.0015514426757812783,-0.1204580152671757,0.006841600070590912,-0.0005317673729823754,-0.13576375139823235
