timestamp,gps_lat,gps_lng,imu_accel_x,imu_accel_y,imu_gyro_z,estimated_x,estimated_y,estimated_heading
1740927642.532345,None,None,0.054994812133789095,-0.021562180151367127,-0.0743053435114498,0.0,0.0,-0.00027019731898972305
1740927642.545722,None,None,0.023870190551757764,0.01913924807128914,-0.21934351145038145,5.7976284433341e-07,-3.6825907283647064e-10,-0.001118605748553581
1740927642.5600052,None,None,-7.182604980471297e-05,0.011956643090820396,0.06309923664122197,1.4042740905803932e-06,-5.855259576047514e-10,-0.0008925264738555242
1740927642.5721147,None,None,0.03823540051269525,0.043081264672851616,-0.09720610687022857,2.8547303861402135e-06,-2.015680309427797e-09,-0.0012790997983130516
1740927642.5838373,None,None,-0.050350060913086025,-0.026350583471679623,0.15470229007633618,2.8841390139122863e-06,-1.1013520340816436e-10,-0.0006789900229747535
1740927642.6001923,None,None,-0.004860229370117208,-0.14366646481933587,-1.7918625954198468,2.069206380175469e-06,-1.801085567646631e-08,-0.0077283992716738635
1740927642.6118748,None,None,0.004716577270507782,0.03589865969238287,-0.051404580152671464,3.0369611641015343e-06,-2.19320357863711e-08,-0.00794980094114721
1740927642.6252964,None,None,0.033446997192382755,0.021533449731445387,0.21577099236641262,5.458112751973232e-06,-2.892366039303291e-08,-0.0071125032019827925
1740927642.6543612,None,None,0.007110778930664141,-0.01916797849121088,-0.12010687022900735,6.862105511927576e-06,-3.7272592904131406e-08,-0.0075976795269818865
1740927642.6672382,None,None,-0.06471527087402351,-0.0048027685302733936,0.20813740458015317,4.772402843919692e-06,-1.8292318315502936e-08,-0.006782907199839401
1740927642.6932847,None,None,0.17709909680175784,0.011956643090820396,0.07073282442748141,1.5873331413084193e-05,-8.088334401537501e-08,-0.006509375080190697
1740927642.707225,None,None,-0.04795585925292967,0.01913924807128914,-0.1735419847328239,1.4935222564151792e-05,-7.712904721702791e-08,-0.007202597126648238
1740927642.7187128,None,None,0.011899182250976637,0.08378269289550788,0.11653435114503852,1.7755605842724914e-05,-8.683980868029904e-08,-0.006745583340325948
1740927642.7301795,None,None,0.016687585571289132,0.0023798364501953495,0.02493129770992386,2.103339761641208e-05,-1.0170958889134795e-07,-0.006650854688240683
1740927642.7452905,None,None,0.014293383911132773,0.07420588625488286,2.0325648854961837,2.6661740796880972e-05,-2.364075632131559e-08,0.0014130967399199256
1740927642.7601204,None,None,-0.019225439331054694,0.05984067629394538,-0.2269770992366409,2.6866429189012153e-05,-1.7265213373233694e-08,0.0005126417242633959
1740927642.774889,None,None,-0.004860229370117208,-0.016773776831054632,0.27683969465648905,2.8748434857914285e-05,6.766725851155181e-09,0.0016124336083960156
1740927642.786769,None,None,-0.009648632690429704,-0.031138986791992118,0.02493129770992386,2.975658194068191e-05,1.8535969814653202e-08,0.0017121798709948612
1740927642.798153,None,None,0.007110778930664141,-0.016773776831054632,-1.7994961832061063,2.9916328884747076e-05,-1.0070652079618303e-07,-0.005437430093933504
1740927642.8149238,None,None,-0.04795585925292967,-0.14845486813964837,0.10126717557251941,2.6907792933248526e-05,-8.512720920010164e-08,-0.005036815897412561
1740927642.827084,None,None,-0.05753266589355466,0.0071682397705079,-0.013236641221373802,2.191330173911269e-05,-6.836771045404341e-08,-0.0050910088120555514
1740927642.8395405,None,None,-0.02161964099121083,-1.4365209960898184e-05,0.23103816793893173,2.060369022365524e-05,-4.2919209802642815e-08,-0.00417401877328608
1740927642.854642,None,None,0.011899182250976637,0.07660008791503911,-1.707893129770992,2.06916010164849e-05,-1.7007259336485438e-07,-0.010965572679000425
1740927642.8658745,None,None,0.08372523205566407,-0.06705201169433589,2.055465648854962,3.485099503266186e-05,-7.592859542287253e-08,-0.002795237333625673
1740927642.8776894,None,None,-0.03598485095214854,0.021533449731445387,-0.2880458015267173,3.134369003635259e-05,-7.797571983960075e-08,-0.00394135264650997
1740927642.8958948,None,None,0.03823540051269525,0.03589865969238287,0.047832061068702636,3.80460975656205e-05,-9.878113623718556e-08,-0.003752011281137295
1740927642.9077342,None,None,-0.009648632690429704,0.009562441430664148,0.11653435114503852,3.8495841103141796e-05,-8.659169424912394e-08,-0.0032893226881761835
1740927642.919317,None,None,-0.01204283435058584,0.009562441430664148,-0.1735419847328239,3.809053725466577e-05,-9.58349582712056e-08,-0.003980242326761679
1740927642.9337058,None,None,-0.0024660277099608496,-0.0048027685302733936,0.15470229007633618,3.938731022129619e-05,-8.354012304624076e-08,-0.003365660997535146
1740927642.9449513,None,None,-0.02401384265136719,-0.021562180151367127,-0.272778625954198,3.668876578306096e-05,-9.4356434358617e-08,-0.004451344981452846
1740927642.9565425,None,None,-0.016831237670898336,-0.007196970190429641,0.09363358778625996,3.525898996051332e-05,-7.684414525068985e-08,-0.004079676016078007
1740927642.9708548,None,None,0.026264392211914123,-0.17239688474121084,0.00203053435114553,4.078378807102575e-05,-9.605865048615641e-08,-0.004072299953482225
1740927642.983074,None,None,0.18188750012207033,0.043081264672851616,0.009664122137404974,7.39232395203897e-05,-2.2674736460049184e-07,-0.004034529337682705
1740927642.9946017,None,None,-0.09105148913574213,-0.007196970190429641,0.02493129770992386,6.0749639015413254e-05,-1.6710459714695546e-07,-0.003935992331556478
1740927643.0089726,None,None,0.03823540051269525,-0.15803167478027336,-1.7842290076335874,6.78358184928149e-05,-4.0218813460774835e-07,-0.011034686149626107
1740927643.023009,None,None,-0.079080480834961,-0.014379575170898384,-0.09720610687022857,5.543437738168488e-05,-3.7272808850459243e-07,-0.011423158725384547
1740927643.0344071,None,None,-0.04556165759277353,0.01913924807128914,-1.8300305343511445,4.6122654165593985e-05,-5.73399877712207e-07,-0.018705275124375278
1740927643.0532856,None,None,-0.031196447631835822,0.12208991945800787,-1.776595419847328,3.916174541502783e-05,-7.773746087571636e-07,-0.025775892080776415
1740927643.0648017,None,None,-0.007254431030273345,-0.026350583471679623,-1.8300305343511445,3.6664780086209774e-05,-1.0103821238130296e-06,-0.033060056446395994
1740927643.0763724,None,None,0.045418005493164104,-0.021562180151367127,2.0478320610687026,4.995900920679487e-05,-8.572376428309307e-07,-0.024918258971076516
1740927643.0895283,None,None,-7.182604980471297e-05,-1.4365209960898184e-05,0.0860000000000003,5.170407881317667e-05,-8.711574169327109e-07,-0.02457968899102561
1740927643.1013324,None,None,-0.031196447631835822,0.01674504641113289,1.9333282442748096,4.890409092227692e-05,-5.664623390809317e-07,-0.016892151605652002
1740927643.1131585,None,None,-0.014437036010742199,-0.01916797849121088,-1.8300305343511445,4.475737732992863e-05,-7.747691115189826e-07,-0.024174292558323453
1740927643.1279435,None,None,0.0023223756103516457,0.014350844750976643,0.2844732824427485,4.680404739575924e-05,-7.546456328761271e-07,-0.023045887130450197
1740927643.1418288,None,None,-0.016831237670898336,0.011956643090820396,-0.16590839694656445,4.389744977309578e-05,-7.342797539108598e-07,-0.023708836578704384
1740927643.1544213,None,None,-0.02401384265136719,-0.007196970190429641,0.21577099236641262,3.948439784812187e-05,-6.331995165971172e-07,-0.02285356811647428
1740927643.1700656,None,None,0.011899182250976637,-0.15324327145996086,-0.10483969465648801,4.3014850065339936e-05,-6.880004913207767e-07,-0.023273428937294612
1740927643.182261,None,None,-0.016831237670898336,0.014350844750976643,0.00203053435114553,3.977381421794644e-05,-6.289795202627002e-07,-0.02326819743236849
1740927643.193633,None,None,0.009504980590820278,-0.011985373510742137,-0.14300763358778568,4.2720611785762245e-05,-6.831009504825685e-07,-0.023839794762721304
1740927643.2082942,None,None,-0.04556165759277353,0.0071682397705079,0.07073282442748141,3.201326670261086e-05,-4.908829352464714e-07,-0.023561283591614798
1740927643.219733,None,None,-0.04795585925292967,-0.014379575170898384,0.23867175572519117,2.0195416289091007e-05,-2.491235904933062e-07,-0.022614769018321598
1740927643.2311075,None,None,-0.028802245971679685,-0.023956381811523375,-0.051404580152671464,1.2446165320504417e-05,-1.0731748955046097e-07,-0.02282177444860323
1740927643.248657,None,None,0.03584119885253911,-0.007196970190429641,-0.05903816793893091,2.1552179242663138e-05,-2.5230003084377585e-07,-0.023059115846072807
1740927643.2599921,None,None,-0.0024660277099608496,-0.02874478513183587,0.009664122137404974,2.0809407307526035e-05,-2.2344708923628477e-07,-0.023023222960585413
1740927643.2714956,None,None,-0.03598485095214854,-0.13169545651855463,-0.02850381679389269,1.0758728177436788e-05,-3.306545916373926e-08,-0.02313906906107253
1740927643.2842703,None,None,0.033446997192382755,0.05026386965332036,-0.05903816793893091,1.959500007094691e-05,-1.8358541992906785e-07,-0.023376308433647675
1740927643.2958884,None,None,-0.07189787585449214,-0.021562180151367127,0.17760305343511495,-8.369792638210473e-07,2.213591924369104e-07,-0.022672558888125013
1740927643.3074431,None,None,-0.02401384265136719,0.07420588625488286,-0.0743053435114498,-8.653961219328088e-06,3.7595875846759727e-07,-0.022970358434165644
1740927643.3187633,None,None,0.007110778930664141,0.014350844750976643,0.09363358778625996,-7.639010507798268e-06,3.7837508097893813e-07,-0.022600413959549818
1740927643.3329976,None,None,0.02865859387207026,-0.021562180151367127,0.05546564885496208,-2.0288382520113843e-07,2.5199155550443755e-07,-0.022382159959164743
1740927643.3452764,None,None,0.043023803833007745,-0.023956381811523375,2.040198473282443,1.2764918498000529e-05,1.137510390674896e-07,-0.014273061068070088
1740927643.356835,None,None,0.0023223756103516457,0.0071682397705079,2.040198473282443,1.3872278041425999e-05,1.8221769071012168e-07,-0.006163296522191339
1740927643.3727803,None,None,0.031052795532226618,-0.16282007810058585,0.05546564885496208,2.299829760479538e-05,6.667471287020109e-09,-0.005943038654015162
1740927643.3847718,None,None,-0.03359064929199218,0.09096529787597663,-0.13537404580152623,1.2394517487685748e-05,1.870494448296091e-07,-0.006481397606366776
1740927643.3958077,None,None,0.0023223756103516457,-0.014379575170898384,0.2005038167938935,1.273931029162137e-05,1.7848318741590235e-07,-0.005684650468305777
1740927643.4174309,None,None,-0.01204283435058584,0.009562441430664148,-0.15064122137404556,8.438726942954576e-06,2.3759841025125018e-07,-0.006283613562358255
1740927643.4299479,None,None,-0.0024660277099608496,0.0023798364501953495,2.040198473282443,7.629785724050465e-06,2.8541690369954075e-07,0.001825417297919264
1740927643.4426594,None,None,-0.019225439331054694,-0.06465781003417964,1.9867633587786264,1.2602291873582902e-06,3.98253541336694e-07,0.009722663973607838
1740927643.4600284,None,None,-0.01204283435058584,-1.4365209960898184e-05,0.03256488549618375,-3.4653721439109434e-06,4.332613982976294e-07,0.009853705404442597
1740927643.4714265,None,None,-0.028802245971679685,-0.011985373510742137,-0.12010687022900735,-1.3923901540011287e-05,5.360176662681308e-07,0.009377985670676152
1740927643.4842036,None,None,0.026264392211914123,-0.009591171850585889,0.04019847328244319,-6.3025385497451164e-06,3.9973147889843446e-07,0.009539275803345395
1740927643.499976,None,None,-0.019225439331054694,-0.06944621335449214,-1.8300305343511445,-1.3889837620889636e-05,4.7420936091076446e-07,0.0022685017354099257
1740927643.5124528,None,None,-0.009648632690429704,-1.4365209960898184e-05,-0.0743053435114498,-1.8292434978376347e-05,4.991011813574169e-07,0.0019739196943671772
1740927643.5313668,None,None,0.054994812133789095,0.03589865969238287,0.10126717557251941,-5.796109519813842e-07,2.9179604734007236e-07,0.002376950716067484
1740927643.5428026,None,None,-0.007254431030273345,0.011956643090820396,-0.051404580152671464,-3.8072763511218493e-06,3.110539800703063e-07,0.0021733859454328877
1740927643.554892,None,None,0.021475988891601627,0.004774038110351597,-0.10483969465648801,2.93075445772663e-06,2.390019394420363e-07,0.001757493319726984
1740927643.5694897,None,None,-0.028802245971679685,-0.1652142797607421,0.047832061068702636,-7.827626644598726e-06,3.2160930713186816e-07,0.0019481274331115952
1740927643.5826197,None,None,0.009504980590820278,0.043081264672851616,-0.21934351145038145,-5.287246133338742e-06,2.9636454928241426e-07,0.0010773322810750416
1740927643.593864,None,None,-0.026408044311523327,-0.026350583471679623,0.13180152671755763,-1.5544720913146832e-05,3.607251604128875e-07,0.0016014379026582887
1740927643.6055055,None,None,-0.01204283435058584,0.031110256372070377,0.017297709923664417,-2.0917441176133535e-05,3.860382471591876e-07,0.0016707146368969072
1740927643.6194468,None,None,-0.02161964099121083,0.0071682397705079,-0.005603053435113914,-2.9920739418753627e-05,4.354485842196912e-07,0.0016490226351017435
1740927643.6327803,None,None,-0.04556165759277353,-1.4365209960898184e-05,-0.03613740458015213,-4.7954021728103605e-05,5.428813997442286e-07,0.0015060385070904125
1740927643.64661,None,None,0.052600610473632736,0.031110256372070377,-0.1124732824427479,-3.0262347582849973e-05,4.16023022141535e-07,0.0010598403029234542
1740927643.6675076,None,None,-0.050350060913086025,0.014350844750976643,0.11653435114503852,-5.030250916820152e-05,5.161416228295287e-07,0.0015231607556372747
1740927643.6802807,None,None,0.0023223756103516457,-0.026350583471679623,0.29210687022900794,-5.126684532229305e-05,4.7673385244184945e-07,0.002683802236282196
1740927643.7009602,None,None,-0.009648632690429704,0.03829286135253912,-0.020870229007633245,-5.6636792903482866e-05,4.876717360059619e-07,0.002601573611109207
1740927643.7127364,None,None,0.0023223756103516457,-0.023956381811523375,2.0707328244274814,-5.8321375058155004e-05,2.558433718558774e-07,0.010825469007183623
1740927643.7315128,None,None,-0.03359064929199218,0.09814790285644537,1.9485954198473285,-7.369488481529977e-05,6.384864493882219e-08,0.018564921377207305
1740927643.7437227,None,None,-0.028802245971679685,-0.13169545651855463,0.009664122137404974,-8.685809928380317e-05,4.5801425319790825e-08,0.01860574506461069
1740927643.7600663,None,None,-0.05274426257324216,0.05984067629394538,0.047832061068702636,-0.00010959429986304623,3.297609032476087e-08,0.018798099456739683
1740927643.7761846,None,None,0.004716577270507782,-0.009591171850585889,-0.005603053435113914,-0.00011061734323721753,-4.7809961898439926e-08,0.018778281921731775
1740927643.7891982,None,None,-0.007254431030273345,-0.016773776831054632,0.22340458015267206,-0.00011640567077451844,-1.5506211576613316e-07,0.019667665738975503
1740927643.802712,None,None,0.03823540051269525,0.12208991945800787,0.09363358778625996,-0.0001044054664410617,-2.564963345624883e-07,0.020041884485174997
1740927643.8220003,None,None,-0.007254431030273345,0.12448412111816412,0.04019847328244319,-0.000109893188837027,-3.311858717277257e-07,0.020203972502941307
1740927643.8341956,None,None,-0.01204283435058584,-0.045504196752929604,0.0860000000000003,-0.00011740140977801199,-4.205510977834417e-07,0.020547869193921684
1740927643.8514476,None,None,-7.182604980471297e-05,-0.016773776831054632,2.063099236641222,-0.00012178986940861912,-9.291324939465148e-07,0.0287400147254536
1740927643.8790472,None,None,-0.02161964099121083,0.04068706301269537,-0.2269770992366409,-0.00013303640629553723,-9.991617026121724e-07,0.027842489617201333
1740927643.896408,None,None,-0.02401384265136719,-0.014379575170898384,-0.31094656488549566,-0.00014540281625175349,-1.06071856357225e-06,0.026611574162110723
1740927643.9145994,None,None,-0.02401384265136719,0.011956643090820396,0.009664122137404974,-0.0001583047747733914,-1.2083589145838157e-06,0.026653059459795424
1740927643.9381042,None,None,-0.031196447631835822,-0.0502926000732421,0.22340458015267206,-0.00017457058882879993,-1.4426993030507177e-06,0.02754282819592592
1740927643.9514618,None,None,-0.02401384265136719,-0.0048027685302733936,-0.013236641221373802,-0.00018803187858439533,-1.6192626394784364e-06,0.027493473613811072
1740927643.9725084,None,None,0.026264392211914123,0.009562441430664148,-0.1277404580152668,-0.00018117411225174017,-1.6342927134442536e-06,0.02698967371778407
1740927643.9851959,None,None,0.033446997192382755,0.026321853051757882,0.2539389312977103,-0.00017157210191820374,-1.7236667770582096e-06,0.02800044864510958
1740927643.9999697,None,None,-0.014437036010742199,-0.014379575170898384,-1.7918625954198468,-0.00017896937594725503,-1.287520289502465e-06,0.02089314323376236
1740927644.018187,None,None,0.023870190551757764,-0.035927390112304614,-0.013236641221373802,-0.00017284215488079288,-1.273385385972728e-06,0.020842901845545988
1740927644.0306623,None,None,0.04781220715332024,-0.033533188452148366,-0.005603053435113914,-0.00015664906747592364,-1.1586851307066811e-06,0.02082292432698535
1740927644.042255,None,None,-7.182604980471297e-05,-0.009591171850585889,-0.31858015267175555,-0.000159450024961489,-1.100404948285784e-06,0.019561131282018033
1740927644.054382,None,None,-7.182604980471297e-05,0.04786966799316411,-0.013236641221373802,-0.00016266028755386127,-1.1489016028497655e-06,0.019510676453789674
1740927644.066594,None,None,-0.004860229370117208,0.0071682397705079,-1.776595419847328,-0.00016559483654261025,-5.404082284502076e-07,0.012464345225333906
1740927644.0841124,None,None,-0.07668627917480464,0.031110256372070377,0.0860000000000003,-0.00020102054749324667,-9.42529310340504e-07,0.012806707724492454
1740927644.0957558,None,None,-0.014437036010742199,0.01674504641113289,-0.020870229007633245,-0.00021098745734021704,-1.038723900569666e-06,0.012725129623810939
1740927644.1085215,None,None,-0.007254431030273345,-1.4365209960898184e-05,-0.18117557251908378,-0.00021787744924494848,-1.0365840295304151e-06,0.01200762665475446
1740927644.1228886,None,None,-0.01204283435058584,-0.14127226315917962,2.024931297709924,-0.00023005352404742568,-2.011676742058375e-06,0.020040990701952748
1740927644.134621,None,None,-0.007254431030273345,-0.01916797849121088,-0.1735419847328239,-0.00023712703279880982,-2.0449827279914466e-06,0.019354675017600898
1740927644.1461368,None,None,-0.014437036010742199,0.06702328127441412,-0.13537404580152623,-0.000247384139978409,-2.1272417103234375e-06,0.018819674147868105
1740927644.1627736,None,None,-0.031196447631835822,-0.014379575170898384,-1.608656488549618,-0.00026258340568927676,-1.5863664774154356e-06,0.012441277593351162
1740927644.174345,None,None,0.004716577270507782,0.11251311281738285,2.055465648854962,-0.00026873522810938645,-2.629102410374164e-06,0.02059441860777298
1740927644.1855085,None,None,0.016687585571289132,-0.0048027685302733936,-0.10483969465648801,-0.00026625994268213247,-2.575761071172273e-06,0.020180682672685808
1740927644.1991045,None,None,-0.08147468249511713,0.023927651391601634,0.09363358778625996,-0.0003057745253662916,-3.142961839303937e-06,0.02055398488745953
1740927644.2116866,None,None,-0.014437036010742199,-0.002408566870117146,-0.08957251908396913,-0.0003171340082392614,-3.272639872640133e-06,0.020200782091679328
1740927644.2240953,None,None,-0.014437036010742199,0.023927651391601634,0.30737404580152705,-0.0003293702002675688,-3.6273114764484753e-06,0.02142158869450157
1740927644.2367482,None,None,-0.028802245971679685,-0.1747910864013671,2.040198473282443,-0.0003511333780800594,-5.098722444382723e-06,0.029513573692465114
1740927644.248155,None,None,-0.04316745593261717,0.0071682397705079,-0.08193893129770968,-0.0003753302350801316,-5.4762580085239396e-06,0.02919170935667649
1740927644.25951,None,None,-0.014437036010742199,0.12448412111816412,0.047832061068702636,-0.000387869111396049,-5.773595897555331e-06,0.029384325175313926
1740927644.2709868,None,None,0.016687585571289132,0.03589865969238287,-0.05903816793893091,-0.00038699973563853616,-5.807392455748144e-06,0.02915320963822734
1740927644.2826464,None,None,0.02865859387207026,-0.1652142797607421,0.2692061068702294,-0.00038158576864931947,-5.969260804675925e-06,0.030223420007458646
1740927644.2946448,None,None,0.016687585571289132,0.004774038110351597,0.017297709923664417,-0.0003806010929958373,-6.034906228708802e-06,0.030295002215525457
1740927644.3066156,None,None,-0.009648632690429704,0.01674504641113289,0.22340458015267206,-0.0003913251052276786,-6.427821481893441e-06,0.031183641881421607
1740927644.3190706,None,None,-0.014437036010742199,-0.026350583471679623,0.07073282442748141,-0.00040389676272843287,-6.75817961349029e-06,0.03146710693075999
1740927644.3322215,None,None,-0.007254431030273345,0.06702328127441412,2.0020305343511455,-0.0004179549663767292,-8.500239597406575e-06,0.0394063425780093
1740927644.3481317,None,None,-0.02401384265136719,-0.0048027685302733936,-0.08193893129770968,-0.00043450364528001614,-8.857418367881378e-06,0.039085564212086664
1740927644.371885,None,None,-0.050350060913086025,0.01674504641113289,0.20813740458015317,-0.00046336933341797903,-9.675244547403906e-06,0.03991451440253971
1740927644.3869135,None,None,-0.028802245971679685,0.031110256372070377,0.02493129770992386,-0.00048291303962584987,-1.0203519647323783e-05,0.04001733881797778
1740927644.4048753,None,None,-0.014437036010742199,-0.12451285153808589,-0.0743053435114498,-0.000496267747729374,-1.0540617049873756e-05,0.03972681069756216
1740927644.4176376,None,None,-0.009648632690429704,0.11730151613769538,-1.776595419847328,-0.000503347891884755,-9.363974349844764e-06,0.03268946121848375
1740927644.4290764,None,None,-0.02161964099121083,0.03829286135253912,0.11653435114503852,-0.0005206920810333399,-9.890827689677076e-06,0.03315429965450945
1740927644.448475,None,None,-0.028802245971679685,0.0813884912353516,2.055465648854962,-0.000546593884041247,-1.2279149128754088e-05,0.041303256392377106
1740927644.461255,None,None,-0.014437036010742199,0.004774038110351597,0.13180152671755763,-0.0005612843220488132,-1.2851831346641928e-05,0.0418295846038747
1740927644.4725308,None,None,-0.016831237670898336,0.09814790285644537,0.14706870229007674,-0.0005772329303233912,-1.3480146190020897e-05,0.04241642192799798
1740927644.4901037,None,None,-0.014437036010742199,-0.02874478513183587,0.03256488549618375,-0.0005920052179564092,-1.3988613161914165e-05,0.04254953449286149
1740927644.5342336,None,None,0.016687585571289132,-0.007196970190429641,-0.09720610687022857,-0.0005930392673640858,-1.403959628159772e-05,0.04216839936008806
1740927644.558974,None,None,0.016687585571289132,0.062234877954101625,2.0478320610687026,-0.0006004743089488123,-1.6322999397229938e-05,0.050286652708359816
1740927644.6075952,None,None,-0.0024660277099608496,0.05026386965332036,-0.08957251908396913,-0.0006096295105145851,-1.6632213838200513e-05,0.04993668954261015
1740927644.6388392,None,None,0.054994812133789095,-0.002408566870117146,-0.10483969465648801,-0.0005938128371970779,-1.6243189083364133e-05,0.049526154046274896
1740927644.6607175,None,None,0.009504980590820278,0.01674504641113289,0.00203053435114553,-0.0005977870466781757,-1.6472812855246028e-05,0.049538950403193886
1740927644.6739144,None,None,-0.009648632690429704,-0.002408566870117146,-0.03613740458015213,-0.0006099633793276408,-1.688907388845931e-05,0.04940048464487393
1740927644.6957612,None,None,0.014293383911132773,-0.14366646481933587,-0.24987786259541966,-0.000611145983482539,-1.675646581247007e-05,0.048415176398165165
1740927644.7137773,None,None,-0.0024660277099608496,-0.002408566870117146,0.26157251908396995,-0.0006212643425961363,-1.7423708776905205e-05,0.04945589122356629
1740927644.7254095,None,None,-7.182604980471297e-05,-0.021562180151367127,-0.158274809160305,-0.0006290108507801794,-1.75690121030326e-05,0.04883344557398701
1740927644.7387807,None,None,-0.019225439331054694,0.05026386965332036,0.02493129770992386,-0.0006457759506317187,-1.81923520721525e-05,0.048936637855256
1740927644.7570565,None,None,0.009504980590820278,0.12687832277832037,-0.0743053435114498,-0.000649878246239498,-1.8306706349698218e-05,0.048646696452159896
1740927644.7691119,None,None,-0.040773254272461035,0.04786966799316411,0.047832061068702636,-0.0006762984145697265,-1.9280652678998828e-05,0.048840481460897416
1740927644.780922,None,None,-0.031196447631835822,0.009562441430664148,-0.08193893129770968,-0.0006984437435565863,-1.9981004653861153e-05,0.04852022103292281
1740927644.7938616,None,None,-0.004860229370117208,0.011956643090820396,-0.08957251908396913,-0.0007093681612266883,-2.029989214084757e-05,0.048169649655799826
1740927644.807216,None,None,-0.019225439331054694,0.026321853051757882,0.02493129770992386,-0.000727058676672749,-2.098485171821115e-05,0.04827252074881129
1740927644.819436,None,None,0.007110778930664141,0.05026386965332036,-0.12010687022900735,-0.0007329440764142323,-2.1087015830951675e-05,0.047800918390049185
1740927644.8363614,None,None,0.026264392211914123,-0.007196970190429641,0.03256488549618375,-0.0007310490777964548,-2.109102439598807e-05,0.04793388421825135
1740927644.8511915,None,None,0.045418005493164104,0.052658071313476607,0.03256488549618375,-0.0007206740454513908,-2.077975257958462e-05,0.04806682260666769
1740927644.8627274,None,None,0.054994812133789095,0.09335949953613287,0.047832061068702636,-0.0007059099197930876,-2.0311231942008405e-05,0.0482601959850022
1740927644.8739731,None,None,0.011899182250976637,-0.16282007810058585,-0.05903816793893091,-0.0007091895340163995,-2.0355287656418116e-05,0.048030325428638075
1740927644.8854153,None,None,-0.014437036010742199,-0.1508490697998046,-0.08193893129770968,-0.0007238282152020021,-2.0788888585793814e-05,0.0477097027101353
1740927644.8979878,None,None,-0.019225439331054694,-0.021562180151367127,-0.005603053435113914,-0.0007409935706938653,-2.141931433771498e-05,0.047691292024796744
1740927644.9099689,None,None,0.045418005493164104,0.021533449731445387,0.05546564885496208,-0.0007303923006112717,-2.1068946348006647e-05,0.04791466152812227
1740927644.921282,None,None,0.016687585571289132,0.01674504641113289,-0.02850381679389269,-0.0007317163652109496,-2.105802637901459e-05,0.04780552073593646
1740927644.9337866,None,None,0.014293383911132773,-0.011985373510742137,0.20813740458015317,-0.000734910972750363,-2.1432410913942982e-05,0.048633334700388706
1740927644.9451466,None,None,0.03584119885253911,0.0023798364501953495,-0.03613740458015213,-0.00072770509184562,-2.106629331764452e-05,0.04849399317132336
1740927644.956813,None,None,0.033446997192382755,-0.009591171850585889,-0.05903816793893091,-0.0007212411765550137,-2.0687396833306782e-05,0.04826392488911274
1740927644.9691458,None,None,0.04062960217285161,0.023927651391601634,-0.03613740458015213,-0.0007115346017196148,-2.0197774631476554e-05,0.04812446413822123
1740927644.9807322,None,None,-0.031196447631835822,-0.0048027685302733936,-0.08193893129770968,-0.00073270676429683,-2.0898716188740558e-05,0.04780361425451662
1740927644.9924767,None,None,-0.0024660277099608496,-0.007196970190429641,0.23103816793893173,-0.0007427975891228676,-2.157903930032234e-05,0.048721790451973244
1740927645.004991,None,None,-0.014437036010742199,0.04068706301269537,-0.020870229007633245,-0.0007571793729121807,-2.2097422253218392e-05,0.04864273234013815
1740927645.031626,None,None,0.014293383911132773,-0.016773776831054632,-0.09720610687022857,-0.0007588810374921591,-2.1979696583546854e-05,0.0482614249146943
1740927645.044332,None,None,0.04062960217285161,-0.002408566870117146,0.10890076335877907,-0.0007498198041846593,-2.16874483935693e-05,0.04869596676693245
1740927645.0698314,None,None,0.0023223756103516457,-0.009591171850585889,-0.051404580152671464,-0.0007565822107109965,-2.1842123574957706e-05,0.04849592522231963
1740927645.0881443,None,None,0.014293383911132773,0.004774038110351597,0.06309923664122197,-0.0007585687498626955,-2.1950641416243986e-05,0.048749095448114184
1740927645.1153908,None,None,-0.03359064929199218,-0.007196970190429641,1.9867633587786264,-0.0007885567111453558,-2.59826600130476e-05,0.05661700798968602
1740927645.143384,None,None,-0.009648632690429704,-0.059869406713867146,0.10126717557251941,-0.0008011608876316035,-2.6648597813055806e-05,0.05702227503721586
1740927645.1707387,None,None,-0.01204283435058584,0.026321853051757882,-1.7536946564885492,-0.000807968273649749,-2.4438578840059183e-05,0.05008510572590409
1740927645.1892283,None,None,-0.0024660277099608496,-0.031138986791992118,-0.08193893129770968,-0.0008170746996856187,-2.4664771520824336e-05,0.049764210326347307
1740927645.2048616,None,None,-0.03598485095214854,0.03829286135253912,-0.013236641221373802,-0.000841097373418021,-2.5663128925780735e-05,0.049715170838132
1740927645.2225268,None,None,0.007110778930664141,0.10772470949707036,-0.03613740458015213,-0.0008465281149245856,-2.5788243861447126e-05,0.04957544934781237
1740927645.2420845,None,None,0.19625271008300782,-0.021562180151367127,0.009664122137404974,-0.0007696532256372856,-2.2200844235711413e-05,0.04961695539160409
1740927645.2623992,None,None,0.026264392211914123,0.05744647463378913,-0.013236641221373802,-0.0007654519156458337,-2.190413476607359e-05,0.04956779309422368
1740927645.2763288,None,None,0.021475988891601627,-0.009591171850585889,-1.8147633587786256,-0.0007565594787318777,-1.8797758854031845e-05,0.04238867824358539
1740927645.2901616,None,None,-0.009648632690429704,-0.021562180151367127,-0.04377099236641202,-0.0007677065612214369,-1.915151722520884e-05,0.04221761364145702
1740927645.3054068,None,None,-7.182604980471297e-05,-1.4365209960898184e-05,-0.18117557251908378,-0.0007742548705959018,-1.9094395920245472e-05,0.04150272390316886
1740927645.3180282,None,None,-0.028802245971679685,-0.026350583471679623,-0.2880458015267173,-0.0007929729826160917,-1.9451564054129258e-05,0.04036479625980691
1740927645.3311257,None,None,0.009504980590820278,-0.08381142331542962,-0.03613740458015213,-0.0007961014612217974,-1.9437535132201488e-05,0.04022360516979784
1740927645.3437371,None,None,0.0023223756103516457,0.01913924807128914,0.02493129770992386,-0.000802517755571103,-1.966555133748376e-05,0.04032404267830233
1740927645.3555202,None,None,0.02865859387207026,0.004774038110351597,0.2539389312977103,-0.0007982223221393327,-1.972235846165366e-05,0.04133069645490085
1740927645.3725204,None,None,-0.038379052612304676,0.0023798364501953495,-0.20407633587786211,-0.0008213804796192711,-2.0412116856710415e-05,0.04052503952294831
1740927645.3863242,None,None,-0.009648632690429704,-0.023956381811523375,0.10890076335877907,-0.000833357774634638,-2.1022699672209797e-05,0.040957720229266185
1740927645.3987536,None,None,0.004716577270507782,0.03829286135253912,0.00203053435114553,-0.000838759409650559,-2.117441202168675e-05,0.040967555500710684
1740927645.4233713,None,None,0.0023223756103516457,0.05026386965332036,-0.14300763358778568,-0.0008446858054159182,-2.1144305636892903e-05,0.04040347910131669
1740927645.438264,None,None,-0.04556165759277353,-0.0048027685302733936,-0.08193893129770968,-0.0008717368919032029,-2.2189108141658006e-05,0.040080949512755114
1740927645.4553308,None,None,0.011899182250976637,-0.1197244482177734,0.05546564885496208,-0.0008744697245595479,-2.2288735069469032e-05,0.0403020296260267
1740927645.4702113,None,None,0.011899182250976637,-0.014379575170898384,0.00203053435114553,-0.0008769430558873065,-2.2302017117566768e-05,0.04031169698404647
1740927645.4842007,None,None,-0.03359064929199218,-0.009591171850585889,0.00203053435114553,-0.000899229163548963,-2.3243692227262396e-05,0.04032134664416247
1740927645.4979315,None,None,-0.02161964099121083,-0.031138986791992118,-0.02850381679389269,-0.000916421205822175,-2.3901034671414242e-05,0.04021017239341394
1740927645.5125906,None,None,0.02865859387207026,0.023927651391601634,-1.7994961832061063,-0.0009059327584734163,-2.0707556315464612e-05,0.03309227789277647
1740927645.5239866,None,None,0.01908178723144527,-0.026350583471679623,-0.13537404580152623,-0.0009050516270920524,-2.034253200559046e-05,0.032557247471217715
1740927645.5471933,None,None,0.045418005493164104,-0.014379575170898384,-1.7918625954198468,-0.0008870921215515071,-1.679001255432204e-05,0.02546872804155178
1740927645.558953,None,None,-0.02401384265136719,0.0023798364501953495,-0.1277404580152668,-0.0009047940836379297,-1.72836548930233e-05,0.02496283011939712
1740927645.5713804,None,None,-0.007254431030273345,-0.0048027685302733936,-0.06667175572519035,-0.0009155272134793869,-1.7536454519839436e-05,0.024698468151041306
1740927645.5847826,None,None,0.023870190551757764,-1.4365209960898184e-05,0.19287022900763406,-0.0009135080355632487,-1.7587841262521707e-05,0.025460826106028435
1740927645.5969508,None,None,0.009504980590820278,0.014350844750976643,0.017297709923664417,-0.0009170398286544332,-1.764356480452779e-05,0.025528734825439374
1740927645.6081007,None,None,-0.02401384265136719,0.02871605471191413,-0.08193893129770968,-0.00093489189379372,-1.8192802323814518e-05,0.02520409243078558
1740927645.619997,None,None,-7.182604980471297e-05,-0.16282007810058585,0.047832061068702636,-0.000942819235879012,-1.84848518135081e-05,0.02539276042896813
1740927645.637031,None,None,-0.08865728747558599,-0.0048027685302733936,0.0860000000000003,-0.0009897765797249347,-2.053318571379035e-05,0.025732436922363232
1740927645.6504197,None,None,-0.01204283435058584,-0.009591171850585889,0.1699694656488553,-0.0010039572626465677,-2.1257100160809137e-05,0.026404315657112255
1740927645.6676645,None,None,-0.01204283435058584,0.04786966799316411,1.9867633587786264,-0.0010239805264782664,-2.491392917679999e-05,0.034262725624097885
1740927645.6921709,None,None,-0.01204283435058584,-0.04310999509277336,-1.8300305343511445,-0.0010318749294204689,-2.2435552934910946e-05,0.027024819547709827
1740927645.706077,None,None,-0.02161964099121083,0.11730151613769538,0.017297709923664417,-0.0010500607908969762,-2.3099806357752258e-05,0.027092964837045937
1740927645.722881,None,None,-0.019225439331054694,0.03829286135253912,-1.7842290076335874,-0.0010616164079007497,-2.0779032139936612e-05,0.02003543532350549
1740927645.73713,None,None,0.014293383911132773,0.023927651391601634,-0.05903816793893091,-0.0010641631410658171,-2.062627570450391e-05,0.019800652597549328
1740927645.7548206,None,None,-0.009648632690429704,-0.062263608374023394,-0.12010687022900735,-0.0010769896054116032,-2.080962240305528e-05,0.019324313189685548
1740927645.769298,None,None,-0.02161964099121083,0.02871605471191413,0.20813740458015317,-0.001096247637728269,-2.1747928610992484e-05,0.020146187303919247
1740927645.783309,None,None,-0.007254431030273345,-0.011985373510742137,0.009664122137404974,-0.0011086799734188395,-2.210246251591466e-05,0.020183200440622422
1740927645.801512,None,None,-0.007254431030273345,0.004774038110351597,-0.12010687022900735,-0.0011207595034704088,-2.223922851286323e-05,0.01970698311877877
1740927645.8169067,None,None,0.014293383911132773,0.014350844750976643,0.2005038167938935,-0.0011244343657485704,-2.2537759924510076e-05,0.02049872568752767
1740927645.833781,None,None,-0.04556165759277353,0.031110256372070377,-0.04377099236641202,-0.001153702248377203,-2.3462058500710603e-05,0.02032449742642641
1740927645.8496094,None,None,-0.03359064929199218,0.10533050783691411,1.9485954198473285,-0.0011846045557823719,-2.757624423385869e-05,0.028029771070361767
1740927645.8638587,None,None,-0.026408044311523327,0.01674504641113289,0.14706870229007674,-0.0012065098505551835,-2.8536484589320554e-05,0.028611395431422038
1740927645.883025,None,None,-0.004860229370117208,-0.002408566870117146,-0.05903816793893091,-0.0012183770316597032,-2.8783080377647414e-05,0.028377998887423213
1740927645.8981688,None,None,0.016687585571289132,0.11969571779785163,-0.051404580152671464,-0.0012207706918890631,-2.8679058019383654e-05,0.028174759978082244
1740927645.9110954,None,None,0.0023223756103516457,0.12687832277832037,-0.21170992366412156,-0.0012289091879194784,-2.8532642066750326e-05,0.027337548152958614
1740927645.9291077,None,None,0.045418005493164104,-0.01916797849121088,-0.1735419847328239,-0.0012180348586478742,-2.772679147629345e-05,0.02665116511688466
1740927645.9415603,None,None,-0.02161964099121083,-0.014379575170898384,-0.16590839694656445,-0.001236724191506395,-2.8044239939142598e-05,0.025994878297915365
1740927645.9603918,None,None,0.05738901379394523,0.004774038110351597,0.24630534351145084,-0.0012218409701638398,-2.778870540834614e-05,0.026968584408960432
1740927645.982336,None,None,-0.0024660277099608496,-0.0048027685302733936,-1.6926259541984727,-0.0012264696217970546,-2.5033412273703165e-05,0.02027514205582137
1740927645.9952843,None,None,-0.02401384265136719,-0.014379575170898384,0.00203053435114553,-0.0012467700169690019,-2.5652684323392167e-05,0.020282045103112566
1740927646.00705,None,None,0.011899182250976637,0.031110256372070377,-0.08193893129770968,-0.0012509269777460465,-2.5536183741265947e-05,0.019956925010899865
1740927646.0280569,None,None,-0.004860229370117208,0.05744647463378913,-0.1124732824427479,-0.0012624026709327318,-2.563209302828649e-05,0.019511034659961828
1740927646.0486236,None,None,-0.0024660277099608496,-0.016773776831054632,-1.8071297709923662,-0.001266860945822241,-2.2574946826638263e-05,0.012364146537351486
1740927646.0714288,None,None,-0.014437036010742199,0.05026386965332036,-0.12010687022900735,-0.001282811840530652,-2.2768851769243766e-05,0.011886997655289982
1740927646.0875838,None,None,0.004716577270507782,0.02871605471191413,0.15470229007633618,-0.001291285601031525,-2.3170475338657643e-05,0.012496423485080576
1740927646.1055713,None,None,-0.02161964099121083,-0.011985373510742137,-0.1124732824427479,-0.0013105920657064413,-2.3479331286276e-05,0.012049542259427344
1740927646.121093,None,None,-0.02161964099121083,-0.0048027685302733936,2.040198473282443,-0.001337850624599424,-2.7817659518321457e-05,0.02011419669004169
1740927646.140389,None,None,-0.014437036010742199,0.0071682397705079,0.09363358778625996,-0.0013548909582295492,-2.8437691043275604e-05,0.020483427027483778
1740927646.1609,None,None,0.021475988891601627,-0.1700026830810546,-0.020870229007633245,-0.001355470568757717,-2.8315072401742173e-05,0.0203999882543063
1740927646.1781926,None,None,-0.05513846423339852,0.01674504641113289,-0.1124732824427479,-0.0013901017757479068,-2.9136736021328974e-05,0.019954365843354246
1740927646.1899846,None,None,-0.016831237670898336,-0.0502926000732421,0.0860000000000003,-0.0014086196138502897,-2.9779631207864982e-05,0.020293410304409645
1740927646.2015965,None,None,0.004716577270507782,-0.045504196752929604,-0.03613740458015213,-0.001417097949507618,-2.9879776443153756e-05,0.020149617226756043
1740927646.2146623,None,None,-0.014437036010742199,0.12448412111816412,0.26157251908396995,-0.0014353482207372984,-3.083330754557169e-05,0.021182858639689293
1740927646.2299793,None,None,-0.004860229370117208,0.021533449731445387,0.20813740458015317,-0.0014491843343714058,-3.1556569570502376e-05,0.022004990118281182
1740927646.2426476,None,None,-0.026408044311523327,-0.021562180151367127,-0.04377099236641202,-0.0014718760927875257,-3.2093785848989065e-05,0.021831305544326735
1740927646.257619,None,None,0.011899182250976637,0.062234877954101625,-0.0743053435114498,-0.0014772999167527016,-3.203351918717468e-05,0.021536887779913378
1740927646.2719657,None,None,-0.007254431030273345,0.009562441430664148,-0.0743053435114498,-0.0014913668624776586,-3.2237827204606574e-05,0.02124243675078645
1740927646.2884822,None,None,0.023870190551757764,-0.0048027685302733936,-0.12010687022900735,-0.001491189729193468,-3.19171758359176e-05,0.0207668813941566
1740927646.300932,None,None,-0.026408044311523327,0.10054210451660162,0.1394351145038173,-0.001514778513027912,-3.2812214693888485e-05,0.02131733654311232
1740927646.3485005,None,None,0.02865859387207026,-0.007196970190429641,-0.16590839694656445,-0.001512275654379713,-3.2335448649861506e-05,0.020660752111843268
1740927646.3726273,None,None,0.02865859387207026,0.0023798364501953495,-0.02850381679389269,-0.0015101458826168189,-3.213680256792391e-05,0.020547286169647322
1740927646.3843942,None,None,-0.0024660277099608496,0.01913924807128914,-1.7536946564885492,-0.0015151084328980523,-2.8779983028018653e-05,0.01361369892026109
1740927646.4141946,None,None,-0.0024660277099608496,-0.12451285153808589,0.047832061068702636,-0.0015274878667429358,-2.9123404350894353e-05,0.013800972850812129
1740927646.4276986,None,None,0.043023803833007745,-0.0048027685302733936,-1.7918625954198468,-0.0015115914295807623,-2.5011992521661187e-05,0.006715676222107931
1740927646.4459016,None,None,-0.05274426257324216,-0.011985373510742137,-0.15064122137404556,-0.00154610928675076,-2.5553405475134894e-05,0.0061173659887883754
1740927646.4591737,None,None,0.031052795532226618,0.014350844750976643,-0.020870229007633245,-0.0015431052139806692,-2.528684787311879e-05,0.006032004054871155
1740927646.4703538,None,None,-0.007254431030273345,-0.1771852880615234,-1.7994961832061063,-0.0015501627721360837,-2.1717758542265007e-05,-0.001084320816440023
1740927646.4837127,None,None,0.01908178723144527,-0.011985373510742137,-0.04377099236641202,-0.0015525439381125269,-2.1528922996401163e-05,-0.0012612197322654415
1740927646.495789,None,None,0.02865859387207026,-1.4365209960898184e-05,0.06309923664122197,-0.0015508308989704617,-2.1465014299092474e-05,-0.001015643055819577
1740927646.5090997,None,None,-0.016831237670898336,0.03589865969238287,-0.272778625954198,-0.001568501993654958,-2.1210868539262543e-05,-0.0020976866124798924
1740927646.5245452,None,None,0.052600610473632736,0.02871605471191413,-0.18117557251908378,-0.0015546252992505983,-2.0367320197591342e-05,-0.002817738742017756
1740927646.5358922,None,None,-0.02401384265136719,-0.009591171850585889,-0.013236641221373802,-0.0015765308096073358,-2.0736110720002834e-05,-0.0028740115565602073
1740927646.547312,None,None,-0.007254431030273345,-1.4365209960898184e-05,-0.1124732824427479,-0.0015904393767831521,-2.0699643520796566e-05,-0.0033225078343960698
1740927646.5600524,None,None,0.014293383911132773,-0.15324327145996086,-0.05903816793893091,-0.0015946448829814845,-2.0554199068506698e-05,-0.0035598033278989665
1740927646.572689,None,None,0.045418005493164104,-1.4365209960898184e-05,-0.1124732824427479,-0.0015840687540722505,-1.998976011482847e-05,-0.004008299069270493
1740927646.5860834,None,None,-0.028802245971679685,-0.035927390112304614,-0.23461068702290033,-0.0016071768897068565,-1.988056571600578e-05,-0.004939585310056737
1740927646.597859,None,None,-0.050350060913086025,0.12208991945800787,-0.2269770992366409,-0.0016405887338635102,-1.9965460200756496e-05,-0.005840783886833718
1740927646.6094441,None,None,-0.031196447631835822,0.01913924807128914,-0.13537404580152623,-0.0016658510370062356,-2.0051144989116225e-05,-0.0063799891645545245
1740927646.6213548,None,None,-0.038379052612304676,-0.035927390112304614,0.05546564885496208,-0.0016955351172148782,-2.060268251368309e-05,-0.006164911426535012
1740927646.6330006,None,None,0.0023223756103516457,0.01674504641113289,-0.013236641221373802,-0.0017061826590023693,-2.0647644867201895e-05,-0.006221301426177378
1740927646.6455677,None,None,0.004716577270507782,-0.007196970190429641,0.21577099236641262,-0.0017166973161427614,-2.1189884336581313e-05,-0.005372494126107088
1740927646.657005,None,None,-0.04795585925292967,-0.007196970190429641,-0.0743053435114498,-0.0017506332536771176,-2.1484888032537113e-05,-0.005670039923304594
1740927646.668375,None,None,-0.007254431030273345,-1.4365209960898184e-05,-0.08957251908396913,-0.0017657615609332333,-2.1422294479864907e-05,-0.006027923583272936
1740927646.680412,None,None,-7.182604980471297e-05,0.004774038110351597,0.05546564885496208,-0.0017782288622842102,-2.163488167330185e-05,-0.00581256102310348
1740927646.691609,None,None,-0.014437036010742199,-0.009591171850585889,0.32264122137404616,-0.0017986679377408523,-2.2562311240184123e-05,-0.004541141812143657
1740927646.703169,None,None,-0.05274426257324216,-0.17239688474121084,-0.08957251908396913,-0.0018354584922086546,-2.2787517897712773e-05,-0.00489870744769815
1740927646.7204244,None,None,-0.038379052612304676,0.04786966799316411,-0.005603053435113914,-0.0018662639498498183,-2.3094811455891873e-05,-0.004924407573633618
1740927646.7318895,None,None,0.009504980590820278,-0.08620562497558587,0.10126717557251941,-0.0018752134021080488,-2.335329759016607e-05,-0.004527686130710251
1740927646.7434514,None,None,-7.182604980471297e-05,0.011956643090820396,-0.06667175572519035,-0.0018878878841172848,-2.3276443871698886e-05,-0.0047946021522067
1740927646.7566192,None,None,0.016687585571289132,0.026321853051757882,0.017297709923664417,-0.001893030531989155,-2.3305955753951653e-05,-0.004729649349119468
1740927646.7680078,None,None,-7.182604980471297e-05,-0.035927390112304614,1.92569465648855,-0.0019149544441788438,-2.8025366401458134e-05,0.0028776994118302444
1740927646.7798395,None,None,0.014293383911132773,0.05505227297363288,-0.12010687022900735,-0.0019203530962168872,-2.7793473655026184e-05,0.0024008576051641798
1740927646.7972858,None,None,-7.182604980471297e-05,0.12208991945800787,-0.08957251908396913,-0.0019326719860017795,-2.7704757466533355e-05,0.0020446483546554873
1740927646.8089325,None,None,0.016687585571289132,-0.0048027685302733936,-1.8147633587786256,-0.0019287851624760369,-2.3298030668854483e-05,-0.0051297091081199345
1740927646.8237631,None,None,0.0023223756103516457,0.014350844750976643,-1.8147633587786256,-0.0019317628642897687,-1.889181977482159e-05,-0.012305081197549193
1740927646.8354325,None,None,0.02865859387207026,-0.007196970190429641,-0.05903816793893091,-0.0019307155198981549,-1.8663677964008186e-05,-0.012542761046116605
1740927646.8495214,None,None,0.054994812133789095,0.004774038110351597,0.19287022900763406,-0.001918066272861194,-1.8972539614946135e-05,-0.011784877803893043
1740927646.8619416,None,None,-7.182604980471297e-05,0.021533449731445387,-0.158274809160305,-0.0019297466584758335,-1.8634620281633336e-05,-0.012414550676373022
1740927646.8761208,None,None,0.052600610473632736,0.03829286135253912,0.10890076335877907,-0.0019174120144618545,-1.8786649096914902e-05,-0.01198839892638662
1740927646.887978,None,None,0.011899182250976637,-0.04071579343261711,-0.020870229007633245,-0.001923658082355764,-1.876224547187827e-05,-0.01207497922294152
1740927646.9010956,None,None,-0.004860229370117208,-0.023956381811523375,-0.051404580152671464,-0.0019377583730621492,-1.8710322820388844e-05,-0.012282190988030876
1740927646.9137638,None,None,-0.016831237670898336,-0.031138986791992118,0.12416793893129818,-0.001958551564427317,-1.9127899777388036e-05,-0.01179554374292187
1740927646.9313617,None,None,0.021475988891601627,0.062234877954101625,-0.16590839694656445,-0.001959491057938064,-1.8716737477665804e-05,-0.012455112146937041
1740927646.9428325,None,None,-0.014437036010742199,0.03829286135253912,-0.051404580152671464,-0.0019782644705071367,-1.8671216420382986e-05,-0.012662231373508316
1740927646.955069,None,None,-0.026408044311523327,0.031110256372070377,-0.04377099236641202,-0.002003005302113087,-1.865552865147618e-05,-0.012839166136478052
1740927646.9693246,None,None,-0.04316745593261717,0.05984067629394538,-0.013236641221373802,-0.0020362572812426664,-1.872678890124862e-05,-0.01289541392861924
1740927646.9822495,None,None,0.031052795532226618,0.014350844750976643,0.009664122137404974,-0.0020337985013298802,-1.8751840618327836e-05,-0.012861124415855326
1740927646.9945326,None,None,0.0023223756103516457,-0.0502926000732421,1.8722595419847332,-0.0020544173037803032,-2.362470366684878e-05,-0.005466338826918669
1740927647.0069203,None,None,-0.07668627917480464,-0.04789839841308585,-0.0743053435114498,-0.0021037791248009184,-2.355894887424053e-05,-0.005762632663616708
1740927647.0183184,None,None,-0.02401384265136719,0.031110256372070377,-0.1277404580152668,-0.0021276850078182164,-2.3303271255040213e-05,-0.0062700957059945855
1740927647.0314548,None,None,0.054994812133789095,0.004774038110351597,0.07836641221374085,-0.0021141013323985264,-2.3544721045560448e-05,-0.005963142011837774
1740927647.0436215,None,None,-0.004860229370117208,0.011956643090820396,0.06309923664122197,-0.0021294306369307485,-2.377468570277314e-05,-0.00571643888450361
1740927647.0557225,None,None,-0.02161964099121083,0.026321853051757882,-0.08193893129770968,-0.0021523116624686802,-2.3623547974046632e-05,-0.006042798105914295
1740927647.0675108,None,None,-0.009648632690429704,-0.02874478513183587,-0.020870229007633245,-0.002169790866608248,-2.3626447166753482e-05,-0.006127857331738334
1740927647.079979,None,None,-0.050350060913086025,-0.009591171850585889,1.9638625954198476,-0.0022176357525210385,-2.8892649244201126e-05,0.001629861324363201
1740927647.091755,None,None,-0.03359064929199218,0.07181168459472662,-0.005603053435113914,-0.002247312247662201,-2.8967061480290523e-05,0.0016063796125120318
1740927647.1037617,None,None,-0.03598485095214854,0.021533449731445387,-0.051404580152671464,-0.0022782152548422455,-2.891632080061635e-05,0.0014019263477835285
1740927647.1181564,None,None,0.009504980590820278,0.026321853051757882,0.19287022900763406,-0.0022881467055392837,-2.953907919766822e-05,0.002162703671245897
1740927647.1331522,None,None,0.026264392211914123,0.03829286135253912,1.8951603053435118,-0.002298691755940029,-3.4806430258842814e-05,0.009650128547360803
1740927647.145562,None,None,-0.01204283435058584,0.03589865969238287,-1.7536946564885492,-0.002308627811604933,-3.015447151041961e-05,0.0027204890196598818
1740927647.158367,None,None,0.014293383911132773,0.05026386965332036,0.23867175572519117,-0.0023163130973603454,-3.092092034981697e-05,0.003662469087274931
1740927647.169813,None,None,-7.182604980471297e-05,0.0071682397705079,-0.020870229007633245,-0.0023296755930746742,-3.097304542657114e-05,0.003579053040953154
1740927647.182422,None,None,0.01908178723144527,-0.031138986791992118,0.017297709923664417,-0.0023336978791936567,-3.1137693860762504e-05,0.003646451057710825
1740927647.1950815,None,None,-7.182604980471297e-05,0.014350844750976643,-0.21170992366412156,-0.002345943221111761,-3.065500439678298e-05,0.0028089834388571504
1740927647.2074938,None,None,-0.0024660277099608496,0.0071682397705079,-0.10483969465648801,-0.0023600102958830885,-3.0462911144993897e-05,0.002393680839266424
1740927647.2220724,None,None,-0.04556165759277353,0.026321853051757882,0.10890076335877907,-0.0023969461149831108,-3.0848130036250803e-05,0.0028228838330586086
1740927647.2351213,None,None,0.0023223756103516457,-1.4365209960898184e-05,-0.020870229007633245,-0.0024094355151186805,-3.08943483325741e-05,0.0027394010179058567
1740927647.2475076,None,None,-0.04556165759277353,0.03589865969238287,0.05546564885496208,-0.002446490292662057,-3.113161843613603e-05,0.002957543250328813
1740927647.2592432,None,None,-0.019225439331054694,0.009562441430664148,-0.24224427480915978,-0.002468953445116227,-3.05343226741568e-05,0.001999405609394543
1740927647.270911,None,None,-0.016831237670898336,-0.011985373510742137,-1.7536946564885492,-0.0024818635292456048,-2.5576077603704272e-05,-0.004930941453262021
1740927647.2838001,None,None,-0.0024660277099608496,0.11490731447753913,2.0172977099236644,-0.0025092043027721447,-3.147003004162931e-05,0.003037640188710211
1740927647.2963412,None,None,-0.004860229370117208,-0.033533188452148366,0.06309923664122197,-0.0025265013111829835,-3.175767402799172e-05,0.0032860499857747653
1740927647.3077743,None,None,-0.040773254272461035,-0.021562180151367127,-0.23461068702290033,-0.0025603912145729015,-3.114892878244252e-05,0.0023582090515860527
1740927647.321598,None,None,0.014293383911132773,0.02871605471191413,0.047832061068702636,-0.0025682592368300797,-3.14044457948563e-05,0.0025462087555797167
1740927647.3370414,None,None,0.011899182250976637,0.04068706301269537,-0.1124732824427479,-0.0025763325658246334,-3.1183312870489725e-05,0.0021008622597365233
1740927647.3620753,None,None,0.021475988891601627,-0.014379575170898384,-1.822396946564885,-0.00256934392593082,-2.5849751372862034e-05,-0.005100635857132831
1740927647.3776062,None,None,-0.004860229370117208,0.08617689455566413,0.1394351145038173,-0.002587493982947457,-2.6314003871329597e-05,-0.00455183043441892
1740927647.4017727,None,None,-0.02161964099121083,0.033504458032226625,-0.14300763358778568,-0.0026125919721992144,-2.5911666902870364e-05,-0.005118866959149658
1740927647.4226537,None,None,0.033446997192382755,-0.007196970190429641,0.14706870229007674,-0.002611393331368764,-2.644348685220309e-05,-0.004539859929320333
1740927647.447785,None,None,0.023870190551757764,0.11251311281738285,-0.06667175572519035,-0.002613584908424137,-2.632039201768999e-05,-0.004805235813958108
1740927647.4633138,None,None,0.06217741711425773,0.10533050783691411,-1.7460610687022897,-0.0025856351634017615,-2.1084946522901642e-05,-0.011705932181681745
1740927647.4752855,None,None,-0.009648632690429704,0.04547546633300786,-0.09720610687022857,-0.002604530555095685,-2.0783936727425838e-05,-0.012093013934030332
1740927647.4908545,None,None,-0.026408044311523327,-0.035927390112304614,1.9791297709923668,-0.002644980286189685,-2.688004005354767e-05,-0.004276540471979324
1740927647.5031285,None,None,-0.007254431030273345,-0.14845486813964837,-0.1277404580152668,-0.002662545536855049,-2.6520152283826466e-05,-0.004783024915372479
1740927647.5152779,None,None,0.009504980590820278,-0.011985373510742137,0.04019847328244319,-0.002672557852025018,-2.6710462943322698e-05,-0.0046260464108945605
1740927647.5315807,None,None,-0.014437036010742199,-0.03832159177246086,0.10890076335877907,-0.0026953711575070744,-2.7070458957057133e-05,-0.0041975811096268455
1740927647.5440195,None,None,-0.01204283435058584,0.11969571779785163,1.9943969465648859,-0.002728897790436729,-3.3377875311290066e-05,0.0036804177042053677
1740927647.5569935,None,None,0.014293383911132773,-0.11733024655761715,2.0478320610687026,-0.0027490155572379915,-3.998187190916806e-05,0.01177075188313493
1740927647.5806365,None,None,-0.01204283435058584,0.06462907961425787,-1.7918625954198468,-0.0027583130754916516,-3.440709049746533e-05,0.0046921180956644255
1740927647.606247,None,None,-0.02401384265136719,0.05984067629394538,0.1699694656488553,-0.002786591524959366,-3.5004504444918534e-05,0.005363346598982171
1740927647.624508,None,None,-0.014437036010742199,0.021533449731445387,2.0325648854961837,-0.00282195531553156,-4.15952726310429e-05,0.013393530528295394
1740927647.6784747,None,None,0.04781220715332024,0.031110256372070377,-0.005603053435113914,-0.0028115942966740796,-4.181669233248414e-05,0.013372456077704953
1740927647.6940236,None,None,0.0023223756103516457,0.014350844750976643,-0.15064122137404556,-0.0028238458969805516,-4.148272664559349e-05,0.012778348032752546
1740927647.7066438,None,None,0.0023223756103516457,-0.014379575170898384,0.02493129770992386,-0.0028372523852928785,-4.1712236328391525e-05,0.012877790329872938
1740927647.726293,None,None,0.02865859387207026,-0.021562180151367127,0.09363358778625996,-0.0028372393734716274,-4.21993946251988e-05,0.013248662742892993
1740927647.7422135,None,None,0.0023223756103516457,-0.007196970190429641,0.017297709923664417,-0.0028504200532285928,-4.240118542699303e-05,0.01331799582171139
1740927647.7539334,None,None,-0.004860229370117208,0.0071682397705079,-0.09720610687022857,-0.002866649202513771,-4.222140059676604e-05,0.012934949638707722
1740927647.7681785,None,None,0.009504980590820278,0.04068706301269537,-0.18880916030534323,-0.0028747416026806212,-4.175302277423694e-05,0.012189929985322697
1740927647.7826684,None,None,0.16273388684082035,0.021533449731445387,-0.3491145038167933,-0.002800527719059484,-4.086749520547055e-05,0.01081144615186059
1740927647.794665,None,None,0.0023223756103516457,0.033504458032226625,0.009664122137404974,-0.0028126612913643976,-4.100711452846893e-05,0.010850192066908322
1740927647.8061228,None,None,0.04062960217285161,-0.002408566870117146,-0.1124732824427479,-0.00280360745074014,-4.0767027452702354e-05,0.010406403509990142
1740927647.8177423,None,None,0.014293383911132773,0.11969571779785163,-0.14300763358778568,-0.0028080902266599634,-4.04037055397727e-05,0.009841910226543462
1740927647.8301601,None,None,0.026264392211914123,-0.014379575170898384,0.05546564885496208,-0.0028073832331949227,-4.0693714634426795e-05,0.010061428696422394
1740927647.84158,None,None,0.0023223756103516457,0.014350844750976643,0.10126717557251941,-0.002819556108717168,-4.112115158513073e-05,0.010461925122400791
1740927647.8541188,None,None,-0.009648632690429704,0.043081264672851616,0.2692061068702294,-0.002839181951793487,-4.209646299636305e-05,0.011525948565433944
1740927647.866839,None,None,0.0023223756103516457,0.026321853051757882,-1.8300305343511445,-0.002838904667648483,-3.620338057489123e-05,0.004296785928417497
1740927647.8785167,None,None,0.02865859387207026,-0.011985373510742137,-0.2575114503816791,-0.0028347825791931475,-3.545074486259253e-05,0.003278947787846321
1740927647.8947113,None,None,0.021475988891601627,-0.06944621335449214,0.03256488549618375,-0.002836186261598617,-3.564249991272245e-05,0.00340694172326714
1740927647.9276984,None,None,-0.04556165759277353,0.11730151613769538,-0.1277404580152668,-0.002872500743568638,-3.5299760642876534e-05,0.00290166657500212
1740927647.9628088,None,None,-0.016831237670898336,0.014350844750976643,-0.013236641221373802,-0.0028943839166035283,-3.5335293909271086e-05,0.0028486768532225972
1740927647.9817247,None,None,0.014293383911132773,0.09096529787597663,-0.051404580152671464,-0.002899323034375179,-3.525185363875422e-05,0.002644898822924732
1740927647.9965498,None,None,0.06696582043457022,0.01674504641113289,-0.02850381679389269,-0.0028757879952011826,-3.525206926083626e-05,0.002531563755925228
1740927648.0104866,None,None,0.033446997192382755,-0.05508100339355465,0.11653435114503852,-0.002870829064319245,-3.5714170194258545e-05,0.002991205803294146
1740927648.022335,None,None,-0.02401384265136719,0.023927651391601634,0.09363358778625996,-0.0028966437344679504,-3.60868542614741e-05,0.0033604634378779797
1740927648.044394,None,None,0.023870190551757764,0.04786966799316411,-0.0743053435114498,-0.0028955163545481342,-3.592747975068141e-05,0.003066332114654051
1740927648.0577898,None,None,-0.009648632690429704,0.05505227297363288,-0.02850381679389269,-0.0029127452022188623,-3.590666998482263e-05,0.002953106344608103
1740927648.0742514,None,None,0.026264392211914123,-0.04071579343261711,-0.16590839694656445,-0.0029095872308486687,-3.545227433577137e-05,0.0022970481610453323
1740927648.0861118,None,None,0.007110778930664141,-0.033533188452148366,0.04019847328244319,-0.002917969880139986,-3.5654384820002864e-05,0.002455124374308858
1740927648.100407,None,None,0.007110778930664141,0.023927651391601634,2.0325648854961837,-0.002938462255145414,-4.2237255789476645e-05,0.010484062251552993
1740927648.1158705,None,None,0.021475988891601627,-0.035927390112304614,0.07073282442748141,-0.002938797296233956,-4.2538703452312986e-05,0.010764069267401349
1740927648.132326,None,None,-0.09344569079589848,0.12208991945800787,0.03256488549618375,-0.003001809253207347,-4.270200516862565e-05,0.010893343985417652
1740927648.1517026,None,None,-0.031196447631835822,0.0071682397705079,-0.06667175572519035,-0.0030306635811218952,-4.257333820172416e-05,0.010630593531119106
1740927648.166471,None,None,-0.031196447631835822,0.09096529787597663,0.1394351145038173,-0.003060987281119037,-4.3107080847394886e-05,0.011182009218317048
1740927648.187619,None,None,0.014293383911132773,0.023927651391601634,0.20813740458015317,-0.0030668400745635705,-4.38597133219315e-05,0.012004902126124125
1740927648.2000942,None,None,0.02865859387207026,0.0071682397705079,-0.020870229007633245,-0.003063249025379393,-4.387982825414513e-05,0.011923234423416909
1740927648.2197917,None,None,-0.028802245971679685,0.11251311281738285,0.06309923664122197,-0.0030917411183046684,-4.4181430615164155e-05,0.012173265504041879
1740927648.2317295,None,None,-0.038379052612304676,-0.007196970190429641,0.009664122137404974,-0.0031254208305401677,-4.43270613605872e-05,0.01221223645096428
1740927648.2495604,None,None,0.03823540051269525,0.011956643090820396,-0.3033129770992362,-0.003114982097882855,-4.344695571775953e-05,0.011014810146170007
1740927648.2696085,None,None,0.021475988891601627,0.07181168459472662,0.21577099236641262,-0.0031167048357844582,-4.4210700905048626e-05,0.011867773584502524
1740927648.2828572,None,None,0.01908178723144527,-0.035927390112304614,-0.02850381679389269,-0.003118117806579194,-4.420020326296061e-05,0.011755884391816395
1740927648.2974455,None,None,-0.019225439331054694,0.014350844750976643,-0.08957251908396913,-0.003140385549657262,-4.4026186291057946e-05,0.011402729471747215
1740927648.3121269,None,None,0.007110778930664141,-0.09099402829589837,-0.12010687022900735,-0.0031479053429666315,-4.373552413219849e-05,0.010928886118470822
1740927648.3238811,None,None,-0.02161964099121083,-0.002408566870117146,0.05546564885496208,-0.0031724892262586877,-4.402660324316203e-05,0.011148537782346979
1740927648.3352196,None,None,-0.019225439331054694,0.03829286135253912,-0.12010687022900735,-0.003194840344004358,-4.3767543574221756e-05,0.010674645055084414
1740927648.3476489,None,None,-0.019225439331054694,0.009562441430664148,-0.09720610687022857,-0.0032174755830242686,-4.358425915514254e-05,0.01029113700803009
1740927648.3594499,None,None,-0.01204283435058584,-0.0048027685302733936,-0.1124732824427479,-0.0032361321501245344,-4.334713953402271e-05,0.009847251921863927
1740927648.3764684,None,None,0.009504980590820278,0.03829286135253912,-0.051404580152671464,-0.003243119287765458,-4.327519987410281e-05,0.009644530361913442
1740927648.388615,None,None,-0.01204283435058584,-0.03832159177246086,0.04019847328244319,-0.003262728709059119,-4.3519636190101327e-05,0.009803635650488144
1740927648.403042,None,None,-0.031196447631835822,0.01913924807128914,-0.28041221374045744,-0.0032913401933494985,-4.278432637821677e-05,0.00869625656674376
1740927648.4271412,None,None,-0.028802245971679685,0.0071682397705079,-1.8071297709923662,-0.003309815414513587,-3.723253541359856e-05,0.0015577244227445207
1740927648.462005,None,None,0.023870190551757764,0.0023798364501953495,0.0860000000000003,-0.0033100597943339014,-3.755238756326452e-05,0.001896463715931431
1740927648.4839113,None,None,0.043023803833007745,-0.011985373510742137,-0.09720610687022857,-0.0032981726024142676,-3.726828904137841e-05,0.001511551867415448
1740927648.5030189,None,None,0.026264392211914123,0.12448412111816412,0.07836641221374085,-0.0032965421220278453,-3.756170340534271e-05,0.0018201513614296571
1740927648.523913,None,None,-0.05513846423339852,0.011956643090820396,1.9485954198473285,-0.0033521309639485265,-4.387308432430602e-05,0.0095167046235924
1740927648.5399134,None,None,-0.04795585925292967,-0.021562180151367127,0.11653435114503852,-0.0033929510265433773,-4.440852338212062e-05,0.009977375752047605
1740927648.5520556,None,None,0.021475988891601627,-0.011985373510742137,-1.707893129770992,-0.0033836162790095974,-3.9077154529253894e-05,0.0032311797866611475
1740927648.5658333,None,None,-0.02401384265136719,0.004774038110351597,0.07073282442748141,-0.00341090190718508,-3.942039900043464e-05,0.0035099148821484414
1740927648.5827162,None,None,-0.05753266589355466,0.04068706301269537,0.03256488549618375,-0.003457315832228837,-3.9688953901027575e-05,0.003637934396624151
1740927648.5947769,None,None,0.01908178723144527,0.0023798364501953495,0.07073282442748141,-0.003460472784609921,-3.9977499754243576e-05,0.003916743676860238
1740927648.606237,None,None,-0.01204283435058584,0.01674504641113289,-0.05903816793893091,-0.0034805789101998923,-3.98939944723954e-05,0.0036829855592733886
1740927648.618803,None,None,0.009504980590820278,0.023927651391601634,-0.05903816793893091,-0.0034884003644193996,-3.97808973007483e-05,0.0034491949582245328
1740927648.6307344,None,None,-0.019225439331054694,0.04068706301269537,0.04019847328244319,-0.0035133125349629496,-4.002095787979941e-05,0.0036073826634487618
1740927648.643432,None,None,0.004716577270507782,-0.0502926000732421,-0.12010687022900735,-0.003523588532075107,-3.971651173055005e-05,0.0031323636634003737
1740927648.6566076,None,None,-0.016831237670898336,0.0023798364501953495,1.9485954198473285,-0.00355897963671896,-4.609892122121219e-05,0.010829025282530897
1740927648.6681807,None,None,0.052600610473632736,-0.03832159177246086,-1.776595419847328,-0.0035312716802618155,-4.041134089393657e-05,0.0038117472698324705
1740927648.6808908,None,None,0.004716577270507782,-0.04789839841308585,0.02493129770992386,-0.003542194794933627,-4.0572499153034434e-05,0.003909695795363132
1740927648.7000852,None,None,0.02865859387207026,-0.1556374731201171,-0.24224427480915978,-0.0035375483045998004,-3.983736675749685e-05,0.0029522775665999797
1740927648.7117026,None,None,0.05738901379394523,-0.035927390112304614,-0.19644274809160267,-0.0035163164052322404,-3.921005328948765e-05,0.0021756348236678423
1740927648.7324624,None,None,0.023870190551757764,-0.06705201169433589,-1.6773587786259538,-0.0035050006700087944,-3.3818552870743416e-05,-0.0044509489074259214
1740927648.7462232,None,None,0.07175422375488272,0.07899428957519536,-0.005603053435113914,-0.003476146355418802,-3.37849573487992e-05,-0.0044749044446124675
1740927648.7652755,None,None,0.004716577270507782,-0.026350583471679623,-1.7689618320610685,-0.0034749615773667303,-2.8118118387330057e-05,-0.011464329615363242
1740927648.7986255,None,None,-0.06232106921386715,0.023927651391601634,-1.7613282442748086,-0.0035131357716624064,-2.2525619455076764e-05,-0.018424667288698977
1740927648.824756,None,None,0.023870190551757764,-0.01916797849121088,0.03256488549618375,-0.003512559914867179,-2.2650044018563573e-05,-0.018299984852035378
1740927648.8368144,None,None,-0.050350060913086025,-0.1700026830810546,1.9638625954198476,-0.0035671881774494187,-2.9037299802669493e-05,-0.010546382662725923
1740927648.8519173,None,None,-0.016831237670898336,0.01674504641113289,-0.08957251908396913,-0.0035896464452894535,-2.8782446199014538e-05,-0.010902801216195964
1740927648.8645077,None,None,0.031052795532226618,0.031110256372070377,-1.8071297709923662,-0.0035734870307697745,-2.2975179242709653e-05,-0.018043769607150914
1740927648.87621,None,None,0.007110778930664141,0.12208991945800787,0.0860000000000003,-0.003583047520407778,-2.327346784196631e-05,-0.01770778749912378
1740927648.8954086,None,None,-0.050350060913086025,-0.009591171850585889,0.10890076335877907,-0.0036265393492421302,-2.3601257043880877e-05,-0.01728123766650071
1740927648.9067461,None,None,0.004716577270507782,0.033504458032226625,0.15470229007633618,-0.0036381603866992647,-2.4109294601197274e-05,-0.01667366306018146
1740927648.924249,None,None,0.01908178723144527,0.021533449731445387,-0.08193893129770968,-0.003639773165087719,-2.3871365304421206e-05,-0.017000700892711464
1740927648.9424696,None,None,-0.03359064929199218,-0.009591171850585889,-0.02850381679389269,-0.0036727526592167433,-2.3729176331081253e-05,-0.017116667868825458
1740927648.957306,None,None,0.016687585571289132,0.05984067629394538,-0.15064122137404556,-0.003675413540273916,-2.3263830591133307e-05,-0.017715068033702323
1740927648.9774206,None,None,-0.01204283435058584,-0.1556374731201171,0.1852366412213744,-0.003697100602845183,-2.3831988646207455e-05,-0.01698677951312577
1740927649.0252078,None,None,0.011899182250976637,0.004774038110351597,0.10126717557251941,-0.003704099978207432,-2.4177352516578546e-05,-0.0165900204432799
1740927649.0400968,None,None,-7.182604980471297e-05,-0.026350583471679623,0.1699694656488553,-0.0037185521405575152,-2.4719378992444207e-05,-0.015921778982063598
1740927649.0620427,None,None,0.026264392211914123,-0.035927390112304614,2.0020305343511455,-0.0037287105124023377,-3.1290558785215805e-05,-0.008016683792407458
1740927649.0738184,None,None,0.026264392211914123,0.0023798364501953495,0.3531755725190844,-0.00372819793193401,-3.252384116068108e-05,-0.006623337220604335
1740927649.0858636,None,None,0.03584119885253911,-0.002408566870117146,-0.10483969465648801,-0.003718875119684453,-3.2301644823774666e-05,-0.007038924093585867
1740927649.1004803,None,None,0.031052795532226618,0.05744647463378913,-0.13537404580152623,-0.0037119723866968365,-3.196929443025874e-05,-0.007575168665374322
1740927649.114055,None,None,0.052600610473632736,-0.02874478513183587,0.04019847328244319,-0.0036930246213160854,-3.227749019991447e-05,-0.007417967691853848
1740927649.1271145,None,None,-0.03598485095214854,-0.1700026830810546,-0.02850381679389269,-0.003726418109235148,-3.208305458190379e-05,-0.0075320827057343874
1740927649.1411867,None,None,-7.182604980471297e-05,0.031110256372070377,0.05546564885496208,-0.0037389852457611096,-3.227242250763844e-05,-0.0073145222767032544
1740927649.157557,None,None,0.03823540051269525,0.014350844750976643,0.03256488549618375,-0.003728333228685096,-3.251723538030061e-05,-0.007187372537126957
1740927649.1773827,None,None,0.043023803833007745,0.1101189111572266,-0.10483969465648801,-0.0037136564317481364,-3.2340566095564094e-05,-0.007602932478659769
1740927649.2007768,None,None,-0.007254431030273345,0.011956643090820396,-0.08957251908396913,-0.0037290977448021503,-3.2038197429613714e-05,-0.007958226217655497
1740927649.223633,None,None,0.03584119885253911,-0.0048027685302733936,-0.09720610687022857,-0.003718485552132666,-3.186827639742245e-05,-0.008343717196957394
1740927649.2370152,None,None,-7.182604980471297e-05,0.07660008791503911,0.017297709923664417,-0.0037300287723057005,-3.1933066717573897e-05,-0.008276955692864168
1740927649.2524989,None,None,0.014293383911132773,0.0023798364501953495,-0.18117557251908378,-0.0037316406187312746,-3.142102475006696e-05,-0.008994131200023054
1740927649.2677608,None,None,-0.04795585925292967,0.043081264672851616,-0.020870229007633245,-0.003771875552418553,-3.117263356619289e-05,-0.009078188083227443
1740927649.3041027,None,None,0.04781220715332024,-0.13169545651855463,0.047832061068702636,-0.0037546452821518,-3.1521064350466286e-05,-0.008890882945194576
1740927649.3234725,None,None,0.01908178723144527,-0.007196970190429641,-1.7918625954198468,-0.0037436039446424344,-2.5967766051156137e-05,-0.015970247331038002
1740927649.3645625,None,None,-0.040773254272461035,0.10772470949707036,-0.02850381679389269,-0.0037794960236861904,-2.5711391344258233e-05,-0.016085507214530906
1740927649.3817918,None,None,-0.05274426257324216,-0.04789839841308585,0.09363358778625996,-0.0038236675502296468,-2.576517386640881e-05,-0.015718312215531115
1740927649.3976982,None,None,-0.05513846423339852,-0.11014764157714835,0.02493129770992386,-0.0038692342938897533,-2.5571963013644028e-05,-0.015622395573305501
1740927649.4147565,None,None,0.031052795532226618,0.01913924807128914,0.21577099236641262,-0.003863563460918806,-2.6375505566490816e-05,-0.014772641371370137
1740927649.4332561,None,None,0.016687585571289132,0.011956643090820396,-0.0743053435114498,-0.0038647374610916835,-2.6210916141772414e-05,-0.015068502220905455
1740927649.446019,None,None,0.04781220715332024,0.062234877954101625,0.2844732824427485,-0.003848785847882052,-2.732654335971818e-05,-0.0139472336104143
1740927649.4591923,None,None,-0.03598485095214854,-0.07184041501464838,-0.16590839694656445,-0.003881287124701391,-2.6605443895401763e-05,-0.014604717867973334
1740927649.4725363,None,None,-0.02161964099121083,-0.035927390112304614,0.0860000000000003,-0.003906661670662927,-2.6731188403885126e-05,-0.014267261828462377
1740927649.486736,None,None,0.03584119885253911,-0.0048027685302733936,-0.3872824427480914,-0.0038940385285236327,-2.5714126352897222e-05,-0.015799164822489595
1740927649.499611,None,None,-0.03598485095214854,0.009562441430664148,-0.03613740458015213,-0.003927496444237778,-2.5369536932537678e-05,-0.01594427395835449
1740927649.512622,None,None,0.026264392211914123,-0.031138986791992118,-1.8300305343511445,-0.003912420758632608,-1.986874850489009e-05,-0.023175114127906217
1740927649.5431263,None,None,0.0502064088134766,0.0023798364501953495,-0.08957251908396913,-0.0038925366844032813,-1.9875973304607238e-05,-0.02353242040049307
1740927649.5627596,None,None,-0.01204283435058584,0.05505227297363288,-0.020870229007633245,-0.00391120908102142,-1.9709893911548137e-05,-0.023618358265308514
1740927649.5760345,None,None,0.016687585571289132,-1.4365209960898184e-05,0.05546564885496208,-0.003912568614994072,-1.9962401842104757e-05,-0.023402752235721747
1740927649.5943756,None,None,-0.0024660277099608496,-0.026350583471679623,-0.013236641221373802,-0.003925272280836882,-1.9875174811693335e-05,-0.023458431041051386
1740927649.6107733,None,None,0.0023223756103516457,0.04068706301269537,-1.7994961832061063,-0.0039248619020068615,-1.4392978624820927e-05,-0.03056961517292961
1740927649.6329088,None,None,-0.016831237670898336,0.10533050783691411,-0.158274809160305,-0.003945790238243872,-1.374976329885988e-05,-0.031199232989903066
1740927649.6837585,None,None,-0.06950367419433601,-0.0574752050537109,0.12416793893129818,-0.004001226732268027,-1.3525770674288462e-05,-0.0307132651051089
1740927649.702114,None,None,-0.031196447631835822,0.031110256372070377,-0.02850381679389269,-0.004032356584927381,-1.3108582601464234e-05,-0.030830207794861026
1740927649.7207246,None,None,-0.004860229370117208,-0.007196970190429641,2.0478320610687026,-0.004058939492504396,-1.9161903626051123e-05,-0.022745840884905486
1740927649.7390351,None,None,0.04062960217285161,0.01913924807128914,1.9485954198473285,-0.004056362197010272,-2.532235089579249e-05,-0.015052120330352296
1740927649.766081,None,None,-0.05513846423339852,0.009562441430664148,2.0707328244274814,-0.004113960449720946,-3.1004637996404144e-05,-0.006874691344456145
1740927649.782654,None,None,0.014293383911132773,-0.01916797849121088,0.017297709923664417,-0.00411665345504026,-3.1126258454018895e-05,-0.006806762215394933
1740927649.796669,None,None,0.033446997192382755,0.04786966799316411,-0.1277404580152668,-0.004106398688302183,-3.09813498337261e-05,-0.007311703510582849
1740927649.8123658,None,None,-0.007254431030273345,-0.15803167478027336,0.03256488549618375,-0.004122400089896834,-3.095491208603536e-05,-0.007183525817583902
1740927649.8280702,None,None,0.016687585571289132,0.11251311281738285,1.9638625954198476,-0.004134245660922576,-3.694496922766675e-05,0.0005730272622979067
1740927649.8517103,None,None,-0.0024660277099608496,-0.08141722165527338,0.009664122137404974,-0.004146858044356446,-3.6898544887229336e-05,0.0006120181199562983
1740927649.8695903,None,None,-0.03359064929199218,-0.011985373510742137,-0.14300763358778568,-0.004178255592738306,-3.6126221372772794e-05,4.7981845365921254e-05
1740927649.8826857,None,None,0.021475988891601627,-0.009591171850585889,-0.08957251908396913,-0.004175405474710963,-3.5993467981837926e-05,-0.0003051080640656716
1740927649.902793,None,None,0.033446997192382755,0.026321853051757882,-0.23461068702290033,-0.004164023007120803,-3.552431372846552e-05,-0.0012311447959870824
1740927649.9170437,None,None,-0.004860229370117208,-0.08141722165527338,-1.7613282442748086,-0.00416811875974864,-3.0168589132169826e-05,-0.008187622222915287
1740927649.9293609,None,None,0.045418005493164104,-1.4365209960898184e-05,0.07836641221374085,-0.0041508286938325865,-3.072639301995552e-05,-0.007878723825251508
1740927649.9437394,None,None,-0.040773254272461035,0.0023798364501953495,-0.03613740458015213,-0.004187279153792742,-3.021921066521576e-05,-0.008022016293890733
1740927649.9551728,None,None,0.011899182250976637,-1.4365209960898184e-05,-0.2269770992366409,-0.004189453148521394,-2.9587045254765657e-05,-0.008919124131670265
1740927649.967838,None,None,0.021475988891601627,-1.4365209960898184e-05,-0.16590839694656445,-0.004185798880692613,-2.9217479905615567e-05,-0.009575158708714606
1740927649.9851632,None,None,0.011899182250976637,0.10533050783691411,0.16233587786259585,-0.0041899248310736945,-2.9740272961462783e-05,-0.008934777133442562
1740927649.999042,None,None,-0.04795585925292967,0.0023798364501953495,0.14706870229007674,-0.004232034278586979,-2.970914829098018e-05,-0.008354569111875326
1740927650.0167248,None,None,0.045418005493164104,0.12448412111816412,0.07836641221374085,-0.0042144228699386105,-3.0266683665790976e-05,-0.00804564868575259
1740927650.0399184,None,None,-0.01204283435058584,0.033504458032226625,-1.6697251908396944,-0.004223559200768467,-2.5188395461843533e-05,-0.014641301636486043
1740927650.059863,None,None,0.011899182250976637,-0.13169545651855463,0.02493129770992386,-0.004226943365845468,-2.530188222164317e-05,-0.014544420381369598
1740927650.0775075,None,None,-0.06232106921386715,0.031110256372070377,-0.03613740458015213,-0.00427746678626785,-2.459132324217878e-05,-0.014688691708769156
1740927650.0902772,None,None,0.021475988891601627,0.10533050783691411,0.1852366412213744,-0.004275840710365285,-2.5253620364657607e-05,-0.013958605542098358
1740927650.1069353,None,None,0.02865859387207026,0.09335949953613287,0.06309923664122197,-0.004268752067459015,-2.562481000456029e-05,-0.013710805036787762
1740927650.1231074,None,None,-0.02161964099121083,0.01674504641113289,-0.020870229007633245,-0.004293332053497369,-2.5303355669903575e-05,-0.013794594955083738
1740927650.1389973,None,None,0.033446997192382755,-1.4365209960898184e-05,2.024931297709924,-0.004293808648334171,-3.144584195797599e-05,-0.005797884012460864
1740927650.1527326,None,None,0.043023803833007745,0.031110256372070377,-0.02850381679389269,-0.004276422329448227,-3.168461896664689e-05,-0.0059105461050067256
1740927650.1685514,None,None,0.004716577270507782,0.12208991945800787,-1.6849923664122133,-0.004274415844822546,-2.676613269845538e-05,-0.012566008776516886
1740927650.1863718,None,None,0.03823540051269525,0.009562441430664148,-0.06667175572519035,-0.004259670603698693,-2.685444599303161e-05,-0.012830504264498539
1740927650.2006543,None,None,-0.014437036010742199,-0.04310999509277336,-1.8300305343511445,-0.004269181080776094,-2.137849357839552e-05,-0.02005991300764584
1740927650.2186658,None,None,-0.007254431030273345,-0.12930125485839838,-0.013236641221373802,-0.004284106121037541,-2.1213193792149854e-05,-0.020114504307052805
1740927650.2379622,None,None,-0.026408044311523327,0.021533449731445387,0.047832061068702636,-0.004311807714375756,-2.1038074396681508e-05,-0.019927860410782067
1740927650.2508216,None,None,0.007110778930664141,-0.026350583471679623,0.009664122137404974,-0.004317685666329055,-2.1064387833743064e-05,-0.01989192379460456
1740927650.2687,None,None,-0.007254431030273345,0.11251311281738285,-0.08193893129770968,-0.004332341835927603,-2.068941136953403e-05,-0.020217760671120653
1740927650.2844694,None,None,-0.009648632690429704,-0.021562180151367127,-0.02850381679389269,-0.004348875925860785,-2.0439351853198787e-05,-0.0203325637645898
1740927650.2982612,None,None,-0.05753266589355466,0.01674504641113289,-0.005603053435113914,-0.004396783891925421,-1.9767982972094318e-05,-0.020356888152753175
1740927650.3166142,None,None,-7.182604980471297e-05,-0.031138986791992118,-0.10483969465648801,-0.004407043920076776,-1.938184204657897e-05,-0.02077317016859054
1740927650.330612,None,None,0.03584119885253911,-0.1508490697998046,0.07836641221374085,-0.004394818026091625,-1.9886103054848992e-05,-0.020465880063405703
1740927650.3451986,None,None,-0.06950367419433601,-0.01916797849121088,0.15470229007633618,-0.004451624652391249,-1.950763771294361e-05,-0.019856967616088333
1740927650.361376,None,None,-0.02161964099121083,-0.011985373510742137,0.04019847328244319,-0.0044769140147891615,-1.929391420195596e-05,-0.019700211112717816
1740927650.3779435,None,None,0.0023223756103516457,-0.0048027685302733936,0.24630534351145084,-0.004487746205620388,-1.9915199221165333e-05,-0.018729338013234016
1740927650.392846,None,None,0.016687585571289132,0.021533449731445387,-0.02850381679389269,-0.004487644390888471,-1.9915700703639197e-05,-0.018843721892954014
1740927650.4142766,None,None,-0.050350060913086025,0.01913924807128914,0.00203053435114553,-0.0045316283006721315,-1.9265870212798853e-05,-0.018837474198788184
1740927650.4288442,None,None,-0.016831237670898336,0.11251311281738285,-0.020870229007633245,-0.0045537772676285705,-1.891129251400676e-05,-0.01892166729124754
1740927650.4432364,None,None,0.0023223756103516457,0.07660008791503911,-0.2575114503816791,-0.00456215459711962,-1.8095413045406053e-05,-0.019940534059099343
1740927650.457502,None,None,-0.026408044311523327,0.014350844750976643,1.9638625954198476,-0.004601473715022405,-2.3258971908446603e-05,-0.012185642902129427
1740927650.4697673,None,None,-0.05274426257324216,-0.026350583471679623,0.10126717557251941,-0.004648126565143726,-2.2846523455243955e-05,-0.011786277634536779
1740927650.4867878,None,None,0.04062960217285161,0.12687832277832037,2.009664122137405,-0.004643859108428878,-2.89429646060892e-05,-0.003849178553303391
1740927650.49837,None,None,0.0023223756103516457,-0.04310999509277336,-0.12010687022900735,-0.004652878603052679,-2.8548816400409856e-05,-0.004322857824098409
1740927650.5210624,None,None,0.021475988891601627,-0.1652142797607421,-0.05903816793893091,-0.00464955237253162,-2.854249423918046e-05,-0.004555422735454498
1740927650.5409636,None,None,0.12921506359863288,0.03829286135253912,-0.12010687022900735,-0.004574345158226336,-2.9557311350695817e-05,-0.005029278886076449
1740927650.5969865,None,None,-0.026408044311523327,-0.002408566870117146,0.02493129770992386,-0.004602353243483626,-2.9246638218338307e-05,-0.004930295316399615
1740927650.6224585,None,None,-0.0024660277099608496,-0.035927390112304614,-0.013236641221373802,-0.004614410922261052,-2.9094291064667773e-05,-0.004982065014836116
1740927650.6467538,None,None,0.052600610473632736,0.062234877954101625,-1.7460610687022897,-0.004580314378400637,-2.459507050727817e-05,-0.011878078385705298
1740927650.664378,None,None,-0.016831237670898336,-0.01916797849121088,0.0860000000000003,-0.004602319615404051,-2.4565001289985486e-05,-0.01153900745101898
1740927650.6822808,None,None,0.05978321545410159,0.12208991945800787,0.22340458015267206,-0.004574108090313271,-2.576251263537794e-05,-0.010657192292003665
1740927650.6949654,None,None,-0.014437036010742199,-0.0048027685302733936,0.04019847328244319,-0.004593980497179243,-2.562777947762436e-05,-0.010498816158138392
1740927650.707014,None,None,-0.05274426257324216,-0.05508100339355465,-0.02850381679389269,-0.004639137056013836,-2.487901900922931e-05,-0.010611750458544067
1740927650.7189622,None,None,-0.016831237670898336,-0.14366646481933587,0.04019847328244319,-0.0046609915278857965,-2.4716656260958562e-05,-0.010453356679297508
1740927650.7309048,None,None,-0.0024660277099608496,0.01674504641113289,0.33790839694656527,-0.0046749538347623226,-2.5552671063706738e-05,-0.00911906457692786
1740927650.7431843,None,None,0.007110778930664141,0.0071682397705079,0.05546564885496208,-0.004680936844729538,-2.569579833593441e-05,-0.008900131061717446
1740927650.75985,None,None,0.0023223756103516457,0.0813884912353516,1.9027938931297714,-0.004700157984580521,-3.099991089263903e-05,-0.0013847171392560803
1740927650.7756596,None,None,-0.009648632690429704,-0.002408566870117146,0.00203053435114553,-0.004716861169812496,-3.081693817311473e-05,-0.0013755905963562561
1740927650.797863,None,None,-0.02401384265136719,0.12687832277832037,2.040198473282443,-0.004754401602306482,-3.622581747310808e-05,0.00668372872485198
1740927650.8135257,None,None,0.0023223756103516457,0.009562441430664148,0.1699694656488553,-0.004763998230718449,-3.665953349647363e-05,0.007357425451310185
1740927650.8268423,None,None,0.04062960217285161,0.014350844750976643,-0.14300763358778568,-0.004746048717311893,-3.6602569746597584e-05,0.006795012132574413
1740927650.840366,None,None,-0.02161964099121083,0.026321853051757882,-0.21170992366412156,-0.004769448400134085,-3.571866716977024e-05,0.0059611489279729046
1740927650.8522964,None,None,-0.028802245971679685,0.0023798364501953495,0.09363358778625996,-0.004799518859621108,-3.563399863512806e-05,0.0063331464144050515
1740927650.8653526,None,None,0.03823540051269525,-0.009591171850585889,0.017297709923664417,-0.0047840464633202556,-3.598466692180696e-05,0.006403643174131961
1740927650.8805022,None,None,-0.007254431030273345,-0.08381142331542962,0.09363358778625996,-0.004799513718838942,-3.611390632436991e-05,0.006775647152623712
1740927650.8927917,None,None,-0.01204283435058584,-0.035927390112304614,0.17760305343511495,-0.004818718697266022,-3.644038176175649e-05,0.0074793400673627474
1740927650.907403,None,None,-0.028802245971679685,0.03829286135253912,-0.18880916030534323,-0.0048473440777503166,-3.5600255426691345e-05,0.006735901982223918
1740927650.9264622,None,None,0.0023223756103516457,-0.026350583471679623,0.04019847328244319,-0.0048563021018713905,-3.568230217714442e-05,0.006896816579562043
1740927650.9382367,None,None,-0.040773254272461035,0.021533449731445387,-0.1124732824427479,-0.004893683316253097,-3.4976186162105085e-05,0.006454738790130103
1740927650.9543266,None,None,0.026264392211914123,0.04786966799316411,-0.16590839694656445,-0.004885457910553882,-3.468541980960805e-05,0.005801482096414023
1740927650.9678082,None,None,-0.004860229370117208,0.0023798364501953495,0.07836641221374085,-0.00489961153756267,-3.482118258311222e-05,0.006112921589501801
1740927650.9858072,None,None,-0.004860229370117208,-0.16282007810058585,-0.005603053435113914,-0.004913330748914441,-3.472509980532087e-05,0.0060927320249188205
1740927650.9983225,None,None,-0.04795585925292967,-0.0502926000732421,-0.272778625954198,-0.004955006089239471,-3.3554262685117945e-05,0.005017268739163058
1740927651.0164094,None,None,0.031052795532226618,-0.16282007810058585,0.2539389312977103,-0.004945985807021548,-3.446594686819348e-05,0.006021952707721718
1740927651.0318837,None,None,-0.026408044311523327,-0.16282007810058585,0.11653435114503852,-0.004975267300309686,-3.456714937468496e-05,0.006484092801450938
1740927651.0583017,None,None,0.007110778930664141,-0.1652142797607421,0.13180152671755763,-0.004981869067312074,-3.496037863252667e-05,0.007006569759516256
1740927651.074067,None,None,-0.014437036010742199,0.03589865969238287,0.02493129770992386,-0.005002585057681331,-3.490413081425345e-05,0.0071070100913831315
1740927651.0885355,None,None,0.026264392211914123,0.12687832277832037,-0.03613740458015213,-0.00499515263552617,-3.495424205453656e-05,0.0069662217394225135
1740927651.1006298,None,None,0.026264392211914123,0.004774038110351597,0.1852366412213744,-0.004988807661198326,-3.562121580620135e-05,0.00769974583524852
1740927651.1126053,None,None,-0.007254431030273345,-0.023956381811523375,-0.06667175572519035,-0.005003892094257287,-3.535737042384764e-05,0.007438416394394346
1740927651.1292162,None,None,0.016687585571289132,-0.0048027685302733936,-0.013236641221373802,-0.005002869083075776,-3.5394678347301033e-05,0.0073880619724155695
1740927651.141466,None,None,-0.026408044311523327,0.009562441430664148,-0.02850381679389269,-0.005031322431073409,-3.5128252091824215e-05,0.0072773923338298645
1740927651.1572347,None,None,-0.004860229370117208,-0.035927390112304614,0.19287022900763406,-0.0050463576386109285,-3.562321084153946e-05,0.00804103021899532
1740927651.1694076,None,None,0.03823540051269525,-0.016773776831054632,0.07836641221374085,-0.005031040709279347,-3.603845635147041e-05,0.00835249444256066
1740927651.183462,None,None,0.05738901379394523,0.02871605471191413,0.017297709923664417,-0.0050019057943359825,-3.6371153168773896e-05,0.008422773731419529
1740927651.1952665,None,None,0.021475988891601627,-0.062263608374023394,-1.822396946564885,-0.004986767384620552,-3.1289673886442645e-05,0.0012268411587561135
1740927651.2085044,None,None,-7.182604980471297e-05,-0.011985373510742137,-0.16590839694656445,-0.0049959577182487145,-3.078151986446846e-05,0.0005723472664470711
1740927651.220244,None,None,0.016687585571289132,-1.4365209960898184e-05,0.05546564885496208,-0.004994803499492943,-3.098383679008805e-05,0.0007920888845153868
1740927651.232629,None,None,-0.031196447631835822,0.031110256372070377,-0.08193893129770968,-0.00502593965408439,-3.05594259108569e-05,0.0004691724940721453
1740927651.248762,None,None,-0.06232106921386715,0.12208991945800787,-0.15064122137404556,-0.005078477760082129,-2.9794490347445373e-05,-0.00012514397793316986
1740927651.260959,None,None,-0.04556165759277353,-0.021562180151367127,0.14706870229007674,-0.005121465584813586,-2.9956069534900955e-05,0.0004562875715414473
1740927651.2724533,None,None,-0.031196447631835822,-0.04071579343261711,-1.8147633587786256,-0.005143612728437744,-2.4665787989827525e-05,-0.006710803848094603
1740927651.2859368,None,None,0.004716577270507782,-0.14366646481933587,-0.3033129770992362,-0.00514970006297142,-2.378809806106777e-05,-0.007909324583216665
1740927651.2976997,None,None,0.04062960217285161,0.01913924807128914,-0.3033129770992362,-0.005130770518600951,-2.3080545930643685e-05,-0.009108044615548856
1740927651.3104632,None,None,0.031052795532226618,-0.026350583471679623,-0.12010687022900735,-0.005119335612754373,-2.284558798942781e-05,-0.009583338777433689
1740927651.3272364,None,None,-0.004860229370117208,0.033504458032226625,0.04019847328244319,-0.005133693604457274,-2.2887614202696366e-05,-0.009425529325956927
1740927651.341782,None,None,-7.182604980471297e-05,0.02871605471191413,-0.005603053435113914,-0.005144468813734839,-2.2823193841564787e-05,-0.009448585321392118
1740927651.3539376,None,None,-0.014437036010742199,-0.011985373510742137,-0.04377099236641202,-0.005165066608151013,-2.2576047291326405e-05,-0.009622378269021015
1740927651.368763,None,None,-0.0024660277099608496,-0.002408566870117146,2.040198473282443,-0.0051893936625816515,-2.8292589334634126e-05,-0.0015652026277700598
1740927651.3814247,None,None,0.023870190551757764,0.026321853051757882,-0.16590839694656445,-0.005182396956603422,-2.7908836445307756e-05,-0.0022201267459288393
1740927651.3930008,None,None,0.0023223756103516457,0.07420588625488286,0.12416793893129818,-0.005192048450379181,-2.823406630704191e-05,-0.0017294467058858306
1740927651.414722,None,None,-7.182604980471297e-05,0.004774038110351597,-0.08193893129770968,-0.0052021617653455155,-2.796351329579642e-05,-0.0020527437696052217
1740927651.4371164,None,None,0.05738901379394523,0.12687832277832037,-0.31858015267175555,-0.005170545762719866,-2.731303698114515e-05,-0.003310772955631978
1740927651.4601488,None,None,-0.050350060913086025,-0.007196970190429641,-0.3033129770992362,-0.005214434884710739,-2.6159254872443122e-05,-0.004508663837267211
1740927651.484726,None,None,-0.016831237670898336,0.12448412111816412,1.9104274809160309,-0.00524789059030864,-3.144270748316376e-05,0.0030367670523854667
1740927651.5015488,None,None,0.014293383911132773,0.043081264672851616,-0.29567938931297677,-0.005246583788733118,-3.064636174322536e-05,0.0018700185340701301
1740927651.5217118,None,None,0.014293383911132773,-0.026350583471679623,-0.02850381679389269,-0.005246762071281087,-3.060318857153201e-05,0.0017583224298518346
1740927651.5378373,None,None,-0.038379052612304676,-0.14845486813964837,0.02493129770992386,-0.005284334722449831,-3.045827220449613e-05,0.0018576683163738182
1740927651.5527716,None,None,-0.040773254272461035,0.08378269289550788,-1.7842290076335874,-0.005313316155713274,-2.518557119186055e-05,-0.005188545450283702
1740927651.5749881,None,None,0.02865859387207026,-0.021562180151367127,0.00203053435114553,-0.0053040029267563,-2.528540328143031e-05,-0.005180811204669196
1740927651.5976949,None,None,-0.05274426257324216,-0.0048027685302733936,-1.7613282442748086,-0.00534181873452722,-1.9998167829488477e-05,-0.012137701918851374
1740927651.6107593,None,None,-0.028802245971679685,0.11251311281738285,0.04019847328244319,-0.005373684892573279,-1.991374466978865e-05,-0.011980301759967067
1740927651.6307404,None,None,0.021475988891601627,-0.026350583471679623,-0.04377099236641202,-0.005369595936194022,-1.983175087596762e-05,-0.01215452881325642
1740927651.6646903,None,None,0.17709909680175784,0.052658071313476607,0.047832061068702636,-0.005255494017846903,-2.0800194708977752e-05,-0.011967026215346156
1740927651.6807106,None,None,-7.182604980471297e-05,-0.002408566870117146,0.047832061068702636,-0.0052661213924735046,-2.0892808668700134e-05,-0.011779407369591825
1740927651.6951747,None,None,0.007110778930664141,-0.1556374731201171,-0.03613740458015213,-0.005271128774043798,-2.0782960076161694e-05,-0.01192339486134662
1740927651.7116458,None,None,-0.014437036010742199,0.033504458032226625,0.09363358778625996,-0.005292175626040111,-2.0926825362728256e-05,-0.011554831059483139
1740927651.7267923,None,None,0.026264392211914123,0.004774038110351597,1.9333282442748096,-0.005295106539974527,-2.6507027135306188e-05,-0.003920058354847292
1740927651.7419071,None,None,-0.050350060913086025,-0.031138986791992118,0.07836641221374085,-0.005341413701403256,-2.6409031401528568e-05,-0.0036104673844864783
1740927651.7620072,None,None,0.007110778930664141,-0.021562180151367127,2.0020305343511455,-0.005358283506152281,-3.206465628900795e-05,0.004296946305393633
1740927651.7837176,None,None,0.014293383911132773,-0.15324327145996086,-0.03613740458015213,-0.0053578678822586495,-3.1997744910320885e-05,0.004155577354069295
1740927651.796867,None,None,-0.009648632690429704,0.07181168459472662,0.07836641221374085,-0.005375141212536046,-3.212792303588581e-05,0.004466427156105936
1740927651.8112528,None,None,0.026264392211914123,-0.035927390112304614,-0.013236641221373802,-0.00536623430639898,-3.2184282037712164e-05,0.004415496581578551
1740927651.8263507,None,None,-0.031196447631835822,-0.01916797849121088,0.009664122137404974,-0.0053984333942704394,-3.2017964193351756e-05,0.004455012362067763
1740927651.8628511,None,None,-7.182604980471297e-05,-0.016773776831054632,2.024931297709924,-0.0054202437769217005,-3.7671040139576395e-05,0.01245409268456656
1740927651.881306,None,None,-0.03598485095214854,0.004774038110351597,-0.158274809160305,-0.005454927314578035,-3.703403308418047e-05,0.011831565715009885
1740927651.9059656,None,None,0.011899182250976637,-0.02874478513183587,0.13180152671755763,-0.005457156353696038,-3.743529827947275e-05,0.012354585656008471
1740927651.9256258,None,None,-0.014437036010742199,0.014350844750976643,-0.04377099236641202,-0.0054772020156979755,-3.723377021830581e-05,0.012184219584961147
1740927651.9454334,None,None,-7.182604980471297e-05,0.11730151613769538,-0.05903816793893091,-0.005486920426439577,-3.7053122539713896e-05,0.01195348905272746
1740927651.9736493,None,None,0.009504980590820278,0.03829286135253912,-0.013236641221373802,-0.005490018775137108,-3.703724422681599e-05,0.011903586410971929
1740927651.9851298,None,None,-0.014437036010742199,0.0023798364501953495,0.03256488549618375,-0.005510574076636087,-3.706557454472454e-05,0.012034553920916204
1740927651.996997,None,None,0.011899182250976637,0.0071682397705079,-0.14300763358778568,-0.0055112041230127255,-3.669470332767422e-05,0.01147205492391544
1740927652.011912,None,None,-0.016831237670898336,0.01674504641113289,-0.020870229007633245,-0.005533217982355785,-3.657596828650583e-05,0.011391845262999346
1740927652.039219,None,None,-0.026408044311523327,-0.03832159177246086,2.040198473282443,-0.005574276098127488,-4.220677533872178e-05,0.019452069992793516
1740927652.0517979,None,None,0.016687585571289132,-0.06705201169433589,-1.776595419847328,-0.005561895058511355,-3.728932197323279e-05,0.01243859637983551
1740927652.0703156,None,None,0.07654262707519521,0.01674504641113289,-0.08193893129770968,-0.005516165636221564,-3.723676721169881e-05,0.012117209172620814
1740927652.0821483,None,None,-0.059926867553711016,-0.02874478513183587,0.04019847328244319,-0.0055695039194307815,-3.721277975769473e-05,0.012278189217061851
1740927652.0939608,None,None,-0.06471527087402351,-0.007196970190429641,0.017297709923664417,-0.0056265361100599305,-3.714164227225865e-05,0.012348718876501508
1740927652.1051674,None,None,-0.02401384265136719,-0.1747910864013671,-0.051404580152671464,-0.005654041140659926,-3.697418061091643e-05,0.012147868345616394
1740927652.1191816,None,None,-0.05513846423339852,-0.009591171850585889,0.09363358778625996,-0.0057051508458618935,-3.717668029720563e-05,0.012519816234878139
1740927652.1306798,None,None,-0.0838688841552735,-0.14606066647949212,-0.013236641221373802,-0.0057768450010986854,-3.70657123298002e-05,0.012469708510589957
1740927652.1418636,None,None,0.01908178723144527,0.033504458032226625,-1.776595419847328,-0.005763719460042688,-3.212369444738899e-05,0.005454913627050194
1740927652.1535213,None,None,-0.01204283435058584,0.004774038110351597,1.9333282442748096,-0.0057954589582707135,-3.761152966030361e-05,0.013091804539526982
1740927652.164899,None,None,-0.026408044311523327,-0.002408566870117146,1.9714961832061073,-0.005837900533000541,-4.325457216726838e-05,0.0208806601038525
1740927652.177365,None,None,-0.0024660277099608496,0.10293630617675786,-0.04377099236641202,-0.005850749017180843,-4.32236566116385e-05,0.020711170709237333
1740927652.1888368,None,None,-0.019225439331054694,0.052658071313476607,0.009664122137404974,-0.005876197966714218,-4.334338090075254e-05,0.020752665507961746
1740927652.2002943,None,None,-0.004860229370117208,-0.06705201169433589,-1.7613282442748086,-0.005880384702248707,-3.83651051702422e-05,0.01379936096120294
1740927652.213278,None,None,0.033446997192382755,0.014350844750976643,-0.05903816793893091,-0.0058672901865824975,-3.825736197549326e-05,0.013568297831099932
1740927652.228035,None,None,0.021475988891601627,0.009562441430664148,0.07836641221374085,-0.005863641218825831,-3.854103114182203e-05,0.013879871431232944
1740927652.2397265,None,None,-0.004860229370117208,0.11969571779785163,-0.21170992366412156,-0.005877336623262032,-3.7988301998654684e-05,0.013045784778163077
1740927652.2520835,None,None,0.009504980590820278,-0.01916797849121088,0.09363358778625996,-0.005882505775605282,-3.831646167086844e-05,0.013417525390973005
1740927652.2666135,None,None,0.026264392211914123,0.08617689455566413,2.0172977099236644,-0.005887586915745933,-4.428803270364082e-05,0.02138704383292632
1740927652.2805097,None,None,-0.004860229370117208,0.11490731447753913,0.05546564885496208,-0.005902707454087255,-4.4542765731361234e-05,0.02160932795843156
1740927652.2921028,None,None,-0.016831237670898336,-0.12690705319824214,-1.822396946564885,-0.005914612018583205,-3.9265210879718294e-05,0.014414764091435526
1740927652.3044121,None,None,-0.016831237670898336,-0.009591171850585889,0.04019847328244319,-0.00593876334714659,-3.948182311568184e-05,0.014575552618067384
1740927652.3166728,None,None,0.01908178723144527,-0.02874478513183587,-1.7842290076335874,-0.005924789609282474,-3.4204830939285674e-05,0.007530535146581249
1740927652.3286562,None,None,0.011899182250976637,-0.01916797849121088,0.23103816793893173,-0.005929253181259567,-3.4916555560792366e-05,0.008443904024851628
1740927652.3405128,None,None,0.011899182250976637,0.03589865969238287,-0.06667175572519035,-0.00593170171775891,-3.4739897506895145e-05,0.008181567745878297
1740927652.3518145,None,None,-0.019225439331054694,0.014350844750976643,0.1394351145038173,-0.005958402959241218,-3.524537676332308e-05,0.008733229310398695
1740927652.3642094,None,None,0.18428170178222647,-0.15803167478027336,-0.14300763358778568,-0.005833204901977059,-3.445799570100482e-05,0.008169367805644962
1740927652.3796794,None,None,0.016687585571289132,0.02871605471191413,-0.051404580152671464,-0.005831296812618686,-3.429720404940267e-05,0.007967249024157142
1740927652.391486,None,None,0.031052795532226618,-0.02874478513183587,-0.16590839694656445,-0.005817919286186606,-3.3756348627418675e-05,0.0073128362951954415
1740927652.403534,None,None,0.011899182250976637,-0.007196970190429641,-0.020870229007633245,-0.005819487029783608,-3.369405409990707e-05,0.007231158088892201
1740927652.4179704,None,None,0.014293383911132773,0.0071682397705079,-0.051404580152671464,-0.005819003277315348,-3.353348488667203e-05,0.007028857735198974
1740927652.4300938,None,None,0.0023223756103516457,-1.4365209960898184e-05,-1.7918625954198468,-0.005815907622066749,-2.819698299628528e-05,-4.761686388169567e-05
1740927652.4413056,None,None,-0.01204283435058584,-0.17239688474121084,0.10126717557251941,-0.005835984476805656,-2.8559287376798914e-05,0.00035189902955814654
1740927652.454976,None,None,-0.09105148913574213,0.026321853051757882,0.3684427480916035,-0.005916465823451277,-2.990897291942099e-05,0.0018067451792941102
1740927652.4667535,None,None,-0.01204283435058584,-0.04310999509277336,-0.19644274809160267,-0.005935098272907021,-2.9381409286775653e-05,0.001030730100473449
1740927652.4812238,None,None,0.009504980590820278,-0.014379575170898384,0.05546564885496208,-0.0059394484263490905,-2.9551164417561928e-05,0.0012495269743816382
1740927652.4943385,None,None,0.04062960217285161,-0.0502926000732421,-0.18880916030534323,-0.005918996977956021,-2.891958427447291e-05,0.0005035643365725815
1740927652.5117598,None,None,0.026264392211914123,-0.021562180151367127,-0.15064122137404556,-0.005909260495170445,-2.8436741613068234e-05,-9.176259018636073e-05
1740927652.5283856,None,None,0.023870190551757764,-0.021562180151367127,0.07836641221374085,-0.005902650520448201,-2.8642367050499883e-05,0.00021731073171548976
1740927652.5399983,None,None,0.004716577270507782,-0.1604258764404296,0.23103816793893173,-0.005911149338693929,-2.9345364985681273e-05,0.0011294374861270415
1740927652.5589306,None,None,-7.182604980471297e-05,-0.009591171850585889,-1.822396946564885,-0.005909838311098854,-2.396917831748106e-05,-0.006068545364736926
1740927652.573502,None,None,0.02865859387207026,-0.14366646481933587,-0.3414809160305339,-0.005896839506832429,-2.2924662231412488e-05,-0.007418649898759697
1740927652.6077192,None,None,-0.0024660277099608496,-0.009591171850585889,-0.1124732824427479,-0.005908423505579419,-2.262577451194136e-05,-0.007864455808729133
1740927652.6315625,None,None,0.026264392211914123,-0.009591171850585889,-0.14300763358778568,-0.005898337399780661,-2.2183889089453973e-05,-0.008430918365133282
1740927652.6436954,None,None,0.02865859387207026,-0.0048027685302733936,-0.15064122137404556,-0.005886252444718772,-2.172310586175707e-05,-0.009027600983621847
1740927652.677335,None,None,-0.038379052612304676,-0.016773776831054632,0.04019847328244319,-0.005925410029107627,-2.1929027205006097e-05,-0.008870600934099334
1740927652.7013924,None,None,0.021475988891601627,-0.016773776831054632,-0.18117557251908378,-0.005918499893148736,-2.1395146239699347e-05,-0.009587906499528958
1740927652.7167912,None,None,-0.08147468249511713,-0.0048027685302733936,0.03256488549618375,-0.005990024482791867,-2.160895634331507e-05,-0.00946109201464932
1740927652.7295744,None,None,0.031052795532226618,-0.021562180151367127,-1.8147633587786256,-0.005965830327320051,-1.630397477313719e-05,-0.01663047107025282
1740927652.7423432,None,None,-0.03359064929199218,-0.0048027685302733936,-0.09720610687022857,-0.006001050934739933,-1.6059307009535087e-05,-0.017017295072853857
1740927652.7593865,None,None,0.0502064088134766,0.011956643090820396,-0.18880916030534323,-0.005972898308912604,-1.549111450051634e-05,-0.017765958035515884
1740927652.8083775,None,None,0.043023803833007745,0.052658071313476607,-0.1124732824427479,-0.005950340794627276,-1.5170474035371532e-05,-0.0182132057045
1740927652.8283894,None,None,0.007110778930664141,-1.4365209960898184e-05,-0.20407633587786211,-0.0059539777685110595,-1.46025384355353e-05,-0.019022274238828536
1740927652.856741,None,None,0.03823540051269525,-1.4365209960898184e-05,-0.04377099236641202,-0.005935129320061374,-1.4511943146912454e-05,-0.01919829841813713
1740927652.880718,None,None,-0.04556165759277353,-0.011985373510742137,0.017297709923664417,-0.0059795830043302646,-1.4559168595762862e-05,-0.019133095990507158
1740927652.9022813,None,None,-0.007254431030273345,-0.16282007810058585,-0.10483969465648801,-0.005994611283526311,-1.42641707648478e-05,-0.01955024536114343
1740927652.932914,None,None,0.01908178723144527,0.009562441430664148,0.2997404580152676,-0.005992295980893671,-1.515187250230562e-05,-0.018369499111316082
1740927652.945643,None,None,0.004716577270507782,-0.021562180151367127,-0.05903816793893091,-0.005998446576451477,-1.4999182808014765e-05,-0.018605552198334468
1740927652.9580646,None,None,-0.02401384265136719,-0.002408566870117146,-0.1124732824427479,-0.006025940915330979,-1.4644704709509405e-05,-0.01905264762010447
1740927652.9710093,None,None,0.004716577270507782,0.07660008791503911,0.3150076335877867,-0.006034450490474605,-1.5545709374948255e-05,-0.01781140709821149
1740927652.9846761,None,None,-0.07668627917480464,-0.14845486813964837,-0.12010687022900735,-0.006101841474939478,-1.5030275356680992e-05,-0.018288439868107947
1740927652.9974346,None,None,-0.031196447631835822,0.031110256372070377,-0.005603053435113914,-0.006135901727188221,-1.4912666327411696e-05,-0.018313281132296636
1740927653.0089245,None,None,0.031052795532226618,-0.021562180151367127,0.15470229007633618,-0.0061239164817249,-1.540045915889556e-05,-0.01770496389850014
1740927653.0214558,None,None,0.06696582043457022,0.004774038110351597,-0.18880916030534323,-0.006082377085244392,-1.5036529257461251e-05,-0.018453253604306545
1740927653.0399473,None,None,0.007110778930664141,0.023927651391601634,-1.8071297709923662,-0.006076015992554313,-9.953143853625722e-06,-0.025593327783246564
1740927653.0533211,None,None,0.04781220715332024,-0.023956381811523375,0.017297709923664417,-0.006049965461170624,-1.0156513104270912e-05,-0.025528773937083197
1740927653.0663316,None,None,0.007110778930664141,0.01913924807128914,0.11653435114503852,-0.006055162111952352,-1.0508975803906243e-05,-0.025072208695904433
1740927653.079097,None,None,-0.009648632690429704,0.033504458032226625,1.9638625954198476,-0.0060841936813648525,-1.5948878795500102e-05,-0.017319324616673716
1740927653.0916524,None,None,-0.014437036010742199,-0.04789839841308585,-0.05903816793893091,-0.006104504685157369,-1.570385850825621e-05,-0.01755478524649552
1740927653.1046576,None,None,-0.040773254272461035,0.04068706301269537,-0.03613740458015213,-0.006145083297400455,-1.539495982722568e-05,-0.017699800054822912
1740927653.1162107,None,None,0.009504980590820278,-0.021562180151367127,0.03256488549618375,-0.006147950262937015,-1.5497580196997533e-05,-0.017573474109823975
1740927653.1286058,None,None,-0.007254431030273345,0.09575370119628912,-0.09720610687022857,-0.006162753322884446,-1.515994753859515e-05,-0.017959637433707275
1740927653.1435432,None,None,-0.016831237670898336,-1.4365209960898184e-05,-0.12010687022900735,-0.006184763798088292,-1.4705583587504313e-05,-0.018436280662894385
1740927653.1549075,None,None,-0.03598485095214854,-0.03832159177246086,0.2692061068702294,-0.00622381786958364,-1.5212941167022748e-05,-0.017375340045100416
1740927653.1663344,None,None,0.033446997192382755,0.004774038110351597,-0.12010687022900735,-0.006207631598564851,-1.5017410334887907e-05,-0.01785184262051697
1740927653.1779416,None,None,0.014293383911132773,-0.03832159177246086,-0.158274809160305,-0.006205682430776975,-1.4618560052552141e-05,-0.018479137845950032
1740927653.189707,None,None,0.07893682873535157,-0.009591171850585889,0.03256488549618375,-0.006155286623356266,-1.5130177823981098e-05,-0.01835278263075709
1740927653.2101579,None,None,0.01908178723144527,-0.09578243161621086,-0.16590839694656445,-0.006149107126153679,-1.4761673626752455e-05,-0.01901025238405598
1740927653.2350879,None,None,-0.007254431030273345,0.021533449731445387,2.055465648854962,-0.006176075639140618,-2.028616225405402e-05,-0.010894278406427158
1740927653.2650502,None,None,-0.028802245971679685,0.023927651391601634,-1.7842290076335874,-0.0061968699888611065,-1.5216803579664166e-05,-0.017942184207277355
1740927653.2798948,None,None,0.009504980590820278,0.04786966799316411,-0.12010687022900735,-0.006198288225720501,-1.4913922496714372e-05,-0.018418619764493875
1740927653.3012946,None,None,-0.040773254272461035,-0.14127226315917962,2.0478320610687026,-0.0062508848883624036,-2.0124404254338357e-05,-0.010332626919558547
1740927653.3148277,None,None,-0.05274426257324216,0.04547546633300786,0.047832061068702636,-0.006301089890017737,-1.984287256134905e-05,-0.010144483558914043
1740927653.3289008,None,None,-0.014437036010742199,0.031110256372070377,-0.04377099236641202,-0.00632157021003826,-1.9570177367774287e-05,-0.01031810397407496
1740927653.3409286,None,None,0.033446997192382755,0.06462907961425787,-0.013236641221373802,-0.006305437861035002,-1.970777598107785e-05,-0.010371156815349577
1740927653.3565292,None,None,0.052600610473632736,-0.0502926000732421,-0.08193893129770968,-0.006273954631086704,-1.979796741809711e-05,-0.010695559001928163
1740927653.3679645,None,None,0.009504980590820278,-0.009591171850585889,0.06309923664122197,-0.006276230884550841,-1.9980574864751974e-05,-0.010447151438344566
1740927653.380093,None,None,-0.014437036010742199,-1.4365209960898184e-05,2.009664122137405,-0.006308109897467486,-2.5188381772507474e-05,-0.0025105608994667374
1740927653.3934872,None,None,0.03823540051269525,0.04547546633300786,-0.20407633587786211,-0.006286480996389857,-2.485473018292162e-05,-0.0033160609492953793
1740927653.4080493,None,None,0.033446997192382755,0.009562441430664148,-0.1735419847328239,-0.006268515005032208,-2.456829150688804e-05,-0.00400109752395789
1740927653.421091,None,None,-0.016831237670898336,0.031110256372070377,-0.15064122137404556,-0.006289354446646247,-2.3994802305210865e-05,-0.004595786844932026
1740927653.4347832,None,None,-0.050350060913086025,-0.011985373510742137,-0.08957251908396913,-0.006336554053623812,-2.335432847793098e-05,-0.004949369911702282
1740927653.4499688,None,None,0.17949329846191397,0.05505227297363288,0.19287022900763406,-0.006207712758862476,-2.5040985010564668e-05,-0.004187543141407789
1740927653.462034,None,None,0.011899182250976637,0.021533449731445387,0.13180152671755763,-0.006207288483736171,-2.5406820221173106e-05,-0.0036667452641161932
1740927653.4734573,None,None,0.01908178723144527,0.0071682397705079,0.19287022900763406,-0.006201514865581096,-2.597597029611344e-05,-0.002904672846029149
1740927653.4867558,None,None,-0.05274426257324216,0.052658071313476607,0.11653435114503852,-0.006250856194739093,-2.585628861351345e-05,-0.0024439571436001223
1740927653.4987195,None,None,-0.0024660277099608496,-0.0048027685302733936,-0.10483969465648801,-0.0062602076365435005,-2.5509813250736823e-05,-0.002857522918483741
1740927653.5103986,None,None,-0.04556165759277353,-0.05508100339355465,0.04019847328244319,-0.0063038075117913435,-2.5249819198670912e-05,-0.00269830873801049
1740927653.5240037,None,None,0.03823540051269525,0.0071682397705079,-1.8071297709923662,-0.006272525588070039,-2.086389553444288e-05,-0.009835277350612431
1740927653.5356474,None,None,-0.0838688841552735,0.05026386965332036,0.09363358778625996,-0.006346354583272841,-2.05010462398563e-05,-0.009466136367320294
1740927653.551196,None,None,-0.014437036010742199,-0.16760848142089835,-1.822396946564885,-0.006356339393718452,-1.5777213802034618e-05,-0.016664471342366094
1740927653.5633411,None,None,0.014293383911132773,-0.007196970190429641,0.1852366412213744,-0.00635487976142449,-1.6297091050899977e-05,-0.015934643920513806
1740927653.574755,None,None,-0.016831237670898336,-0.0502926000732421,0.03256488549618375,-0.006376740165129316,-1.621860509079287e-05,-0.015807657559260408
1740927653.586258,None,None,0.014293383911132773,0.05026386965332036,0.03256488549618375,-0.006374402651851244,-1.635551870096147e-05,-0.015680639225344583
1740927653.598178,None,None,0.043023803833007745,0.1101189111572266,-0.020870229007633245,-0.006349266048547912,-1.6570545634127797e-05,-0.015764635195326164
1740927653.6155803,None,None,0.045418005493164104,-0.1508490697998046,0.047832061068702636,-0.006322361062491074,-1.6983838392932583e-05,-0.015577280059906287
1740927653.6277285,None,None,0.06457161877441409,0.06702328127441412,0.3455419847328247,-0.006281762744353849,-1.828313561747555e-05,-0.014214050661662429
1740927653.6427324,None,None,-0.040773254272461035,-0.002408566870117146,-0.03613740458015213,-0.006321095380576474,-1.785139625980828e-05,-0.014358025917704449
1740927653.658628,None,None,-0.05513846423339852,-0.023956381811523375,-0.005603053435113914,-0.006372009365068199,-1.7373747680700472e-05,-0.014381405918959821
1740927653.6706173,None,None,-0.026408044311523327,0.01913924807128914,-0.15064122137404556,-0.006399967811320394,-1.6757003026177262e-05,-0.014977622835663541
1740927653.6852949,None,None,0.02865859387207026,0.004774038110351597,2.055465648854962,-0.00639617627313396,-2.189194192852874e-05,-0.006860733725537657
1740927653.7048187,None,None,0.02865859387207026,0.014350844750976643,0.04019847328244319,-0.006381786878260141,-2.215635221309368e-05,-0.006701990845863891
1740927653.719551,None,None,0.014293383911132773,0.11730151613769538,0.0860000000000003,-0.006378704279458235,-2.2415696810868915e-05,-0.006362320763599509
1740927653.731759,None,None,-0.031196447631835822,0.026321853051757882,0.05546564885496208,-0.006411043508499741,-2.2241501949333057e-05,-0.006143179768220679
1740927653.7437189,None,None,0.014293383911132773,0.12687832277832037,-0.020870229007633245,-0.00640742616511695,-2.224522962486164e-05,-0.006225513971129994
1740927653.7563038,None,None,-0.05513846423339852,-0.0048027685302733936,-1.8147633587786256,-0.00644936182835898,-1.7479082347745223e-05,-0.013392970448299256
1740927653.7688065,None,None,-0.026408044311523327,-0.01916797849121088,-0.09720610687022857,-0.006477628068777467,-1.6990008827130587e-05,-0.013777952118840074
1740927653.7845378,None,None,0.045418005493164104,0.01913924807128914,0.09363358778625996,-0.006450471477430962,-1.752006076371131e-05,-0.013409268249865457
1740927653.7969737,None,None,-0.014437036010742199,-0.0574752050537109,-1.7918625954198468,-0.006460894562820482,-1.3172532449868784e-05,-0.020487415410003124
1740927653.8102126,None,None,0.01908178723144527,0.023927651391601634,0.009664122137404974,-0.006453939125890263,-1.3307730639593074e-05,-0.020451416349862684
1740927653.8258843,None,None,-0.0024660277099608496,0.1101189111572266,-0.013236641221373802,-0.0064637231262824205,-1.3212342320017152e-05,-0.020505825206570308
1740927653.8376749,None,None,-0.0024660277099608496,0.03829286135253912,0.05546564885496208,-0.0064738298036112266,-1.3273064265259873e-05,-0.020288870250905876
1740927653.8565586,None,None,-0.009648632690429704,-0.009591171850585889,0.1699694656488553,-0.00649014108815307,-1.3530298747943041e-05,-0.019619608789520633
1740927653.8692846,None,None,0.03823540051269525,0.03829286135253912,-0.158274809160305,-0.006467082937507686,-1.3459826371622259e-05,-0.020246658343474996
1740927653.8938913,None,None,-0.009648632690429704,0.004774038110351597,0.15470229007633618,-0.0064831338011216745,-1.3678279620409958e-05,-0.019637638385243662
1740927653.9057696,None,None,0.03584119885253911,-0.007196970190429641,-0.051404580152671464,-0.006462256354633666,-1.3846049652510579e-05,-0.019842547419276577
1740927653.918706,None,None,-0.009648632690429704,-0.05508100339355465,-0.13537404580152623,-0.006476740682909877,-1.3402852900174385e-05,-0.020379093975112426
1740927653.9323854,None,None,-0.028802245971679685,-0.1197244482177734,0.1394351145038173,-0.006507716111869483,-1.3391096342059394e-05,-0.019830314197894692
1740927653.946159,None,None,0.052600610473632736,0.05984067629394538,-0.020870229007633245,-0.006473595380533366,-1.380625857878918e-05,-0.01991459000923755
1740927653.9620318,None,None,-0.007254431030273345,0.01913924807128914,0.02493129770992386,-0.006486804191359004,-1.3742518765244864e-05,-0.019817937544887185
1740927653.9744527,None,None,-0.026408044311523327,-0.016773776831054632,-1.8147633587786256,-0.0065066412353367445,-9.391541461412083e-06,-0.026987267839910286
1740927653.9863868,None,None,-0.014437036010742199,-0.031138986791992118,-0.08957251908396913,-0.006525244665657878,-8.997720526051406e-06,-0.027343944260829176
1740927653.9993038,None,None,-0.02401384265136719,-0.014379575170898384,0.06309923664122197,-0.006552212721977869,-8.830083930482044e-06,-0.027097647454008195
1740927654.0121925,None,None,0.009504980590820278,0.014350844750976643,-0.013236641221373802,-0.006552309022777742,-8.844163465173723e-06,-0.027152781304507233
1740927654.0236628,None,None,-0.04316745593261717,0.07899428957519536,-0.158274809160305,-0.006593524773778969,-7.956961463520171e-06,-0.027780708385278418
1740927654.0404754,None,None,-0.009648632690429704,0.01674504641113289,0.047832061068702636,-0.006609256212864975,-7.87892797672579e-06,-0.02759467655458622
1740927654.0694673,None,None,-0.016831237670898336,0.014350844750976643,-0.24987786259541966,-0.006629370990758556,-7.060076842151743e-06,-0.02858440583955223
1740927654.0888884,None,None,-0.09105148913574213,0.004774038110351597,-0.19644274809160267,-0.006708907625511294,-5.466109356081826e-06,-0.02936318283629467
1740927654.1087155,None,None,-0.0742920775146485,0.031110256372070377,-0.08193893129770968,-0.006776111023395779,-4.273567802840483e-06,-0.029689811421034024
1740927654.123631,None,None,0.011899182250976637,-1.4365209960898184e-05,2.024931297709924,-0.006784778857202389,-8.723949161401488e-06,-0.02169522537514801
1740927654.1388164,None,None,-0.019225439331054694,-0.021562180151367127,-1.8300305343511445,-0.0068001895546492,-4.3479403573596266e-06,-0.02892480403088705
1740927654.1531916,None,None,-0.007254431030273345,0.11969571779785163,0.0860000000000003,-0.006815205188750639,-4.308331360988646e-06,-0.02858800037395925
1740927654.1675124,None,None,0.007110778930664141,-0.021562180151367127,0.10890076335877907,-0.006818908666047876,-4.503423814524335e-06,-0.028160663571491277
1740927654.18183,None,None,0.011899182250976637,-0.031138986791992118,0.2005038167938935,-0.006819193191146862,-4.969576779575024e-06,-0.027371430820747444
1740927654.1954632,None,None,0.0023223756103516457,0.004774038110351597,-0.09720610687022857,-0.006825650984533127,-4.651679490264242e-06,-0.02775786412923203
1740927654.2067454,None,None,-0.05274426257324216,0.10533050783691411,0.10890076335877907,-0.006877140425076113,-4.038180584265975e-06,-0.02733026770951209
1740927654.220021,None,None,0.0023223756103516457,0.011956643090820396,-0.1735419847328239,-0.006883487781521207,-3.5349856658093116e-06,-0.028018125520605768
1740927654.2315176,None,None,-0.014437036010742199,0.01913924807128914,-0.02850381679389269,-0.006903970996704392,-3.1179664413129805e-06,-0.028133214862916023
1740927654.2428749,None,None,0.004716577270507782,-0.026350583471679623,-0.10483969465648801,-0.006908829649394182,-2.794784247620588e-06,-0.02854979402651264
1740927654.2568538,None,None,-0.040773254272461035,0.02871605471191413,-1.7842290076335874,-0.0069418427883030905,1.9999026958389766e-06,-0.03559927926078518
1740927654.268254,None,None,-0.014437036010742199,0.033504458032226625,-0.05903816793893091,-0.006962618960820679,2.5410219341931134e-06,-0.03583608682878568
1740927654.2796707,None,None,0.011899182250976637,0.009562441430664148,0.009664122137404974,-0.0069627074124671605,2.537258042837738e-06,-0.03580155240962082
1740927654.2925715,None,None,0.021475988891601627,-0.01916797849121088,-0.10483969465648801,-0.006954485425182218,2.6420053979657085e-06,-0.03621921318117022
1740927654.3112915,None,None,0.014293383911132773,0.02871605471191413,0.04019847328244319,-0.006952686156186711,2.5144368955774945e-06,-0.036064051533615825
1740927654.324451,None,None,-0.019225439331054694,-0.0048027685302733936,1.940961832061069,-0.006987555509671296,-1.4955691810699205e-06,-0.02840157714570491
1740927654.338435,None,None,-0.026408044311523327,0.023927651391601634,0.04019847328244319,-0.00701840178149449,-9.90046086582808e-07,-0.028245051512160613
