timestamp,gps_lat,gps_lng,imu_accel_x,imu_accel_y,imu_gyro_z,estimated_x,estimated_y,estimated_heading
1740926785.6292758,None,None,0.030889989819335995,-0.14116212988281251,0.0807328244274812,0.0,0.0,0.000293569636905213
1740926785.6454182,None,None,-0.024176648364257813,0.04558559960937497,-1.7131603053435112,-2.1954388982646094e-07,-1.2786825877518492e-09,-0.006218155995942446
1740926785.6570768,None,None,-0.06966647990722663,-0.035817256835937505,-0.03377099236641179,-9.54764039039804e-07,2.58828349025062e-09,-0.0064496791586245595
1740926785.6852512,None,None,0.011736376538086013,-0.052576668457031295,-0.03377099236641179,-1.3778730233259104e-06,4.486929580896495e-09,-0.006634386198770037
1740926785.7032402,None,None,0.004553771557617159,-0.007086836914062533,-0.06430534351145001,-1.8291734764809024e-06,5.911517126925011e-09,-0.006919519846144798
1740926785.7202065,None,None,-0.012205640063476464,0.12459425439453123,-0.03377099236641179,-2.743698393243305e-06,1.000402994377043e-08,-0.00707555515667776
1740926785.736812,None,None,-0.019388245043945318,-0.1698925498046875,-1.781862595419847,-3.520153885247878e-06,2.908807581098845e-08,-0.014116418259198567
1740926785.7519433,None,None,-0.09360849650878911,0.11501744775390621,0.15706870229007674,-8.538498617239591e-06,7.12988081684761e-08,-0.013522260807326414
1740926785.7687926,None,None,0.0021595698974610222,0.0096725747070312,0.03493129770992409,-1.0411090588893047e-05,8.898012082063428e-08,-0.01340378822219751
1740926785.7818556,None,None,-0.019388245043945318,0.04558559960937497,0.012030534351145317,-1.3430862317899334e-05,1.1657645026742333e-07,-0.013371957166204727
1740926785.798736,None,None,-0.02896505168457031,9.576806640620994e-05,0.05019847328244298,-1.7382091207131556e-05,1.5219323739028515e-07,-0.013186200179108664
1740926785.8118024,None,None,-0.014599841723632823,0.07431601953124997,-0.056671755725190565,-2.076628782887482e-05,1.8481234657083526e-07,-0.013421730523230533
1740926785.8237305,None,None,0.05722620808105461,-0.05975927343750004,0.09600000000000053,-1.952641218486929e-05,1.5198907198493096e-07,-0.013050575957077152
1740926785.8785996,None,None,0.0021595698974610222,0.019249381347656247,0.11890076335877908,-2.1592123545101686e-05,1.5555430796074658e-07,-0.012586928584630602
1740926785.8956125,None,None,-0.024176648364257813,-0.06454767675781253,0.004396946564885873,-2.560352977195423e-05,1.899519759710731e-07,-0.012576371857640793
1740926785.9135926,None,None,0.03567839313964849,0.04797980126953122,0.18760305343511496,-2.5045328107395567e-05,1.5372388162001774e-07,-0.011837637840177214
1740926785.9300425,None,None,0.01652477985839851,-0.02145204687500002,-0.20934351145038121,-2.5147269432071914e-05,1.5578260009890718e-07,-0.012674279179138563
1740926785.945437,None,None,-0.024176648364257813,0.040797196289062476,0.004396946564885873,-2.924580431395695e-05,1.9187499953019404e-07,-0.01266187332685263
1740926785.9582329,None,None,-0.033753455004882804,-0.01905784521484377,0.1341679389312982,-3.486744719634243e-05,2.3615358774125414e-07,-0.01213337981740276
1740926785.9758842,None,None,0.028495788159179636,-0.011875240234375029,-0.30094656488549587,-3.3684675425471796e-05,2.3374138654071515e-07,-0.01333348143708813
1740926785.9903007,None,None,0.0261015864990235,0.021643583007812495,0.3021068702290082,-3.318482360231705e-05,1.854011133354401e-07,-0.012136796632182797
1740926786.0018275,None,None,0.004553771557617159,-0.026240450195312515,-1.797129770992366,-3.191408153626396e-05,3.296689902136088e-07,-0.01928465660961421
1740926786.0157967,None,None,-0.00023463176269533648,-0.03342305517578126,2.080732824427481,-3.659455098354281e-05,1.748384535780471e-07,-0.011017140043046257
1740926786.0279331,None,None,0.04286099812011712,0.0024899697265624576,-0.07193893129770945,-3.264094422011866e-05,1.1422850431574507e-07,-0.011305963770007144
1740926786.041669,None,None,-0.043330261645507795,0.05755660791015621,2.004396946564886,-4.233691316975441e-05,2.1528956770971327e-08,-0.0033377996855164377
1740926786.054224,None,None,-0.002628833422851473,0.012066776367187504,-1.797129770992366,-4.1901693585664255e-05,1.7799466918851067e-07,-0.01048561304274244
1740926786.075238,None,None,0.004553771557617159,-0.1507389365234375,0.12653435114503853,-4.309344280890379e-05,1.6551067052589308e-07,-0.00998458511294782
1740926786.0931673,None,None,0.16735948444824222,0.05516240624999996,0.1952366412213744,-1.9938701005692782e-05,-1.3515133217617563e-07,-0.009210051059883068
1740926786.1079257,None,None,-0.00023463176269533648,0.043191397949218724,0.03493129770992409,-1.9934728967538198e-05,-1.4565920933546148e-07,-0.009072869568223655
1740926786.123685,None,None,0.030889989819335995,0.012066776367187504,2.057832061068703,-1.720346730190211e-05,-3.686885725846819e-07,-0.0008888282216574905
1740926786.1406634,None,None,-0.021782446704101455,0.040797196289062476,0.1799694656488553,-2.048669974520163e-05,-3.4196076204877834e-07,-0.0001729355891770246
1740926786.1532552,None,None,-0.02657085002441395,-0.00948103857421878,-1.7131603053435112,-2.3109190127762443e-05,-1.87312565726717e-07,-0.006987875210229738
1740926786.1735642,None,None,0.030889989819335995,0.004884171386718705,0.1341679389312982,-1.7867282749494642e-05,-2.4745383594709263e-07,-0.006455252004049443
1740926786.1857514,None,None,-0.005023035083007832,0.040797196289062476,-0.17117557251908355,-1.8350690364649716e-05,-2.3394422900963408e-07,-0.007137206413734179
1740926786.1998188,None,None,0.1960899043701172,0.012066776367187504,0.2944732824427485,1.7879548909241336e-05,-5.689660597063465e-07,-0.005966789048720111
1740926786.2139146,None,None,-0.021782446704101455,0.021643583007812495,-0.11010687022900711,1.6035765397380792e-05,-5.413179188453304e-07,-0.0064056630317991395
1740926786.2272744,None,None,-0.0385418583251953,-0.1698925498046875,-0.178809160305343,1.0638673615780852e-05,-4.866315546682039e-07,-0.007117899092007921
1740926786.239338,None,None,0.15778267780761723,0.11022904443359371,-0.04903816793893068,4.3740273698528764e-05,-7.568902188962192e-07,-0.007313958303869163
1740926786.250907,None,None,0.004553771557617159,-0.04060566015625,-0.010870229007633014,4.790141494429164e-05,-7.861560946711978e-07,-0.007358179172862661
1740926786.2713656,None,None,0.01652477985839851,-0.016663643554687524,0.24103816793893174,5.4627037453733336e-05,-8.283502016618942e-07,-0.006400240031954274
1740926786.2828128,None,None,-0.012205640063476464,0.02643198632812499,0.0807328244274812,5.550119794804288e-05,-8.206978261710442e-07,-0.006079864876220842
1740926786.2951238,None,None,-0.02896505168457031,9.576806640620994e-05,0.07309923664122175,5.25634918327318e-05,-7.807874369559238e-07,-0.005789795926762174
1740926786.3082976,None,None,-0.02657085002441395,0.03840299462890623,-0.0795725190839689,4.971242344869706e-05,-7.535554985328284e-07,-0.006107005391847519
1740926786.3201454,None,None,0.021313183178711004,0.12938265771484372,2.080732824427481,5.824534716646849e-05,-6.032431308378063e-07,0.0021693382759569568
1740926786.3431668,None,None,0.050043603100585976,0.11741164941406246,0.004396946564885873,7.291320766109775e-05,-6.640457573902757e-07,0.0021872925173409604
1740926786.3577907,None,None,0.0021595698974610222,-0.007086836914062533,-0.12537404580152645,7.690195071012106e-05,-6.609076730756165e-07,0.001689040469756655
1740926786.3850834,None,None,0.01652477985839851,0.10783484277343747,-0.04903816793893068,8.444128960001773e-05,-6.72687512428052e-07,0.0014943634881518521
1740926786.399146,None,None,-0.033753455004882804,-0.00948103857421878,0.1494351145038173,8.003589980211132e-05,-5.863745191737366e-07,0.002089098071517732
1740926786.4104776,None,None,-0.012205640063476464,0.0096725747070312,0.004396946564885873,8.043107122776894e-05,-5.532158152849913e-07,0.0021070059268753
1740926786.4220994,None,None,-0.03614765666503916,-0.014269441894531276,-0.08720610687022878,7.448614713372634e-05,-5.117786481583259e-07,0.0017605726072223366
1740926786.4333327,None,None,0.0021595698974610222,0.12220005273437498,0.05783206106870287,7.809987149923298e-05,-4.913827948540888e-07,0.001990944887372467
1740926786.4483368,None,None,0.062014611401367103,-0.035817256835937505,0.027297709923664648,9.746631287948463e-05,-5.367390652523394e-07,0.0020998956081535636
1740926786.4707136,None,None,-0.0074172367431639685,-0.03102885351562501,-0.20170992366412177,9.889385819562798e-05,-5.591743771049084e-07,0.0012980998059158905
1740926786.4827015,None,None,0.028495788159179636,0.09586383447265623,-0.03377099236641179,0.00011017648553005463,-5.817596901832819e-07,0.0011640855082738007
1740926786.498829,None,None,0.04764940144042962,-0.014269441894531276,0.05783206106870287,0.00012726230780756741,-5.967576306391336e-07,0.0013943295152333162
1740926786.5176663,None,None,0.01413057819824215,-0.0046926352539062854,2.004396946564886,0.00013832225702439325,-7.104546769947241e-08,0.009365142322678483
1740926786.5291638,None,None,0.009342174877929654,0.0168551796875,0.3250076335877867,0.00014589543949365092,6.827588273864386e-08,0.010658756417909976
1740926786.5463417,None,None,-0.00023463176269533648,0.004884171386718705,0.20287022900763407,0.00015068631153730214,1.8914185897005927e-07,0.011466815848948153
1740926786.563628,None,None,-0.20613597453613286,0.10544064111328122,0.012030534351145317,9.515461087758469e-05,3.024020764869561e-07,0.01151613133342535
1740926786.5860286,None,None,0.03807259479980463,-0.07891288671875002,0.004396946564885873,0.00010901296701322403,3.272913036018391e-07,0.011535080394004827
1740926786.6027474,None,None,0.040466796459960985,0.040797196289062476,0.05783206106870287,0.00012419607222550807,3.8251966091874815e-07,0.01176645609684535
1740926786.6297688,None,None,0.01413057819824215,0.021643583007812495,0.11890076335877908,0.00013205048191893877,4.6428307649555743e-07,0.012240615059437434
1740926786.6531193,None,None,-0.0074172367431639685,0.019249381347656247,1.9967633587786264,0.0001367132776335825,1.1805739441992002e-06,0.020180088503109664
1740926786.6708088,None,None,0.0021595698974610222,0.12698845605468748,2.050198473282443,0.0001443521797882498,1.9627755071314013e-06,0.028332569041312095
1740926786.6874952,None,None,0.009342174877929654,0.02643198632812499,0.08836641221374109,0.0001507993247433547,2.098499436389306e-06,0.0286871807482246
1740926786.7009006,None,None,0.021313183178711004,0.04797980126953122,-1.7589618320610683,0.0001578532542912219,1.5841443836872431e-06,0.021698798640844865
1740926786.7130256,None,None,0.0261015864990235,0.019249381347656247,-1.8047633587786254,0.0001666540550495076,1.028940010706222e-06,0.014527809998659127
1740926786.7285895,None,None,-0.01699404338378896,0.0096725747070312,0.2792061068702294,0.00016572800200234083,1.1556782653113975e-06,0.0156391613488572
1740926786.7414308,None,None,-0.06487807658691414,0.028826187988281238,0.09600000000000053,0.00014855132756957853,1.1075150012563866e-06,0.01602244009052624
1740926786.7527769,None,None,-0.009811438403320327,0.012066776367187504,0.10363358778625997,0.0001488291142231094,1.1671103341032726e-06,0.016436064555799917
1740926786.765468,None,None,0.16975368610839836,0.0024899697265624576,0.042564885496183535,0.0002089485793312724,1.6441105588889006e-06,0.016607008914739343
1740926786.7769947,None,None,0.0261015864990235,-0.05018246679687505,2.080732824427481,0.00022673956633251265,2.672171574244094e-06,0.0248773728492089
1740926786.7885315,None,None,0.018918981518554645,0.007278373046874953,0.15706870229007674,0.00023852268472896989,2.9210340091311365e-06,0.02550424085106729
1740926786.804099,None,None,-0.09360849650878911,0.007278373046874953,-1.6749923664122135,0.0002079912928102637,1.9823110317720396e-06,0.018851390327762334
1740926786.8213902,None,None,-0.052907068286132786,-0.026240450195312515,0.1799694656488553,0.00019446182050356493,1.9581175492594716e-06,0.019568442749924232
1740926786.8338773,None,None,-0.002628833422851473,-0.016663643554687524,0.03493129770992409,0.00019759521844781415,2.0255166335686903e-06,0.019709264246000488
1740926786.8496568,None,None,0.006947973217773518,0.04558559960937497,0.10363358778625997,0.00020424621549634583,2.1615454941676054e-06,0.020123027556676176
1740926786.8637424,None,None,0.0021595698974610222,0.06234501123046873,0.21813740458015318,0.0002095462915689072,2.34054313997902e-06,0.020991700027618597
1740926786.876123,None,None,0.004553771557617159,-0.11722011328125004,0.08836641221374109,0.00021545811677180405,2.4693639666948973e-06,0.021344880359281775
1740926786.8937109,None,None,-0.00023463176269533648,-0.03342305517578126,-1.781862595419847,0.00021552862515196528,1.6200594592749896e-06,0.01426868318378647
1740926786.9147007,None,None,0.028495788159179636,0.11980585107421873,-1.6749923664122135,0.00022635985559485235,9.097561531466325e-07,0.007616491747271091
1740926786.926225,None,None,0.03328419147949213,0.004884171386718705,-1.7360610687022895,0.00023918872246519763,1.464373981824577e-07,0.0007212574110530105
1740926786.937929,None,None,-0.014599841723632823,0.05755660791015621,0.05019847328244298,0.00023888740001705303,9.965946863066599e-08,0.0009203903851475648
1740926786.9510584,None,None,-0.043330261645507795,0.07192181787109372,-0.30094656488549587,0.00022694597753257509,-2.55432949483597e-07,-0.0002751109910055829
1740926786.9622173,None,None,0.03807259479980463,0.043191397949218724,0.21813740458015318,0.0002462196561579343,7.888869332421442e-09,0.0005908709109458784
1740926786.9735613,None,None,-0.03614765666503916,-0.062153475097656286,0.10363358778625997,0.00023771974954188958,-8.167217015115814e-08,0.0010021801653348243
1740926786.9848976,None,None,0.01652477985839851,0.04558559960937497,-0.0032366412213735707,0.0002485373946047617,-2.6438690082266894e-08,0.000989119364059877
1740926786.9969668,None,None,0.04525519978027348,-0.06933608007812503,0.042564885496183535,0.000270616450368995,1.5965315988306899e-07,0.0011579376086653418
1740926787.0147521,None,None,0.006947973217773518,-0.035817256835937505,2.0120305343511453,0.00028329758095734566,1.3944409021540356e-06,0.009147167378170788
1740926787.0308478,None,None,-0.009811438403320327,-0.04299986181640625,1.721954198473283,0.0002888699770616331,2.451555049415707e-06,0.015985166450593294
1740926787.0471609,None,None,-0.03614765666503916,0.012066776367187504,0.027297709923664648,0.0002799336946537375,2.395594547203404e-06,0.01609506387880796
1740926787.06908,None,None,-0.02657085002441395,-0.12200851660156253,0.07309923664122175,0.00027448262926640845,2.395504121742564e-06,0.016386799794741436
1740926787.0834286,None,None,0.028495788159179636,0.004884171386718705,0.1341679389312982,0.0002904866967426414,2.6468582029135943e-06,0.01692099126584633
1740926787.1017053,None,None,-0.031359253344726445,0.019249381347656247,0.004396946564885873,0.00028292959453745476,2.5805392245511153e-06,0.016940024191828836
1740926787.1154943,None,None,-0.002628833422851473,0.06234501123046873,-0.04903816793893068,0.00028629638523314943,2.5906846082988206e-06,0.016746919406210835
1740926787.1327634,None,None,-0.002628833422851473,-0.0022984335937500378,0.10363358778625997,0.00029004227090647896,2.7007359899435988e-06,0.017159828412294638
1740926787.1499958,None,None,-0.02657085002441395,0.024037784667968742,0.1341679389312982,0.0002843031095463884,2.72632783253251e-06,0.017693955624376322
1740926787.1786451,None,None,0.004553771557617159,-0.03821145849609375,0.027297709923664648,0.0002905125408016552,2.816139460826772e-06,0.01780391447670235
1740926787.1960595,None,None,-0.052907068286132786,-0.035817256835937505,-1.7360610687022895,0.00026926444483821104,1.4362393931084418e-06,0.010915005593084674
1740926787.2080436,None,None,-0.00023463176269533648,0.028826187988281238,-0.04903816793893068,0.0002730763599546703,1.4282496857418315e-06,0.01072116952097495
1740926787.2359598,None,None,-0.01699404338378896,-0.00948103857421878,1.8822595419847332,0.00027487654833102426,2.66744765401178e-06,0.018192060020058194
1740926787.2479317,None,None,0.0261015864990235,0.03361459130859373,-0.04903816793893068,0.00028920959483810706,2.800921480268036e-06,0.01799907429602211
1740926787.2721157,None,None,0.05722620808105461,9.576806640620994e-05,0.03493129770992409,0.00031673073854603703,3.1541092674581333e-06,0.0181392802572067
1740926787.2840426,None,None,-0.031359253344726445,-0.02145204687500002,2.034931297709924,0.000313393386201095,4.4712017113461676e-06,0.02621585778541951
1740926787.2993972,None,None,0.04286099812011712,0.05037400292968747,-0.1635419847328241,0.0003348407305425074,4.656585040709432e-06,0.025569438603938642
1740926787.3144207,None,None,0.03567839313964849,0.05516240624999996,0.0807328244274812,0.00035435383428701167,4.993708160486786e-06,0.02589219309648335
1740926787.3322861,None,None,-0.062483874926757776,0.040797196289062476,-0.0032366412213735707,0.0003334053038128389,4.731260446774574e-06,0.025881785293536512
1740926787.3453982,None,None,0.011736376538086013,0.03600879296874998,-0.08720610687022878,0.0003424907331726103,4.815411181764828e-06,0.025538204164552512
1740926787.3610463,None,None,-0.002628833422851473,0.12220005273437498,-0.11774045801526656,0.0003456581235153398,4.794261499586848e-06,0.025073434196468136
1740926787.373228,None,None,-0.031359253344726445,-0.00948103857421878,0.14180152671755764,0.00033747204255203396,4.780819022406269e-06,0.02563825625128347
1740926787.3882604,None,None,0.01413057819824215,0.021643583007812495,0.042564885496183535,0.0003478005407704829,4.975237117315187e-06,0.02580942733022004
1740926787.4057024,None,None,-0.02657085002441395,-0.011875240234375029,-0.12537404580152645,0.0003408006809227959,4.783971560923642e-06,0.025314401602267066
1740926787.4208283,None,None,0.01413057819824215,-0.011875240234375029,0.0807328244274812,0.00035119060650853483,5.008723969828931e-06,0.025636876900366323
1740926787.4373322,None,None,-0.021782446704101455,0.007278373046874953,0.0807328244274812,0.00034659027790569946,4.992402705998303e-06,0.02595935645093537
1740926787.452006,None,None,-0.02896505168457031,0.014460978027343752,-0.07193893129770945,0.0003384144094999976,4.803052607616925e-06,0.025676288861861907
1740926787.4697323,None,None,0.009342174877929654,0.021643583007812495,0.1494351145038173,0.00034673226323690134,5.045347251139941e-06,0.026271191474600098
1740926787.4812768,None,None,-0.024176648364257813,-0.0046926352539062854,2.050198473282443,0.00034538438184753624,6.477268165907956e-06,0.03440462605818643
1740926787.492687,None,None,0.006947973217773518,-0.035817256835937505,0.21050381679389352,0.00035264966900480356,6.764268107790561e-06,0.03524267724152683
1740926787.508949,None,None,0.01413057819824215,0.004884171386718705,-0.1330076335877859,0.0003622390537586039,6.856072070795615e-06,0.0347184936804593
1740926787.5211482,None,None,0.011736376538086013,0.03600879296874998,0.07309923664122175,0.0003714227772505364,7.092410125506827e-06,0.03501156739923346
1740926787.538279,None,None,-0.01699404338378896,-0.11243170996093754,-0.21697709923664066,0.0003677945543805767,6.8758775888301e-06,0.03415436256574606
1740926787.5522873,None,None,0.009342174877929654,0.019249381347656247,-1.781862595419847,0.00037177729313886784,5.688224277123445e-06,0.02709188323831327
1740926787.56756,None,None,-0.06487807658691414,-0.047788265136718744,0.2792061068702294,0.00034880588431904035,5.404696640982979e-06,0.028201143630152952
1740926787.5818703,None,None,-0.03614765666503916,0.012066776367187504,0.3250076335877867,0.0003377051840934061,5.388723280035795e-06,0.02949207612856
1740926787.5944932,None,None,-0.0074172367431639685,0.007278373046874953,-0.17117557251908355,0.00033753562826407485,5.2438376380598344e-06,0.028815827652153143
1740926787.6093652,None,None,-0.019388245043945318,0.028826187988281238,2.0425648854961835,0.0003369449053371254,6.6533010937614555e-06,0.03691620260648303
1740926787.6285589,None,None,-0.04093605998535166,0.05516240624999996,-0.15590839694656466,0.0003221119971020704,6.199833281388114e-06,0.03630139467742158
1740926787.647063,None,None,0.009342174877929654,0.028826187988281238,0.11126717557251942,0.00032917389421583705,6.4088876378755836e-06,0.036745680463622865
1740926787.6631107,None,None,-0.01699404338378896,-0.15313313818359375,-1.8047633587786254,0.0003210410108425362,4.954088903944835e-06,0.029594439425988668
1740926787.6782587,None,None,-0.012205640063476464,0.03361459130859373,0.18760305343511496,0.0003189638351843453,5.006092222974201e-06,0.03034040510557376
1740926787.692626,None,None,0.040466796459960985,0.02643198632812499,0.0807328244274812,0.00033931444368204413,5.510159221346413e-06,0.03066278903313402
1740926787.709592,None,None,0.021313183178711004,0.09346963281249998,-0.04903816793893068,0.0003514455866783819,5.740983117960205e-06,0.03047079626494858
1740926787.7240279,None,None,0.004553771557617159,0.0168551796875,-0.0032366412213735707,0.00035658276643688155,5.839464710303062e-06,0.030460303641764542
1740926787.7445161,None,None,-0.04093605998535166,-0.026240450195312515,0.004396946564885873,0.0003420734091396297,5.467115015066676e-06,0.03048004314385315
1740926787.764948,None,None,0.07877402302246095,0.004884171386718705,-0.018503816793892902,0.00037907472132979805,6.338030251284266e-06,0.03040899800222049
1740926787.7813916,None,None,-0.03614765666503916,-0.011875240234375029,0.14180152671755764,0.0003671495487914075,6.1159068655897424e-06,0.03097324676550706
1740926787.801537,None,None,-0.02896505168457031,-0.0932780966796875,-0.056671755725190565,0.00035770123779131006,5.819588490309783e-06,0.030750962317583768
1740926787.81467,None,None,0.01413057819824215,9.576806640620994e-05,-0.08720610687022878,0.0003666882083278986,5.965455801894536e-06,0.030407629706774335
1740926787.8270154,None,None,-0.002628833422851473,-0.0046926352539062854,-0.026137404580152346,0.0003686145745055016,5.973886528645903e-06,0.030306246016641687
1740926787.8482602,None,None,-0.0074172367431639685,0.03600879296874998,-1.797129770992366,0.0003654169335837426,4.701970078630104e-06,0.023187006932371024
1740926787.8636525,None,None,0.0261015864990235,0.040797196289062476,0.09600000000000053,0.0003800287673481667,5.1114153966463076e-06,0.02356864875407048
1740926787.8771713,None,None,-0.012205640063476464,0.05755660791015621,-0.11774045801526656,0.0003778162104988561,4.949575421757481e-06,0.023103392342529908
1740926787.889297,None,None,-0.019388245043945318,0.019249381347656247,-0.0032366412213735707,0.0003725808205519973,4.7840260440269495e-06,0.02309177277237259
1740926787.9017816,None,None,0.01413057819824215,-0.01905784521484377,2.0272977099236646,0.00038506128217306916,6.376009305517625e-06,0.031125357977073394
1740926787.9140933,None,None,0.040466796459960985,-0.03821145849609375,-0.23224427480916,0.00040539625701816937,6.7345056371971745e-06,0.030207409078261725
1740926787.9318666,None,None,-0.031359253344726445,0.06952761621093748,-0.03377099236641179,0.0003950823155125213,6.422743388623018e-06,0.030075674815151648
1740926787.9441657,None,None,-0.0074172367431639685,0.03840299462890623,0.11126717557251942,0.0003951932104267448,6.474326761395768e-06,0.030518509435458332
1740926787.9567409,None,None,-0.02896505168457031,0.0096725747070312,2.088366412213741,0.00038889293225215677,7.608342235398119e-06,0.038793849515871524
1740926787.972037,None,None,-0.012205640063476464,0.019249381347656247,-0.056671755725190565,0.00038631513241460833,7.483040180444424e-06,0.03857244592290413
1740926787.9849706,None,None,0.004553771557617159,-0.02145204687500002,-0.14064122137404533,0.00039082713591930864,7.496762809834607e-06,0.038018356964735024
1740926788.0057385,None,None,-0.03614765666503916,-0.062153475097656286,0.07309923664122175,0.00037795025814196966,7.162654540329367e-06,0.03831085838786069
1740926788.0406418,None,None,-0.05769547160644528,0.059950809570312485,-0.04140458015267123,0.0003552449093700765,6.470992256575193e-06,0.03814979723037934
1740926788.0602503,None,None,-0.02657085002441395,-0.02145204687500002,-0.0032366412213735707,0.0003457351033688676,6.164498922100632e-06,0.03813987275031849
1740926788.077211,None,None,-0.05051286662597665,-0.04060566015625,-0.04903816793893068,0.0003255196169782045,5.515084343421679e-06,0.03794850451077582
1740926788.089508,None,None,-0.021782446704101455,0.021643583007812495,0.019664122137405204,0.0003175405966978933,5.253254773796438e-06,0.038029199989955464
1740926788.1013944,None,None,-0.02896505168457031,-0.0046926352539062854,-0.10247328244274767,0.0003060970816913313,4.814237813147181e-06,0.03762613458728061
1740926788.1181169,None,None,-0.02896505168457031,-0.016663643554687524,0.012030534351145317,0.0002945662183993069,4.43401052597693e-06,0.03767649322212281
1740926788.1341906,None,None,-0.052907068286132786,-0.01905784521484377,0.09600000000000053,0.0002724549334738159,3.774706455974463e-06,0.03805938119316347
1740926788.1502447,None,None,0.01652477985839851,0.007278373046874953,0.012030534351145317,0.0002801102323203995,3.967472092053284e-06,0.038109737800282636
1740926788.1698923,None,None,0.011736376538086013,0.021643583007812495,1.9204274809160309,0.0002876892697692483,5.152448275875937e-06,0.04571762836183653
1740926788.196364,None,None,-0.05051286662597665,0.10304643945312497,0.11126717557251942,0.00026629276717705995,4.473614736472272e-06,0.046161914471088535
1740926788.2334971,None,None,-0.014599841723632823,0.03840299462890623,0.012030534351145317,0.00026006762335135697,4.209697745613675e-06,0.04621323776063648
1740926788.2463107,None,None,0.01652477985839851,0.0096725747070312,0.11890076335877908,0.00026736306158267923,4.431220469499832e-06,0.046687715063855086
1740926788.2593203,None,None,0.006947973217773518,-0.07173028173828128,-0.1635419847328241,0.0002703394164083826,4.387972571302648e-06,0.046043812150574764
1740926788.2781136,None,None,-0.002628833422851473,-0.00948103857421878,2.088366412213741,0.0002707662213267035,5.259015718354647e-06,0.05431646531659837
1740926788.2963457,None,None,-0.02657085002441395,0.014460978027343752,-0.018503816793892902,0.00025916607520747324,4.7696989502447985e-06,0.054247812524906014
1740926788.3120742,None,None,0.03567839313964849,0.07671022119140622,0.06546564885496231,0.0002745378826007885,5.242987579847366e-06,0.054511571232734785
1740926788.32732,None,None,-0.03614765666503916,-0.00948103857421878,0.14180152671755764,0.00025885284256609617,4.664805689155396e-06,0.055077546170114476
1740926788.3475566,None,None,0.04286099812011712,-0.045394063476562496,-0.1635419847328241,0.0002771670428955468,5.180654568715395e-06,0.054434624762165366
1740926788.367121,None,None,-0.052907068286132786,-0.011875240234375029,-0.0032366412213735707,0.0002540846593476912,4.260347193719612e-06,0.05442624755904952
1740926788.3857296,None,None,0.01413057819824215,-0.12679691992187503,-0.15590839694656466,0.0002597646337032237,4.340504360664949e-06,0.053813399576804734
1740926788.3981361,None,None,0.009342174877929654,0.03361459130859373,-0.0032366412213735707,0.0002634852125614689,4.411170855835037e-06,0.05380484576548022
1740926788.4150481,None,None,-0.005023035083007832,0.019249381347656247,0.10363358778625997,0.0002610088793631161,4.283941227306677e-06,0.05421932004037484
1740926788.429976,None,None,-0.09121429484863275,0.028826187988281238,0.1494351145038173,0.00022090096605189368,2.693994716435935e-06,0.05481510882472341
1740926788.4434526,None,None,0.004553771557617159,0.031220389648437485,-0.04140458015267123,0.0002218180311253295,2.6378884793022082e-06,0.05465546599947449
1740926788.45707,None,None,-0.062483874926757776,-0.02145204687500002,-0.056671755725190565,0.00019350764387516983,1.4054801139050677e-06,0.054435326628248334
1740926788.4691095,None,None,0.018918981518554645,0.024037784667968742,0.1494351145038173,0.0002002168101454795,1.6364377241693983e-06,0.0550309635710468
1740926788.4843383,None,None,0.018918981518554645,0.028826187988281238,2.057832061068703,0.00020699419688823757,2.327544128394286e-06,0.0631805723246506
1740926788.4978232,None,None,0.009342174877929654,0.043191397949218724,0.06546564885496231,0.00020967204214957283,2.349448890791082e-06,0.0634449137671273
1740926788.5185134,None,None,-0.005023035083007832,-0.011875240234375029,0.004396946564885873,0.00020611744089976404,2.098400590298282e-06,0.06346751438493581
1740926788.5350292,None,None,-0.002628833422851473,-0.011875240234375029,0.27157251908396995,0.00020348830684756,1.9384263744490597e-06,0.06454753862515536
1740926788.5579674,None,None,0.006947973217773518,-0.13876792822265627,-0.15590839694656466,0.00020505529526539695,1.8845687517100827e-06,0.06393570607759767
1740926788.5731041,None,None,-0.04811866496582029,0.021643583007812495,0.09600000000000053,0.0001825671442399286,7.968502378622257e-07,0.06432075163498499
1740926788.5902762,None,None,0.009342174877929654,-0.028634651855468762,0.03493129770992409,0.00018477040123013512,8.064964702665226e-07,0.06446409290621653
1740926788.6092153,None,None,0.009342174877929654,-0.12440271826171878,0.09600000000000053,0.00018697265322328407,8.308106095140956e-07,0.06484908209484147
1740926788.622463,None,None,0.0261015864990235,-0.00948103857421878,0.004396946564885873,0.00019654216911420497,1.1981413054289263e-06,0.06487153859669176
1740926788.6360497,None,None,0.011736376538086013,-0.047788265136718744,2.019664122137405,0.00019904268070056086,1.4298805605884273e-06,0.07286924369802555
1740926788.6537077,None,None,0.01652477985839851,-0.035817256835937505,-0.17117557251908355,0.00020471024186114928,1.5931268634194395e-06,0.07219789328460116
1740926788.7034698,None,None,0.011736376538086013,-0.011875240234375029,-0.1635419847328241,0.00020837362489381793,1.6764168805408055e-06,0.07155660714088762
1740926788.75033,None,None,0.15778267780761723,0.014460978027343752,0.042564885496183535,0.0002756874012730409,4.995121993020619e-06,0.07173078107968568
1740926788.7727094,None,None,-0.033753455004882804,0.0096725747070312,-0.08720610687022878,0.00026058103135572495,4.182666190264507e-06,0.0713914002769302
1740926788.8040676,None,None,0.004553771557617159,-0.045394063476562496,-1.7207938931297706,0.00026293344378797195,4.1909432723526345e-06,0.06458779017905712
1740926788.818982,None,None,-0.033753455004882804,-0.00948103857421878,0.004396946564885873,0.00024753113870958456,3.357244334201161e-06,0.06460977410186457
1740926788.8340905,None,None,0.009342174877929654,-0.016663643554687524,0.2334045801526723,0.00025054098900883717,3.4957867981937226e-06,0.06553785727391183
1740926788.8464787,None,None,0.021313183178711004,9.576806640620994e-05,-0.03377099236641179,0.0002589935713478842,3.921514450725907e-06,0.0654088495854173
1740926788.864082,None,None,0.03807259479980463,0.014460978027343752,-0.04140458015267123,0.00027490165213187186,4.760662469962388e-06,0.06524957151265076
1740926788.8766286,None,None,-0.021782446704101455,0.02643198632812499,-0.1330076335877859,0.0002649708431750366,4.20089123050085e-06,0.0647277885212868
1740926788.8895383,None,None,-0.0074172367431639685,-0.1603157431640625,-0.04903816793893068,0.00026109369978337594,3.9707108219999835e-06,0.06453812033133774
1740926788.9129155,None,None,-0.002628833422851473,0.028826187988281238,-0.026137404580152346,0.0002592255960713446,3.8515015806202845e-06,0.06443898659228846
1740926788.9402523,None,None,-0.031359253344726445,-0.014269441894531276,0.09600000000000053,0.0002446728786078548,3.0204372480762587e-06,0.06482301480792664
1740926788.968724,None,None,0.021313183178711004,-0.165104146484375,0.019664122137405204,0.00025297560016610617,3.473275814826842e-06,0.06490503429437416
1740926789.004891,None,None,-0.009811438403320327,0.02643198632812499,0.06546564885496231,0.00024775587320018106,3.1612881292633355e-06,0.06516821831827475
1740926789.0189722,None,None,-0.00023463176269533648,0.014460978027343752,0.14180152671755764,0.0002465844048681233,3.0773996817073246e-06,0.06573338310183398
1740926789.043368,None,None,-0.02657085002441395,-0.1722867514648438,-0.14064122137404533,0.00023406929866652098,2.3433908837463986e-06,0.06518120843443384
1740926789.0756476,None,None,0.009342174877929654,0.004884171386718705,-0.03377099236641179,0.00023700105737822113,2.50268342644007e-06,0.06505169587921966
1740926789.092454,None,None,0.1865130977294922,0.021643583007812495,-0.018503816793892902,0.0003176190289184019,7.229776396712381e-06,0.0649825124668812
1740926789.1349516,None,None,-0.019388245043945318,0.019249381347656247,0.14180152671755764,0.0003091374412543382,6.726503730186572e-06,0.06554742499748657
1740926789.1547618,None,None,-0.06487807658691414,0.03600879296874998,-0.010870229007633014,0.00028067742586791267,5.034619563071465e-06,0.06550842860692868
1740926789.1729097,None,None,-0.009811438403320327,-0.03102885351562501,2.0425648854961835,0.00027439191797120065,4.569602328125212e-06,0.07359217146957515
1740926789.197681,None,None,0.04525519978027348,0.043191397949218724,-0.11774045801526656,0.00029382265588754036,5.742306308283729e-06,0.07313148923068034
1740926789.2184827,None,None,0.004553771557617159,9.576806640620994e-05,0.20287022900763407,0.00029544697611186385,5.830951598653161e-06,0.07393889145221583
1740926789.2332213,None,None,0.01413057819824215,0.028826187988281238,-0.04140458015267123,0.0003014876135885802,6.2050285267125565e-06,0.07378010951453752
1740926789.251422,None,None,-0.04093605998535166,0.031220389648437485,-0.0032366412213735707,0.0002833781388534369,5.078406034772143e-06,0.07377222349573666
1740926789.2766435,None,None,0.028495788159179636,-0.0022984335937500378,1.9738625954198477,0.00029411483708862216,5.65530765043583e-06,0.08158443321960607
1740926789.3012304,None,None,0.05483200642089847,-0.14116212988281251,0.10363358778625997,0.0003179842020815582,7.166842395590221e-06,0.0820002562004298
1740926789.3180828,None,None,-0.02657085002441395,0.12220005273437498,-0.03377099236641179,0.0003064757054212527,6.437334459885237e-06,0.08187259960743622
1740926789.3305044,None,None,0.04286099812011712,-0.15792154150390625,0.05783206106870287,0.0003253201829273127,7.665727884952338e-06,0.08210716308400764
1740926789.3511627,None,None,-0.021782446704101455,0.028826187988281238,0.10363358778625997,0.0003159277352787511,7.055256199017367e-06,0.08252284214395575
1740926789.3938544,None,None,0.006947973217773518,0.028826187988281238,-0.03377099236641179,0.00031915136588384573,7.279010623521202e-06,0.08239506607990424
1740926789.4202282,None,None,-0.021782446704101455,0.021643583007812495,-0.056671755725190565,0.0003097498547247011,6.657662372223227e-06,0.08217663627525587
1740926789.4724817,None,None,0.009342174877929654,0.028826187988281238,0.28683969465648906,0.00031373462910055456,6.9214124863245645e-06,0.08331667259559629
1740926789.511956,None,None,-0.05769547160644528,0.12938265771484372,-0.056671755725190565,0.0002883504872681713,5.187625660439719e-06,0.08309825452135944
1740926789.5289423,None,None,0.02370738483886714,0.07431601953124997,-0.23224427480916,0.0002986804255758607,5.908618124655782e-06,0.08218538593514152
1740926789.5609396,None,None,0.17214788776855472,-0.07173028173828128,2.057832061068703,0.00037355563611897653,1.1062606191251248e-05,0.09032898435684303
1740926789.5874176,None,None,-0.00023463176269533648,0.06713341455078123,-0.1635419847328241,0.00037458181591617346,1.1181131784268592e-05,0.08968876192721521
1740926789.6115882,None,None,0.0021595698974610222,-0.15552733984375,0.1952366412213744,0.00037648515454432,1.1348941920830242e-05,0.09046721444314788
1740926789.6438885,None,None,0.021313183178711004,0.040797196289062476,0.027297709923664648,0.0003870066407311208,1.2146425990633278e-05,0.0905815694872227
1740926789.6791108,None,None,0.0261015864990235,0.02643198632812499,-0.026137404580152346,0.00039984586683416843,1.3125318902408257e-05,0.0904845559340729
1740926789.6941435,None,None,-0.005023035083007832,-0.10764330664062499,0.027297709923664648,0.00039902649133322755,1.3106520246310768e-05,0.0905987638957828
1740926789.7120569,None,None,0.04286099812011712,-0.01905784521484377,-0.04903816793893068,0.00041952189976185726,1.467551651904147e-05,0.09041105065004375
1740926789.7251737,None,None,0.009342174877929654,-0.014269441894531276,0.019664122137405204,0.00042539091095404775,1.5161710957645631e-05,0.09049491411946892
1740926789.7491431,None,None,-0.033753455004882804,0.014460978027343752,0.042564885496183535,0.0004121338760899632,1.4195641302990847e-05,0.09066927559186784
1740926789.7610874,None,None,-0.019388245043945318,0.043191397949218724,-0.3085801526717553,0.0004051549348751744,1.3685262185794692e-05,0.08945508125712576
1740926789.7803736,None,None,-0.033753455004882804,-0.047788265136718744,-1.7742290076335872,0.0003919710282995675,1.263060546614e-05,0.08244522208186884
1740926789.792024,None,None,-0.03614765666503916,-0.06694187841796878,0.019664122137405204,0.0003770716486021345,1.1475996110156984e-05,0.08252763717946905
1740926789.8037813,None,None,-0.021782446704101455,0.0024899697265624576,0.20287022900763407,0.000368313128810847,1.0800900838105828e-05,0.08333441849378675
1740926789.8203723,None,None,0.0021595698974610222,0.11741164941406246,2.034931297709924,0.00036981835210125305,1.1013498565380692e-05,0.09138525830772973
1740926789.8352818,None,None,-0.031359253344726445,9.576806640620994e-05,-0.10247328244274767,0.00035667931146661237,9.974494118239056e-06,0.09098589446101751
1740926789.850852,None,None,0.021313183178711004,0.040797196289062476,-1.7742290076335872,0.0003671788034076742,1.0729856905157156e-05,0.08397642234588573
1740926789.871043,None,None,0.01652477985839851,0.031220389648437485,-0.15590839694656466,0.00037546256239037046,1.1387562887669558e-05,0.08336456549593135
1740926789.8871148,None,None,-0.0074172367431639685,-0.145950533203125,0.12653435114503853,0.000373078676751401,1.120019644588891e-05,0.08386930062450451
1740926789.9101548,None,None,-0.01699404338378896,-0.00948103857421878,0.07309923664122175,0.00036634532301977886,1.0655117923084905e-05,0.08416278223666777
1740926789.92381,None,None,-0.04811866496582029,0.12698845605468748,0.0807328244274812,0.000345474848901672,8.952329181029774e-06,0.08448643355254296
1740926789.9445703,None,None,0.05483200642089847,-0.12919112158203128,0.15706870229007674,0.00037067173174063183,1.1025565424903113e-05,0.08511187966524879
1740926789.9565856,None,None,-0.043330261645507795,-0.02145204687500002,0.042564885496183535,0.00035197083360271003,9.48305883901685e-06,0.08528465716221008
1740926789.9681349,None,None,-0.014599841723632823,-0.1698925498046875,0.31737404580152706,0.0003459251550859997,8.998199996672058e-06,0.08654388410152122
1740926789.9920292,None,None,0.0021595698974610222,0.12698845605468748,-0.03377099236641179,0.00034737320801171435,9.111758853289055e-06,0.08641496632080369
1740926790.005758,None,None,-0.03614765666503916,0.03361459130859373,-0.09483969465648823,0.0003314911915791245,7.771315284564788e-06,0.08604454387164485
1740926790.0347595,None,None,-0.08882009318847661,0.06473921289062498,0.21813740458015318,0.00029144765835586924,4.412586297819448e-06,0.08691135626780642
1740926790.0473022,None,None,0.04764940144042962,0.05755660791015621,0.11126717557251942,0.00031269463360300104,6.205529974131429e-06,0.0873557296670053
1740926790.0711465,None,None,-0.02657085002441395,0.021643583007812495,-1.6902595419847324,0.0003006740346214113,5.079558308283874e-06,0.08067804185267333
1740926790.0829475,None,None,-0.08642589152832025,9.576806640620994e-05,0.019664122137405204,0.0002611043427287977,1.7132796734053574e-06,0.08075924050052748
1740926790.1054928,None,None,0.01652477985839851,0.004884171386718705,-1.7742290076335872,0.00026796359505489096,2.216363818519216e-06,0.0737486667966873
1740926790.1269627,None,None,-0.002628833422851473,0.004884171386718705,-0.1330076335877859,0.00026602858412987784,2.062811483166185e-06,0.07322519903007557
1740926790.151151,None,None,-0.0074172367431639685,0.024037784667968742,0.3250076335877867,0.0002618083603445075,1.7340422159812463e-06,0.0745122489118032
1740926790.1701336,None,None,0.021313183178711004,-0.0022984335937500378,0.21813740458015318,0.00027066281044171826,2.5141974296843995e-06,0.07537697685980818
1740926790.2036936,None,None,-0.06487807658691414,-0.026240450195312515,0.1494351145038173,0.00024021046200366737,-6.66469896295509e-08,0.07597021317675982
1740926790.2233486,None,None,-0.02657085002441395,0.040797196289062476,0.17233587786259585,0.00022681068057457232,-1.1863942164835573e-06,0.07665402891900724
1740926790.2370033,None,None,-0.033753455004882804,0.12220005273437498,-0.08720610687022878,0.0002099524110189899,-2.605046196692755e-06,0.0763119356913009
1740926790.254373,None,None,0.03807259479980463,0.024037784667968742,0.22577099236641263,0.00022574387431850985,-1.225185009184974e-06,0.07720695211399965
1740926790.2722905,None,None,0.030889989819335995,0.10544064111328122,2.0960000000000005,0.0002379204590260157,-1.7274080421807885e-07,0.08549496594754731
1740926790.289604,None,None,0.028495788159179636,-0.13637372656250002,0.042564885496183535,0.00024982224502006416,8.507819514975595e-07,0.08566708644919122
1740926790.30425,None,None,-0.02657085002441395,0.021643583007812495,-0.056671755725190565,0.00023654685436521784,-2.9056056275174397e-07,0.08544691850080359
1740926790.3315585,None,None,-0.009811438403320327,0.07671022119140622,-0.06430534351145001,0.00023080350777190833,-7.818668407528971e-07,0.08519649865546074
1740926790.3513901,None,None,0.011736376538086013,-0.0046926352539062854,0.03493129770992409,0.00023489889397599811,-4.2182590337859395e-07,0.08533825883314407
1740926790.374305,None,None,0.03567839313964849,-0.1507389365234375,-1.7665954198473277,0.0002508793356934874,1.0408971287745102e-06,0.07835900969796704
1740926790.3864048,None,None,-0.002628833422851473,-0.03102885351562501,-0.010870229007633014,0.0002486259560846308,8.633849249399707e-07,0.07831860899086353
1740926790.407681,None,None,-0.01699404338378896,9.576806640620994e-05,0.27157251908396995,0.0002395451785798344,7.819610006470166e-08,0.0793945773261205
1740926790.4194741,None,None,-0.009811438403320327,0.09346963281249998,0.027297709923664648,0.0002337697059237034,-4.0789038117573296e-07,0.07950513703909806
1740926790.4313772,None,None,-0.002628833422851473,-0.13876792822265627,0.25630534351145084,0.0002311428407809673,-6.315585726275286e-07,0.08052085710007342
1740926790.444751,None,None,-0.009811438403320327,0.014460978027343752,-0.10247328244274767,0.000225300563836824,-1.1168152554842007e-06,0.08011859231905036
1740926790.4613206,None,None,-0.01699404338378896,0.004884171386718705,0.2334045801526723,0.0002158463997822268,-1.939285587924411e-06,0.08104380665269521
1740926790.476988,None,None,-0.04093605998535166,0.014460978027343752,0.2334045801526723,0.00019504715439212672,-3.7592801700312585e-06,0.08196912186758883
1740926790.5079942,None,None,0.01652477985839851,0.031220389648437485,-0.11774045801526656,0.0002010210670435205,-3.20155436164074e-06,0.08150664379180908
1740926790.5244253,None,None,0.018918981518554645,0.0096725747070312,0.05019847328244298,0.0002081248352325714,-2.5572513528994048e-06,0.08170783235369743
1740926790.5443382,None,None,0.0261015864990235,-0.0046926352539062854,-0.04140458015267123,0.00021877690958680695,-1.5922293018561753e-06,0.0815469638245432
1740926790.5716374,None,None,0.030889989819335995,0.012066776367187504,-0.08720610687022878,0.00023188664921109466,-4.0542120740082205e-07,0.08120501393941054
1740926790.5857017,None,None,0.01652477985839851,9.576806640620994e-05,0.027297709923664648,0.00023837545897434546,1.8466933552824865e-07,0.08131554037625542
1740926790.6022406,None,None,-0.009811438403320327,-0.13397952490234377,-0.0032366412213735707,0.00023257186501356907,-3.093634064802198e-07,0.08130537089323554
1740926790.625689,None,None,-0.02657085002441395,-0.05975927343750004,-0.056671755725190565,0.00021880048416924471,-1.5018522106282944e-06,0.08108397873554002
1740926790.6439147,None,None,0.028495788159179636,0.11980585107421873,0.21050381679389352,0.00023069585756110375,-4.4977386068042597e-07,0.08191846378786216
1740926790.680473,None,None,-0.045724463305664154,0.043191397949218724,0.07309923664122175,0.00020771676219360574,-2.4776079674579856e-06,0.08220998989047285
1740926790.6947217,None,None,-0.07206068156738277,-0.0046926352539062854,-0.018503816793892902,0.0001719471630620781,-5.629007717053733e-06,0.0821394955713055
1740926790.722246,None,None,-0.01699404338378896,0.007278373046874953,-0.10247328244274767,0.00016184612678048465,-6.483163294763095e-06,0.0817370967382797
1740926790.7374442,None,None,0.018918981518554645,-0.01905784521484377,0.06546564885496231,0.00016856585723398456,-5.86070289110178e-06,0.08199832184950526
1740926790.7555187,None,None,-0.08642589152832025,-0.15792154150390625,0.027297709923664648,0.00012522188855653175,-9.695557743335364e-06,0.0821087157017812
1740926790.7740695,None,None,-0.02896505168457031,0.007278373046874953,-1.8047633587786254,0.00011007560918535723,-1.0714166085734073e-05,0.07497867006013004
1740926790.7861683,None,None,-0.033753455004882804,-0.028634651855468762,-0.17117557251908355,9.109187673148593e-05,-1.230177100772636e-05,0.07430355354392476
1740926790.804161,None,None,0.02370738483886714,0.012066776367187504,0.004396946564885873,9.91847549868831e-05,-1.1498818105441052e-05,0.07432218345766115
1740926790.8162463,None,None,0.028495788159179636,0.043191397949218724,2.0120305343511453,0.00010788150598203488,-1.1045723438851192e-05,0.08227492704563405
1740926790.8290606,None,None,-0.0385418583251953,-0.026240450195312515,0.24103816793893174,8.619926668587373e-05,-1.2983675568267402e-05,0.08322994335739176
1740926790.8517144,None,None,0.009342174877929654,-0.014269441894531276,-0.11010687022900711,8.757047132660676e-05,-1.2795646469776838e-05,0.08279736892697676
1740926790.8676033,None,None,-0.009811438403320327,0.0168551796875,-0.1330076335877859,7.97778514433361e-05,-1.3416105252480491e-05,0.08227419931426395
1740926790.8937905,None,None,-0.03614765666503916,-0.01905784521484377,-0.03377099236641179,5.90695672083416e-05,-1.5208925120619605e-05,0.0821430944831944
1740926790.906777,None,None,0.018918981518554645,9.576806640620994e-05,-0.14827480916030478,6.479454678526048e-05,-1.4606563391167993e-05,0.08155943822499623
1740926790.9230206,None,None,-0.043330261645507795,0.03600879296874998,0.14180152671755764,4.0168424660353e-05,-1.6792032324677892e-05,0.0821219997201563
1740926790.9351387,None,None,0.006947973217773518,-0.07651868505859377,-0.018503816793892902,3.974133872595887e-05,-1.6768014135257807e-05,0.082051121689775
1740926790.9468489,None,None,0.028495788159179636,-0.011875240234375029,-0.03377099236641179,4.9810345476545144e-05,-1.579849512933606e-05,0.08191987263743362
1740926790.9726653,None,None,0.05243780476074211,-0.014269441894531276,-0.026137404580152346,7.169152748149342e-05,-1.3772765825328779e-05,0.08181874234220021
1740926791.0115871,None,None,0.009342174877929654,-0.014269441894531276,-0.2627786259541982,7.325558908034351e-05,-1.3497590099550763e-05,0.08078243312984046
1740926791.0254433,None,None,-0.012205640063476464,0.031220389648437485,-0.23987786259541943,6.4323299347039e-05,-1.4165549033239798e-05,0.07983644267508026
1740926791.0519998,None,None,0.06440881306152346,0.05516240624999996,0.11126717557251942,9.222928224429803e-05,-1.1637387753992283e-05,0.0802778948359052
1740926791.081318,None,None,0.028495788159179636,0.040797196289062476,0.004396946564885873,0.00010316827359392208,-1.0605150375740098e-05,0.08029707889376278
1740926791.1026936,None,None,0.05243780476074211,0.06234501123046873,0.11890076335877908,0.00012587779674826308,-8.55942654508668e-06,0.08076871849533437
1740926791.125332,None,None,-0.031359253344726445,0.03600879296874998,0.042564885496183535,0.00010793776126064578,-1.0142957297794168e-05,0.08093876052474955
1740926791.1464732,None,None,0.02370738483886714,-0.028634651855468762,0.21813740458015318,0.00011657839370998301,-9.399535862727227e-06,0.08180259114027587
1740926791.1671941,None,None,0.0021595698974610222,0.12698845605468748,0.012030534351145317,0.00011506483078604127,-9.49927210237693e-06,0.08185208608758837
1740926791.1856346,None,None,0.011736376538086013,9.576806640620994e-05,-0.06430534351145001,0.0001183870158152818,-9.137057012514343e-06,0.08159992053033419
1740926791.1995063,None,None,0.0261015864990235,0.12698845605468748,0.11126717557251942,0.00012863322121535676,-8.21682485148834e-06,0.08204146931381792
1740926791.2280033,None,None,0.004553771557617159,-0.0022984335937500378,0.012030534351145317,0.0001285458010058503,-8.192788569234422e-06,0.08209092941251561
1740926791.25139,None,None,0.009342174877929654,9.576806640620994e-05,0.11890076335877908,0.00013070720980691705,-8.006495680753803e-06,0.08256266697715776
1740926791.2642403,None,None,-0.00023463176269533648,-0.016663643554687524,-0.026137404580152346,0.0001283845424026892,-8.171662057563872e-06,0.08246134181590997
1740926791.2843986,None,None,-0.019388245043945318,0.0168551796875,-0.18644274809160244,0.00011675446784877096,-9.115225602060294e-06,0.08172654417640086
1740926791.3144598,None,None,0.03567839313964849,0.012066776367187504,-1.7894961832061065,0.0001346477256550897,-6.791075931417991e-06,0.0746573049199862
1740926791.3296964,None,None,-0.002628833422851473,-0.1028549033203125,2.088366412213741,0.00012821549569714324,-8.11734666303688e-06,0.08290989647050287
1740926791.3532877,None,None,-0.012205640063476464,9.576806640620994e-05,2.050198473282443,0.00011707881150569289,-9.865608535323341e-06,0.09101290007615062
1740926791.366,None,None,-0.021782446704101455,0.03600879296874998,-0.17117557251908355,0.00010419254656974165,-1.0941609199580896e-05,0.09033969127681213
1740926791.383046,None,None,0.011736376538086013,0.052768204589843715,-1.7665954198473277,0.00011015577226208435,-9.701568164958106e-06,0.08336232799805599
1740926791.4248748,None,None,-0.009811438403320327,0.06473921289062498,-0.11010687022900711,0.00010303807810195296,-1.0269376405039085e-05,0.08292916413098492
1740926791.4564633,None,None,0.006947973217773518,-0.0046926352539062854,-1.8047633587786254,0.00010662324615875743,-9.209159216086097e-06,0.07579984844720745
1740926791.4755156,None,None,0.028495788159179636,0.12698845605468748,0.012030534351145317,0.00011854308741066063,-8.089134438396533e-06,0.07584806534727873
1740926791.491402,None,None,-0.024176648364257813,-0.16270994482421874,-0.018503816793892902,0.00010413991075590967,-9.342385335879443e-06,0.07577563419433617
1740926791.5097322,None,None,0.004553771557617159,9.576806640620994e-05,0.05783206106870287,0.00010396316642471611,-9.336330523360343e-06,0.07600480289318377
1740926791.52272,None,None,0.009342174877929654,0.004884171386718705,-1.7589618320610683,0.00010875066985512855,-8.166894201227891e-06,0.06905547303993764
1740926791.546176,None,None,0.13862906452636725,-0.04060566015625,0.0807328244274812,0.00017657819146244696,-2.062168085240363e-06,0.06937405980730943
1740926791.560387,None,None,0.0261015864990235,0.08628702783203121,-1.7513282442748088,0.0001907881807491421,-8.901922528995598e-08,0.06245392132168146
1740926791.6087866,None,None,0.0021595698974610222,0.0024899697265624576,0.25630534351145084,0.00019028555177612712,-2.3371040567738528e-07,0.06346520575009465
1740926791.6302547,None,None,-0.01699404338378896,0.040797196289062476,-0.20934351145038121,0.0001806695653251993,-1.0043423236049295e-06,0.06263682053914164
1740926791.6459725,None,None,-0.05769547160644528,9.576806640620994e-05,-0.04903816793893068,0.00014995212412652396,-3.6865319275688805e-06,0.062441711582973236
1740926791.6749523,None,None,-0.05051286662597665,0.028826187988281238,0.1341679389312982,0.00012224937047078998,-6.141929683065488e-06,0.06297045496073685
1740926791.6921833,None,None,-0.012205640063476464,0.12459425439453123,-0.11010687022900711,0.00011409444161872276,-6.771978527643703e-06,0.06253414456792557
1740926791.7143037,None,None,-0.045724463305664154,0.03840299462890623,-0.0032366412213735707,8.851827575825656e-05,-8.94785462391815e-06,0.06252003591653471
1740926791.736437,None,None,0.01413057819824215,0.021643583007812495,-0.0032366412213735707,9.334763709205575e-05,-8.473332943814515e-06,0.06250593977841185
1740926791.7501254,None,None,-0.00023463176269533648,-0.026240450195312515,0.07309923664122175,9.078987356444872e-05,-8.670761064541876e-06,0.06279346357616869
1740926791.7820284,None,None,-0.06966647990722663,0.024037784667968742,0.08836641221374109,5.241550818909027e-05,-1.19389528860148e-05,0.06314136981520313
1740926791.830765,None,None,0.03328419147949213,-0.016663643554687524,0.20287022900763407,6.652526360406627e-05,-1.0748991910224365e-05,0.06394174584140438
1740926791.9011784,None,None,0.01652477985839851,0.04558559960937497,-0.0032366412213735707,7.246999687657235e-05,-1.0187318730627814e-05,0.06392793360062779
1740926791.9302793,None,None,-0.0385418583251953,0.12459425439453123,-0.12537404580152645,5.015764363637393e-05,-1.1970992516810184e-05,0.06343157247531012
1740926791.9427373,None,None,-0.0074172367431639685,0.031220389648437485,0.2334045801526723,4.323989580564544e-05,-1.2586431039223246e-05,0.06435266482367137
1740926791.9565275,None,None,0.04286099812011712,-0.011875240234375029,-0.10247328244274767,6.282362480977237e-05,-1.0843594609942151e-05,0.06394687721996395
1740926791.9702814,None,None,-0.033753455004882804,-0.00948103857421878,1.9433282442748097,4.019358262673334e-05,-1.3485426261701696e-05,0.07162384364671959
1740926791.9826164,None,None,0.03567839313964849,0.0096725747070312,-1.7360610687022895,5.8304322961755513e-05,-1.121221603132432e-05,0.06476506512544639
1740926791.9956381,None,None,-0.012205640063476464,0.0096725747070312,0.05019847328244298,4.931118745132299e-05,-1.1934062014928416e-05,0.06496255791064276
1740926792.0314834,None,None,0.0021595698974610222,-0.16749834814453124,-0.27041221374045765,4.815487544554177e-05,-1.186800695631837e-05,0.0638933971709278
1740926792.0674725,None,None,-0.02657085002441395,-0.00948103857421878,-0.08720610687022878,3.170675394056534e-05,-1.3138421003900257e-05,0.06354790604192125
1740926792.0976834,None,None,-0.009811438403320327,0.08868122949218749,-1.629190839694656,2.5877456230250224e-05,-1.2863676777664567e-05,0.057110223873032974
1740926792.1153476,None,None,0.018918981518554645,0.12698845605468748,1.8746259541984738,3.040862858891212e-05,-1.3237568308163774e-05,0.06451457293933255
1740926792.1433923,None,None,-0.062483874926757776,-0.014269441894531276,0.06546564885496231,-5.364527051289227e-06,-1.612804866661342e-05,0.06477241165212833
1740926792.1579218,None,None,-0.014599841723632823,0.12698845605468748,-0.33911450381679353,-1.5810604849619608e-05,-1.6764637691616442e-05,0.0634318802428287
1740926792.1788032,None,None,0.006947973217773518,0.031220389648437485,0.004396946564885873,-1.5466313048817084e-05,-1.6672866237545902e-05,0.06344829562200599
1740926792.192725,None,None,0.050043603100585976,-0.00948103857421878,0.1952366412213744,7.459119151547255e-06,-1.4853529833249035e-05,0.06421869043041772
1740926792.2166922,None,None,0.0021595698974610222,0.007278373046874953,0.0807328244274812,5.523009792284622e-06,-1.4996591805947138e-05,0.06453683808953921
1740926792.2290761,None,None,0.028495788159179636,0.028826187988281238,-0.14064122137404533,1.7889110300349154e-05,-1.3895223215632664e-05,0.06398044946628374
1740926792.2460613,None,None,-0.00023463176269533648,0.031220389648437485,0.004396946564885873,1.4973254731686162e-05,-1.4087890090418875e-05,0.06399699378457188
1740926792.2700036,None,None,0.05722620808105461,0.0024899697265624576,0.11890076335877908,4.249981179081774e-05,-1.191592921203629e-05,0.06446592348235887
1740926792.2858298,None,None,0.062014611401367103,0.10065223779296872,0.14180152671755764,7.297687168461711e-05,-9.540441988063492e-06,0.06502540978074885
1740926792.3042119,None,None,-0.062483874926757776,-0.11722011328125004,0.03493129770992409,3.753272688358254e-05,-1.2339828103248439e-05,0.06516278079946439
1740926792.3175867,None,None,0.006947973217773518,0.12459425439453123,-0.018503816793892902,3.886993265720134e-05,-1.2198940640817757e-05,0.06508907386661972
1740926792.3384447,None,None,-0.08642589152832025,9.576806640620994e-05,0.07309923664122175,-9.934638025262014e-06,-1.604077141961843e-05,0.06537725915273683
1740926792.351578,None,None,-0.02657085002441395,-0.035817256835937505,0.28683969465648906,-2.7535238546057317e-05,-1.7515190729508973e-05,0.06650991304075173
1740926792.3793433,None,None,-0.045724463305664154,0.09107543115234373,0.14180152671755764,-5.544255637320696e-05,-1.9723062696146154e-05,0.06706975261757958
1740926792.4235587,None,None,0.011736376538086013,-0.035817256835937505,0.004396946564885873,-5.254959498013638e-05,-1.945398275736971e-05,0.06708684541051192
1740926792.4412348,None,None,0.050043603100585976,-0.016663643554687524,0.05019847328244298,-2.897720797512072e-05,-1.760027553121019e-05,0.06728488877435483
1740926792.458823,None,None,0.004553771557617159,-0.12200851660156253,-0.018503816793892902,-2.95344478506882e-05,-1.7599330159674596e-05,0.06721155000534111
1740926792.485212,None,None,0.028495788159179636,0.024037784667968742,-0.0795725190839689,-1.7016685787253622e-05,-1.6554965907973604e-05,0.06689694383812177
1740926792.512877,None,None,-0.0385418583251953,0.11980585107421873,0.20287022900763407,-4.1057366512412484e-05,-1.848630303724736e-05,0.06769811148024266
1740926792.5255604,None,None,-0.0385418583251953,0.13177685937499997,-0.09483969465648823,-6.495543272036661e-05,-2.0251850686864433e-05,0.06732327692172528
1740926792.5454276,None,None,0.021313183178711004,-0.0022984335937500378,-0.04140458015267123,-5.66691926176775e-05,-1.955281512688772e-05,0.06715948524865799
1740926792.5580423,None,None,-0.009811438403320327,-0.023846248535156267,-0.12537404580152645,-6.507224428673199e-05,-2.0099760104010866e-05,0.06666394435934875
1740926792.574825,None,None,-0.009811438403320327,-0.0046926352539062854,0.042564885496183535,-7.38121674391589e-05,-2.0755382238411476e-05,0.06683178219284258
1740926792.5879765,None,None,-0.02657085002441395,0.06234501123046873,-0.0032366412213735707,-9.172864392218287e-05,-2.2089685924042867e-05,0.06681870909535444
1740926792.60043,None,None,0.030889989819335995,-0.06933608007812503,0.03493129770992409,-7.84564892765477e-05,-2.1050652776725215e-05,0.06695642071698572
1740926792.6211245,None,None,-0.031359253344726445,0.007278373046874953,0.10363358778625997,-9.920882864227302e-05,-2.2655481119412934e-05,0.06736556815639405
1740926792.633389,None,None,0.03328419147949213,0.02643198632812499,-0.14827480916030478,-8.431145503076421e-05,-2.140038695030549e-05,0.06677961331626467
1740926792.6499329,None,None,0.0021595698974610222,0.12220005273437498,-0.03377099236641179,-8.648396855339857e-05,-2.1511999331073264e-05,0.06664591846390722
1740926792.6644661,None,None,-0.04093605998535166,-0.023846248535156267,-0.09483969465648823,-0.00011229894827435365,-2.338800511154622e-05,0.06627095514679125
1740926792.6765835,None,None,-0.05769547160644528,-0.007086836914062533,-0.04903816793893068,-0.00014775150129989125,-2.6010896355625205e-05,0.0660768758912807
1740926792.689239,None,None,0.15778267780761723,0.040797196289062476,2.088366412213741,-6.803418105081767e-05,-2.109504974496092e-05,0.0743265373887729
1740926792.701544,None,None,-0.009811438403320327,-0.1698925498046875,0.012030534351145317,-7.65090450213862e-05,-2.1729301213594233e-05,0.07437498752958016
1740926792.7140596,None,None,-0.043330261645507795,0.11501744775390621,0.07309923664122175,-0.00010374303315533934,-2.382145233397245e-05,0.07466468325326113
1740926792.7275307,None,None,0.006947973217773518,0.02643198632812499,0.3479083969465653,-0.00010383541292794426,-2.4010469309903374e-05,0.07604003172238814
1740926792.746696,None,None,0.030889989819335995,0.0096725747070312,1.9814961832061073,-9.325304391782475e-05,-2.4324438470841998e-05,0.08386897285060359
1740926792.7587817,None,None,-0.014599841723632823,0.10544064111328122,-0.026137404580152346,-0.00010443595012709487,-2.516276571894752e-05,0.08376809822425156
1740926792.7898104,None,None,-0.045724463305664154,0.03840299462890623,-1.7894961832061065,-0.00013018232487204748,-2.6106674229887707e-05,0.07670116607579666
1740926792.8063912,None,None,-0.009811438403320327,-0.05975927343750004,0.11126717557251942,-0.00013939780051587902,-2.686452196290929e-05,0.07714190662658843
1740926792.8203545,None,None,0.028495788159179636,0.0168551796875,-0.14064122137404533,-0.0001268406075543193,-2.5806191587937938e-05,0.07658756042442616
1740926792.8397336,None,None,0.018918981518554645,9.576806640620994e-05,0.019664122137405204,-0.00011972584072924064,-2.5256904761675922e-05,0.07666638203799181
1740926792.8726907,None,None,-0.019388245043945318,-0.0022984335937500378,-0.18644274809160244,-0.00013363147242352808,-2.6202975891158022e-05,0.07593099965147355
1740926792.9033718,None,None,0.009342174877929654,0.0168551796875,-0.010870229007633014,-0.00013184101364257158,-2.6042706606518972e-05,0.0758890664027773
1740926792.9187715,None,None,-0.03614765666503916,-0.0022984335937500378,0.027297709923664648,-0.0001556648390798875,-2.7879279179387834e-05,0.07599789165116937
1740926792.9315467,None,None,0.021313183178711004,0.012066776367187504,-0.056671755725190565,-0.00014722277998580985,-2.717742587728501e-05,0.07577501134731116
1740926792.9495134,None,None,-0.01699404338378896,-0.16270994482421874,-0.10247328244274767,-0.0001601881926169957,-2.8099659628127297e-05,0.0753711515955658
1740926792.964691,None,None,0.04764940144042962,-0.0022984335937500378,2.057832061068703,-0.00014049632200995954,-2.781078640238549e-05,0.08350117351958743
1740926792.9943721,None,None,-0.014599841723632823,0.0168551796875,0.17233587786259585,-0.0001523833171784549,-2.8834309549005788e-05,0.0841841029900695
1740926793.0073524,None,None,0.01652477985839851,0.014460978027343752,0.11126717557251942,-0.00014662022915871452,-2.8453447469298763e-05,0.08462587042231787
1740926793.032176,None,None,-0.019388245043945318,-0.023846248535156267,-0.18644274809160244,-0.00016061991187258116,-2.942887795514978e-05,0.08389162815141793
1740926793.0539255,None,None,-0.08642589152832025,0.007278373046874953,-0.10247328244274767,-0.00021305612156447264,-3.346578472291116e-05,0.08348894866311336
1740926793.0723886,None,None,0.03328419147949213,0.0024899697265624576,0.18760305343511496,-0.00019844818721841633,-3.2438147192380704e-05,0.08423207080745346
1740926793.1082132,None,None,0.19848410603027333,0.0096725747070312,-1.8047633587786254,-8.577882574172054e-05,-2.2441724140885687e-05,0.07710483492861807
1740926793.1419857,None,None,-0.014599841723632823,-0.00948103857421878,-1.781862595419847,-9.355497907474762e-05,-2.1928449989356938e-05,0.07006692268067352
1740926793.1656952,None,None,-0.005023035083007832,-0.0022984335937500378,-0.11010687022900711,-9.896874186798716e-05,-2.2268470311246444e-05,0.06963181330140983
1740926793.2079601,None,None,0.018918981518554645,0.04558559960937497,0.24103816793893174,-9.130850993392283e-05,-2.1798202699627245e-05,0.0705837592133224
1740926793.225684,None,None,0.01413057819824215,0.012066776367187504,0.012030534351145317,-8.584543725430011e-05,-2.1361789421484475e-05,0.07063121411901198
1740926793.247604,None,None,0.0261015864990235,-0.00948103857421878,0.004396946564885873,-7.337588684482705e-05,-2.037386927969747e-05,0.07064852266224592
1740926793.2758207,None,None,-0.021782446704101455,0.0024899697265624576,0.042564885496183535,-8.833689232929157e-05,-2.155981988892982e-05,0.07081660776893522
1740926793.2911706,None,None,-0.0385418583251953,0.021643583007812495,-0.07193893129770945,-0.0001129142152802202,-2.3424793434090444e-05,0.07053240080719232
1740926793.3108847,None,None,0.10032183796386729,-0.12440271826171878,0.004396946564885873,-5.771225545641157e-05,-1.910018214512696e-05,0.0705496958706352
1740926793.3274615,None,None,-0.03614765666503916,0.13177685937499997,-0.0032366412213735707,-8.067446604064415e-05,-2.088301690620101e-05,0.07053683939390894
1740926793.3416784,None,None,-0.0074172367431639685,0.040797196289062476,-1.7513282442748088,-8.443521439992605e-05,-2.0127482740498534e-05,0.06361861265811193
1740926793.3567388,None,None,-0.021782446704101455,0.0024899697265624576,-0.056671755725190565,-9.933747407039979e-05,-2.1243336855892948e-05,0.0633935794825458
1740926793.3724456,None,None,0.17693629108886721,-0.014269441894531276,-0.11774045801526656,1.1264771574607624e-06,-1.338401780724153e-05,0.06292729221924291
1740926793.389427,None,None,0.16496528278808587,0.11501744775390621,0.004396946564885873,9.573184313380674e-05,-6.108432222961026e-06,0.06294341566128427
1740926793.4024446,None,None,0.011736376538086013,-0.07173028173828128,0.05019847328244298,0.00010224204821058297,-5.68902801688774e-06,0.06314048179058918
1740926793.4162967,None,None,0.006947973217773518,0.019249381347656247,0.1341679389312982,0.00010598043269926682,-5.528702266995686e-06,0.06366929062544512
1740926793.4379768,None,None,-0.002628833422851473,0.02643198632812499,0.18760305343511496,0.00010416480666929104,-5.817377998404009e-06,0.06440927644246129
1740926793.4539783,None,None,-0.014599841723632823,0.0096725747070312,-0.20934351145038121,9.588448597733817e-05,-6.38806691879843e-06,0.0635813777017534
1740926793.4786344,None,None,0.009342174877929654,0.0096725747070312,0.004396946564885873,0.00010130481653329049,-6.024642979178362e-06,0.06359767529735894
1740926793.4917686,None,None,0.006947973217773518,0.007278373046874953,1.9967633587786264,0.00010322007107750291,-6.881588554447123e-06,0.07148419121915735
1740926793.5113227,None,None,0.01413057819824215,-0.0022984335937500378,-0.10247328244274767,0.00011180987893072059,-6.194492733709591e-06,0.0710796128582417
1740926793.525532,None,None,-0.0074172367431639685,0.02643198632812499,0.07309923664122175,0.00010768545755181653,-6.553515515168752e-06,0.07136850880193019
1740926793.5374193,None,None,-0.009811438403320327,0.11501744775390621,-1.797129770992366,0.00010385665709072468,-6.084792630930176e-06,0.06426974227409675
1740926793.5579116,None,None,-0.024176648364257813,0.014460978027343752,0.1341679389312982,8.974172825413678e-05,-7.249275300952011e-06,0.06479878383667192
1740926793.5766594,None,None,0.03328419147949213,-0.0046926352539062854,-0.056671755725190565,0.00010961605611761494,-5.765341710495161e-06,0.0645740756539505
1740926793.6012871,None,None,-0.07924328654785162,-0.04299986181640625,2.019664122137405,6.164136108320728e-05,-1.0187908869620236e-05,0.07255116906463574
1740926793.6148782,None,None,0.018918981518554645,0.019249381347656247,-0.07193893129770945,7.287653150161056e-05,-9.319048366084524e-06,0.07226740557550088
1740926793.6295638,None,None,-0.0385418583251953,9.576806640620994e-05,0.28683969465648906,4.9942826723460364e-05,-1.1150364438440712e-05,0.07340081539823429
1740926793.6418478,None,None,-0.012205640063476464,-0.13158532324218752,-1.8047633587786254,4.368958414327267e-05,-1.0992998384057434e-05,0.06627229720028979
1740926793.664709,None,None,0.0261015864990235,-0.00948103857421878,0.004396946564885873,5.9073541152920335e-05,-9.859350405252152e-06,0.0662890582895124
1740926793.6768405,None,None,0.01652477985839851,-0.026240450195312515,-0.026137404580152346,6.898237842328473e-05,-9.130702240470037e-06,0.06618521524789243
1740926793.6938648,None,None,0.04525519978027348,-0.0022984335937500378,-1.7894961832061065,9.702868707820345e-05,-6.495266646416057e-06,0.059115895487533064
1740926793.712178,None,None,0.009342174877929654,-0.014269441894531276,0.27157251908396995,0.00010298452332992883,-6.189849155625082e-06,0.06018691568842005
1740926793.7394001,None,None,-0.0074172367431639685,-0.04299986181640625,-0.026137404580152346,9.91432968004727e-05,-6.520416478388473e-06,0.06008214088497174
1740926793.7617521,None,None,0.030889989819335995,0.0096725747070312,0.20287022900763407,0.00011817179086123656,-5.219231134588994e-06,0.06088197236827251
1740926793.7788005,None,None,-0.01699404338378896,-0.026240450195312515,0.11890076335877908,0.00010875490413562854,-5.99618803625084e-06,0.0613502611630465
1740926793.7966695,None,None,-0.024176648364257813,0.021643583007812495,-0.08720610687022878,9.49931830551431e-05,-7.032099540633128e-06,0.0610045004033642
1740926793.8115404,None,None,-0.0074172367431639685,0.028826187988281238,0.15706870229007674,9.113511642177705e-05,-7.39356409140088e-06,0.06162360803501359
1740926793.826091,None,None,0.01413057819824215,0.028826187988281238,0.22577099236641263,0.00010024363819540281,-6.815927552900482e-06,0.06251420999845975
1740926793.8436153,None,None,0.0021595698974610222,-0.16749834814453124,0.07309923664122175,0.00010228740817884029,-6.718133475259376e-06,0.0628019024619518
1740926793.8565834,None,None,-0.005023035083007832,0.13177685937499997,0.10363358778625997,0.00010004228196202013,-6.935994535934229e-06,0.06321026642112401
1740926793.869579,None,None,0.05483200642089847,-0.04060566015625,0.08836641221374109,0.0001340239185388672,-4.519375279948177e-06,0.0635584019629653
1740926793.8819165,None,None,0.028495788159179636,0.019249381347656247,0.1494351145038173,0.00015247645955205716,-3.2456418048661928e-06,0.06414782887913056
1740926793.8943634,None,None,0.05243780476074211,-0.011875240234375029,-0.21697709923664066,0.0001856749949561436,-8.501990485761445e-07,0.0632900101073953
1740926793.907685,None,None,-0.08163748820800776,0.004884171386718705,-1.7131603053435112,0.0001375774142525125,-4.1257175830416606e-06,0.05652205753562184
1740926793.920788,None,None,0.040466796459960985,0.10065223779296872,0.21050381679389352,0.00016354621267353412,-2.351193870901035e-06,0.05735162009833208
1740926793.9401438,None,None,0.03567839313964849,0.10544064111328122,0.24103816793893174,0.00018694218024398757,-7.709293534513243e-07,0.05830195020957505
1740926794.0420406,None,None,-0.052907068286132786,0.04558559960937497,-1.7742290076335872,0.00015598136863018383,-2.877565094681377e-06,0.05129206056490315
1740926794.0601656,None,None,-0.0074172367431639685,0.13177685937499997,2.088366412213741,0.00015376913334637233,-3.2839832329494845e-06,0.059538485138953864
1740926794.0743105,None,None,-0.02896505168457031,-0.05497087011718754,0.012030534351145317,0.00013762255844047388,-4.4712797971282266e-06,0.05958464809234418
1740926794.0896637,None,None,-0.045724463305664154,9.576806640620994e-05,0.25630534351145084,0.00011114903230111552,-6.38911491567585e-06,0.060595728205153236
1740926794.116691,None,None,0.01413057819824215,-0.023846248535156267,0.41661068702290116,0.00012118384685328121,-5.732575768740315e-06,0.06224019639259292
1740926794.1350574,None,None,-0.0074172367431639685,-0.00948103857421878,-1.7589618320610683,0.00011703517687010417,-5.992519468085251e-06,0.055291377445287906
1740926794.1528728,None,None,-0.002628833422851473,0.12698845605468748,0.41661068702290116,0.00011691719966836846,-6.056260341907876e-06,0.05693502427451275
1740926794.166258,None,None,0.02370738483886714,-0.014269441894531276,0.11126717557251942,0.0001328680062457427,-4.988555710863519e-06,0.057372844831165885
1740926794.180401,None,None,-0.019388245043945318,0.11741164941406246,-0.04903816793893068,0.00012234568105585965,-5.758278701344467e-06,0.05717754723310961
1740926794.1959445,None,None,0.01413057819824215,9.576806640620994e-05,0.004396946564885873,0.00013244656807224025,-5.098560886529492e-06,0.057193308664094264
1740926794.2089422,None,None,-0.031359253344726445,-0.052576668457031295,0.027297709923664648,0.0001145629125114279,-6.366668435791155e-06,0.05729955025582877
1740926794.227358,None,None,0.011736376538086013,-0.016663643554687524,-0.06430534351145001,0.00012310703945789072,-5.815203692559631e-06,0.05704399730194696
1740926794.2447422,None,None,0.021313183178711004,0.004884171386718705,-0.20170992366412177,0.00013759749834201695,-4.866939331456844e-06,0.056245675901693416
1740926794.2575884,None,None,-0.033753455004882804,0.007278373046874953,-0.06430534351145001,0.00011817803088495329,-6.230798823500248e-06,0.055989994334275116
1740926794.2752762,None,None,-0.02657085002441395,0.0096725747070312,-0.09483969465648823,0.00010298982743112763,-7.299378808004039e-06,0.05561368323633793
1740926794.2910128,None,None,-0.009811438403320327,9.576806640620994e-05,0.1647022900763364,9.826895997634865e-05,-7.636747968105205e-06,0.05626252188379412
1740926794.3244343,None,None,-0.045724463305664154,-0.05018246679687505,-0.010870229007633014,7.098285144532179e-05,-9.49988681300338e-06,0.0562179759270628
1740926794.3623645,None,None,0.009342174877929654,0.028826187988281238,-0.1635419847328241,7.763280327937396e-05,-9.083498543288152e-06,0.055570393751114486
1740926794.397254,None,None,-0.021782446704101455,-0.016663643554687524,0.1952366412213744,6.520532987950685e-05,-9.918271944415799e-06,0.05633989618493149
1740926794.42464,None,None,-0.005023035083007832,-0.016663643554687524,-0.3085801526717553,6.27137010758402e-05,-1.0124997254541651e-05,0.05511947862737971
1740926794.4401672,None,None,-0.024176648364257813,0.012066776367187504,-1.6902595419847324,4.707346884017134e-05,-1.1328192335223297e-05,0.048441293058462065
1740926794.462003,None,None,0.02370738483886714,0.007278373046874953,-0.04903816793893068,6.266181866152677e-05,-1.0320668990627482e-05,0.048244844037729204
1740926794.4746914,None,None,-0.0385418583251953,0.06713341455078123,-0.178809160305343,3.922633497517865e-05,-1.189850103551943e-05,0.047535806756832645
1740926794.4873421,None,None,-0.002628833422851473,0.0096725747070312,0.05783206106870287,3.8308896295459625e-05,-1.1965944193912361e-05,0.04776141637713845
1740926794.5000458,None,None,0.0021595698974610222,0.10783484277343747,2.088366412213741,4.2050793216095345e-05,-1.1527495173677967e-05,0.056007625001846625
1740926794.512015,None,None,-0.00023463176269533648,-0.011875240234375029,-0.03377099236641179,4.2552326143481324e-05,-1.1504749225694093e-05,0.05587282609135544
1740926794.5395832,None,None,0.011736376538086013,-0.0046926352539062854,0.2334045801526723,5.083057330896384e-05,-1.095291721135978e-05,0.05679335480061191
1740926794.553041,None,None,0.004553771557617159,0.06952761621093748,0.08836641221374109,5.4536816963179135e-05,-1.0711688101559852e-05,0.0571411536286812
1740926794.5665202,None,None,0.021313183178711004,-0.011875240234375029,-0.18644274809160244,6.866160840483503e-05,-9.832026307064684e-06,0.05640354194384325
1740926794.586513,None,None,0.03807259479980463,0.02643198632812499,-0.2933129770992364,9.347224513246716e-05,-8.286227975932005e-06,0.05524369696718861
1740926794.6044552,None,None,-0.012205640063476464,0.014460978027343752,0.03493129770992409,8.693540359004296e-05,-8.713936776062482e-06,0.05538022910122222
1740926794.6199937,None,None,0.03807259479980463,-0.011875240234375029,0.14180152671755764,0.00011234839831886706,-7.0926414249151945e-06,0.05593893295603761
1740926794.6354976,None,None,0.030889989819335995,-0.10524910498046874,-0.21697709923664066,0.0001331654966113393,-5.814881192760493e-06,0.05508059038176637
1740926794.6473427,None,None,-0.02657085002441395,-0.0022984335937500378,0.14180152671755764,0.00011793968852352225,-6.778981819333861e-06,0.0556392788386826
1740926794.6616433,None,None,0.040466796459960985,-0.0046926352539062854,-0.1330076335877859,0.00014504062318205428,-5.103243896059437e-06,0.055112597856678096
1740926794.6833062,None,None,-0.07445488322753913,0.014460978027343752,0.11890076335877908,9.931923009852189e-05,-7.982186954880944e-06,0.05558086804941933
1740926794.7058651,None,None,0.0021595698974610222,0.05037400292968747,-0.12537404580152645,0.0001018392590386524,-7.854284267116116e-06,0.05508436399207603
1740926794.718707,None,None,-0.002628833422851473,-0.016663643554687524,0.06546564885496231,0.00010149906630255927,-7.876774160338645e-06,0.05534159950109704
1740926794.7382991,None,None,0.021313183178711004,-0.026240450195312515,0.1952366412213744,0.00011660939485739818,-6.912478563265147e-06,0.05611147848605192
1740926794.752756,None,None,-0.009811438403320327,0.06713341455078123,-0.03377099236641179,0.00011170189477877459,-7.23447246758523e-06,0.05597693407643892
1740926794.777389,None,None,-0.06487807658691414,0.052768204589843715,-1.8047633587786254,6.970229943723642e-05,-1.0164887919000156e-05,0.04884711123182795
1740926794.8216527,None,None,0.03807259479980463,0.043191397949218724,-0.08720610687022878,9.51050384772688e-05,-8.619089843131202e-06,0.04850037520200434
1740926794.8365135,None,None,0.03567839313964849,0.12220005273437498,-0.1635419847328241,0.0001191605940391042,-7.184531769094749e-06,0.04785209305545124
1740926794.8643441,None,None,0.021313183178711004,0.028826187988281238,1.6990534351145041,0.00013600617132980162,-5.864833072093154e-06,0.05456081868496418
1740926794.879036,None,None,-0.0074172367431639685,0.03840299462890623,2.034931297709924,0.00013480679592703748,-5.565223475054864e-06,0.06259732557135733
1740926794.9016912,None,None,0.028495788159179636,-0.014269441894531276,0.12653435114503853,0.00015488350669253052,-4.310244038415504e-06,0.06309714104934462
1740926794.917713,None,None,0.03567839313964849,0.03600879296874998,2.019664122137405,0.00018171949568926215,-2.257839416079153e-06,0.07107471238566886
1740926794.9356737,None,None,-0.052907068286132786,0.0168551796875,-0.07193893129770945,0.0001493290755531872,-4.2297449582027655e-06,0.0707919265076268
1740926794.9514847,None,None,0.009342174877929654,0.028826187988281238,-1.7665954198473277,0.0001551851952130018,-4.2284868347385294e-06,0.06381536039851275
1740926794.96607,None,None,0.028495788159179636,-0.15313313818359375,1.9967633587786264,0.0001775251138575861,-2.406894802534004e-06,0.07170254188438162
1740926794.9967005,None,None,-0.04811866496582029,-0.016663643554687524,0.2639389312977103,0.00014844497059275224,-4.115661211967912e-06,0.07274650221217434
1740926795.0200942,None,None,-0.02657085002441395,-0.028634651855468762,1.93569465648855,0.00013489096719517137,-4.484545665039287e-06,0.08039386320774437
1740926795.060682,None,None,-0.024176648364257813,-0.03821145849609375,-0.018503816793892902,0.00012058035543663907,-5.35338395006521e-06,0.08032355320150035
1740926795.115454,None,None,0.011736376538086013,0.10783484277343747,0.27157251908396995,0.00012984755419465853,-4.686271207400427e-06,0.08139896601911953
1740926795.132481,None,None,0.11468704792480477,0.031220389648437485,0.1341679389312982,0.00020623657162058734,1.9401635585875366e-07,0.08193178465836555
1740926795.1445775,None,None,-0.005023035083007832,0.13177685937499997,0.09600000000000053,0.00020514877277871086,2.0324380467791773e-07,0.08231389064446822
1740926795.1582355,None,None,0.03328419147949213,-0.12679691992187503,-0.010870229007633014,0.00022898354837063225,1.7772537126380777e-06,0.08227389639094095
1740926795.1716805,None,None,-0.024176648364257813,9.576806640620994e-05,0.17233587786259585,0.00021565012142664105,1.024355283280951e-06,0.08295749931795143
1740926795.1843088,None,None,0.04525519978027348,0.021643583007812495,-0.15590839694656466,0.0002473039673229922,3.0848813992723243e-06,0.08234465102210596
1740926795.1998475,None,None,0.009342174877929654,0.007278373046874953,-1.781862595419847,0.0002537246316952701,3.0634709498752425e-06,0.07530935167641327
1740926795.2137358,None,None,0.03807259479980463,-0.03102885351562501,2.0425648854961835,0.0002838743602555852,5.664321234221081e-06,0.08337889987339994
1740926795.2271366,None,None,0.006947973217773518,0.007278373046874953,-0.24751145038167888,0.0002909213683871991,6.126330252521704e-06,0.08240420388379001
1740926795.24926,None,None,-0.021782446704101455,-0.16749834814453124,0.027297709923664648,0.00027948803716345926,5.447923538704467e-06,0.08251477518117313
1740926795.2624795,None,None,-0.024176648364257813,0.02643198632812499,-0.10247328244274767,0.00026618660609449226,4.592811514465653e-06,0.08211275094722811
1740926795.2776976,None,None,0.004553771557617159,-0.03342305517578126,-0.04140458015267123,0.0002717946433121682,5.00715424238229e-06,0.08195184176369771
1740926795.2962015,None,None,-0.002628833422851473,0.13177685937499997,2.080732824427481,0.00027571726065394567,6.033427485270404e-06,0.09017302662504542
1740926795.31567,None,None,-0.009811438403320327,0.10065223779296872,0.027297709923664648,0.00027195194211231355,5.866275787792564e-06,0.09028470179992934
1740926795.3482466,None,None,-0.005023035083007832,0.12220005273437498,-0.010870229007633014,0.00027126073273119663,5.8881196704788286e-06,0.09024558790533524
1740926795.3774805,None,None,-0.033753455004882804,-0.016663643554687524,-0.10247328244274767,0.00025138379805549006,4.554899462838381e-06,0.08984459962839192
1740926795.4108577,None,None,-0.04093605998535166,0.0024899697265624576,-0.24751145038167888,0.00022632354181888702,2.7859295984685345e-06,0.08887061960495156
1740926795.4434783,None,None,-0.024176648364257813,0.028826187988281238,0.019664122137405204,0.0002125507562782413,1.8747805877123028e-06,0.08895174325116138
1740926795.4711914,None,None,0.0021595698974610222,0.052768204589843715,-1.6978931297709918,0.000213522844735861,1.3308327945424445e-06,0.08224873735886426
1740926795.5010686,None,None,-0.002628833422851473,9.576806640620994e-05,0.1341679389312982,0.00021416272218486353,1.446497248223428e-06,0.08278099040017678
1740926795.5282784,None,None,-0.08882009318847661,0.007278373046874953,0.1494351145038173,0.00015739529878077517,-2.484032545221395e-06,0.08337360011892954
1740926795.5442147,None,None,-0.06487807658691414,-0.12919112158203128,-1.797129770992366,0.00011304552346514158,-6.316800748616414e-06,0.07627763842635762
1740926795.5732465,None,None,-0.024176648364257813,-0.05497087011718754,0.08836641221374109,9.835472820999328e-05,-7.3319181554258915e-06,0.0766279381842298
1740926795.620369,None,None,-0.019388245043945318,0.040797196289062476,-0.12537404580152645,8.63777886523742e-05,-8.239109015882064e-06,0.07613403599800266
1740926795.6503522,None,None,-0.009811438403320327,0.019249381347656247,1.9814961832061073,8.374012046699812e-05,-7.69703119370201e-06,0.08396184694890309
1740926795.6750352,None,None,0.05483200642089847,-0.011875240234375029,-1.6749923664122135,0.00011901941769504104,-5.801912583470887e-06,0.07734833756357493
1740926795.6884396,None,None,-0.005023035083007832,0.0168551796875,0.004396946564885873,0.00011693958599728685,-5.954717682559642e-06,0.0773670629358052
1740926795.7202318,None,None,-0.033753455004882804,0.004884171386718705,0.004396946564885873,9.55371568996351e-05,-7.4982479771151596e-06,0.07738577339847831
1740926795.7329,None,None,-0.021782446704101455,0.11022904443359371,-0.06430534351145001,8.185612566227968e-05,-8.515393583269763e-06,0.0771331071459931
1740926795.7466912,None,None,-0.005023035083007832,0.007278373046874953,2.088366412213741,8.217093314250476e-05,-7.76887355543872e-06,0.08538308519915921
1740926795.762238,None,None,-0.052907068286132786,0.021643583007812495,0.25630534351145084,4.771256450236886e-05,-1.0199509648943607e-05,0.08639802130746331
1740926795.7795887,None,None,0.028495788159179636,-0.00948103857421878,1.9662290076335882,6.99191085666769e-05,-7.948341475015415e-06,0.09416700200946926
1740926795.792254,None,None,0.011736376538086013,0.0024899697265624576,0.21813740458015318,7.872916912529555e-05,-7.265568584996226e-06,0.09503251726451083
1740926795.8267698,None,None,-0.0074172367431639685,0.024037784667968742,-0.026137404580152346,7.436192796347931e-05,-7.628988795589691e-06,0.0949332761541984
1740926795.8430905,None,None,-0.02896505168457031,0.014460978027343752,0.004396946564885873,5.540549159852819e-05,-9.070537233623518e-06,0.09495457341750042
1740926795.8575962,None,None,-0.03614765666503916,-0.03342305517578126,-0.1330076335877859,3.123094879767681e-05,-1.0961716868288074e-05,0.09443309951512857
1740926795.8713582,None,None,0.018918981518554645,0.03361459130859373,0.012030534351145317,4.42755848977929e-05,-1.0024757724201394e-05,0.09448437016262146
1740926795.8909664,None,None,-0.03614765666503916,-0.145950533203125,0.22577099236641263,2.031410752679635e-05,-1.181578528532892e-05,0.09537983744305435
1740926795.9037883,None,None,0.0261015864990235,0.02643198632812499,-0.14064122137404533,3.796222557011353e-05,-1.0563601804981916e-05,0.09482813802807431
1740926795.9283307,None,None,-0.00023463176269533648,-0.016663643554687524,0.05783206106870287,3.8069885349737e-05,-1.0582402753663895e-05,0.09506023595358767
1740926795.9406605,None,None,-0.01699404338378896,0.028826187988281238,-0.010870229007633014,2.6692133813264846e-05,-1.1504631047371291e-05,0.09502096201519664
1740926795.9646256,None,None,0.018918981518554645,0.0168551796875,2.0654656488549623,4.155118561204288e-05,-9.863212913940981e-06,0.10318278980278868
1740926795.989007,None,None,-0.021782446704101455,-0.007086836914062533,1.950961832061069,2.8584769156622084e-05,-1.0441829384203438e-05,0.11089360215152498
1740926796.0203767,None,None,-0.024176648364257813,-0.14116212988281251,-0.09483969465648823,1.1993536639384385e-05,-1.1852347636560078e-05,0.11052503820993317
1740926796.0489855,None,None,0.018918981518554645,-0.1603157431640625,0.15706870229007674,2.4861652763441263e-05,-1.0878280074909716e-05,0.11115133193763418
1740926796.0696843,None,None,-0.02657085002441395,-0.011875240234375029,0.07309923664122175,6.673754493725467e-06,-1.2399837360058543e-05,0.11144598543889886
1740926796.0969226,None,None,-0.06008967326660164,0.012066776367187504,0.10363358778625997,-3.460771397073251e-05,-1.5809926305391658e-05,0.11186121476071272
1740926796.113768,None,None,0.028495788159179636,-0.007086836914062533,2.0425648854961835,-1.4316383667718408e-05,-1.3849021514605932e-05,0.11993485405015003
1740926796.1293402,None,None,-0.021782446704101455,0.004884171386718705,0.25630534351145084,-2.9578074603437455e-05,-1.5181400062716318e-05,0.1209543148917489
1740926796.1440256,None,None,-0.019388245043945318,0.014460978027343752,-0.17117557251908355,-4.3625755704748036e-05,-1.6516990343268973e-05,0.12028537929343242
1740926796.162704,None,None,-0.009811438403320327,9.576806640620994e-05,0.012030534351145317,-5.113468766402506e-05,-1.7283758088413754e-05,0.12033987539048141
1740926796.2112637,None,None,-0.012205640063476464,0.12698845605468748,0.019664122137405204,-6.037272300513102e-05,-1.8203931669770742e-05,0.1204244426547939
1740926796.2269306,None,None,0.0021595698974610222,-0.1698925498046875,-0.03377099236641179,-5.985906671729344e-05,-1.830300519223599e-05,0.1202978777135965
1740926796.2512975,None,None,0.01413057819824215,0.03840299462890623,-0.018503816793892902,-5.111047288462058e-05,-1.7678410116020055e-05,0.12023150858506625
1740926796.283144,None,None,-0.07206068156738277,0.12220005273437498,0.03493129770992409,-0.0001016663739717357,-2.2224181575366338e-05,0.12037609949252094
1740926796.3116164,None,None,0.01413057819824215,0.02643198632812499,-0.06430534351145001,-9.329201701303589e-05,-2.1642080599162568e-05,0.12012866633860278
1740926796.3297474,None,None,-0.014599841723632823,0.004884171386718705,2.057832061068703,-0.00010417944706632788,-2.2557748403696025e-05,0.12826313515774512
1740926796.3458068,None,None,-0.002628833422851473,0.004884171386718705,-1.7665954198473277,-0.0001077403834692355,-2.3197589103536835e-05,0.12129308695981163
1740926796.3657966,None,None,-0.02896505168457031,-0.016663643554687524,-0.0795725190839689,-0.00012924395581418973,-2.5297211463003814e-05,0.12098523452131207
1740926796.3802793,None,None,-0.01699404338378896,-0.007086836914062533,0.2334045801526723,-0.00014264931815917835,-2.6659741541907292e-05,0.12191344849117922
1740926796.3933396,None,None,-0.014599841723632823,0.004884171386718705,0.08836641221374109,-0.00015455254940835423,-2.790931705446133e-05,0.12226885867733854
1740926796.414943,None,None,-0.0385418583251953,-0.11243170996093754,0.2334045801526723,-0.00018319645706458808,-3.0725721899847586e-05,0.123197115350388
1740926796.4273157,None,None,0.006947973217773518,-0.05018246679687505,0.10363358778625997,-0.00018054943955334214,-3.064957691852755e-05,0.1236128713928299
1740926796.4459343,None,None,-0.0385418583251953,0.004884171386718705,-0.0032366412213735707,-0.00020948262038819786,-3.3550616804207464e-05,0.12360649522137651
1740926796.4582176,None,None,-0.014599841723632823,-0.05736507177734379,0.0807328244274812,-0.0002220729951415694,-3.4928177822327875e-05,0.12393169945455686
1740926796.4909947,None,None,0.011736376538086013,9.576806640620994e-05,-0.15590839694656466,-0.00021640012984537837,-3.4555237656408046e-05,0.1233221916098582
1740926796.5054073,None,None,0.03328419147949213,-0.014269441894531276,-0.04903816793893068,-0.0001957253179974816,-3.2717222206217536e-05,0.12313462240216519
1740926796.5308042,None,None,-0.031359253344726445,0.014460978027343752,2.0960000000000005,-0.00022092907351655756,-3.5467643853642234e-05,0.13141940033213062
1740926796.599183,None,None,-0.019388245043945318,-0.00948103857421878,-0.11774045801526656,-0.00023697087534539825,-3.723125537817338e-05,0.13096160957370886
1740926796.615256,None,None,-0.00023463176269533648,0.0024899697265624576,-0.0795725190839689,-0.00023981581778042695,-3.770298392474553e-05,0.1306544093772382
1740926796.6438885,None,None,0.018918981518554645,0.11501744775390621,0.11890076335877908,-0.0002294464847127714,-3.687215311385277e-05,0.1311309983156726
1740926796.6603894,None,None,0.03567839313964849,0.03361459130859373,0.12653435114503853,-0.00020729243636558888,-3.483822436653636e-05,0.13163772636892052
1740926796.6824267,None,None,-0.02657085002441395,0.043191397949218724,0.11126717557251942,-0.00022852884835271152,-3.716567769565009e-05,0.1320841432992983
1740926796.6945019,None,None,-0.00023463176269533648,0.03840299462890623,-1.797129770992366,-0.0002299234912672301,-3.7183286890676376e-05,0.12499278105890275
1740926796.7120216,None,None,0.03328419147949213,0.06234501123046873,0.09600000000000053,-0.00020946737188082756,-3.521856620390284e-05,0.1253776592860994
1740926796.7244437,None,None,-0.012205640063476464,0.08389282617187496,-0.11010687022900711,-0.0002205808780700932,-3.645448802029247e-05,0.12494844729007894
1740926796.7367866,None,None,0.006947973217773518,0.05037400292968747,2.050198473282443,-0.00022050051519439416,-3.696156578395665e-05,0.1330518373222333
1740926796.766428,None,None,-0.045724463305664154,-0.11482591162109379,-0.04903816793893068,-0.000255318428440462,-4.0737927946930714e-05,0.13286491642653234
1740926796.779078,None,None,-0.021782446704101455,0.024037784667968742,0.14180152671755764,-0.00027381442259259594,-4.287252617024483e-05,0.1334316557516355
1740926796.793642,None,None,-0.005023035083007832,0.0024899697265624576,0.34027480916030584,-0.0002809179219021722,-4.38659732298826e-05,0.13478232773707652
1740926796.8153403,None,None,0.0261015864990235,-0.1722867514648438,-0.14827480916030478,-0.0002655735477762523,-4.234793302977706e-05,0.13420346679040535
1740926796.8363023,None,None,-0.031359253344726445,0.004884171386718705,-0.010870229007633014,-0.00029081418798076027,-4.520548650201631e-05,0.1341671437727094
1740926796.8492243,None,None,-0.002628833422851473,0.13177685937499997,0.06546564885496231,-0.0002961034407148432,-4.594479115612116e-05,0.13443224155295005
1740926796.8614857,None,None,0.03567839313964849,0.031220389648437485,0.03493129770992409,-0.0002743434318489328,-4.372405168888218e-05,0.13457669564969393
1740926796.8914344,None,None,0.04286099812011712,0.08389282617187496,0.07309923664122175,-0.00024738400768536066,-4.0910998488200934e-05,0.13487184546867934
1740926796.9052958,None,None,-0.03614765666503916,0.05037400292968747,-0.07193893129770945,-0.0002759053741826885,-4.4148224343078136e-05,0.13459409024544275
1740926796.9205348,None,None,-0.02896505168457031,0.03840299462890623,-0.10247328244274767,-0.0002995440325430764,-4.6857494595663974e-05,0.1341956057317082
1740926796.9341884,None,None,0.030889989819335995,-0.0046926352539062854,-0.12537404580152645,-0.0002809243457055273,-4.484834844365705e-05,0.13370652644410305
1740926796.9610627,None,None,-0.002628833422851473,0.12698845605468748,-0.08720610687022878,-0.0002859969889916018,-4.54872552358762e-05,0.13336804530903476
1740926796.9790697,None,None,0.16257108112792973,0.12220005273437498,-0.08720610687022878,-0.00017381291552553675,-3.285866277925533e-05,0.13302943805477305
1740926796.9915614,None,None,0.040466796459960985,0.019249381347656247,0.012030534351145317,-0.00014762029571536043,-2.9924744794673015e-05,0.13308266214357137
1740926797.0066762,None,None,0.006947973217773518,9.576806640620994e-05,0.09600000000000053,-0.0001451833998338609,-2.9708235465320186e-05,0.13346748185314405
1740926797.0214076,None,None,-0.019388245043945318,-0.13876792822265627,-0.11010687022900711,-0.00016111300783915104,-3.152191834586699e-05,0.13303821519220693
1740926797.044169,None,None,0.040466796459960985,0.10544064111328122,0.33264122137404617,-0.0001352925523808427,-2.8690983977696816e-05,0.13435756418992797
1740926797.0566585,None,None,-0.0074172367431639685,0.09346963281249998,-0.14827480916030478,-0.0001425502905674524,-2.949466785296405e-05,0.13377754411022225
1740926797.082319,None,None,0.03328419147949213,0.004884171386718705,0.004396946564885873,-0.00012108582731612163,-2.7009690098282747e-05,0.13380037929115418
1740926797.095045,None,None,-0.021782446704101455,0.031220389648437485,-1.6368244274809154,-0.00013592977499428554,-2.8138721382633517e-05,0.12734069865393233
1740926797.107618,None,None,-0.0074172367431639685,0.09825803613281248,-0.2627786259541982,-0.00014305214387920747,-2.8875852104604142e-05,0.12630708361382464
1740926797.1316493,None,None,0.018918981518554645,-0.00948103857421878,-0.018503816793892902,-0.00013181736858320313,-2.7540932817590993e-05,0.12623807869091094
1740926797.1447804,None,None,-0.09360849650878911,-0.14834473486328126,0.07309923664122175,-0.00020120194079917722,-3.5773337600110164e-05,0.1265308192272896
1740926797.1657245,None,None,-0.07684908488769526,0.02643198632812499,0.21813740458015318,-0.0002594069911581841,-4.27720533433899e-05,0.12739642302147028
1740926797.1798518,None,None,-0.024176648364257813,0.06234501123046873,0.12653435114503853,-0.0002801610890108957,-4.530940708748255e-05,0.12790030442378536
1740926797.199872,None,None,0.1817246944091797,-0.1028549033203125,-0.07193893129770945,-0.0001529491226696412,-3.009987118072569e-05,0.12762029558147134
1740926797.2146397,None,None,-0.009811438403320327,-0.0046926352539062854,0.21050381679389352,-0.00016276399369914832,-3.135469580215107e-05,0.12845576804839393
1740926797.2270339,None,None,-0.045724463305664154,0.004884171386718705,0.20287022900763407,-0.00019844643020006057,-3.572285033057364e-05,0.12926117095434156
1740926797.2411494,None,None,-0.02657085002441395,-0.014269441894531276,-0.09483969465648823,-0.00022008705366995408,-3.829675531040517e-05,0.1288907661947835
1740926797.2545068,None,None,0.011736376538086013,-0.16749834814453124,2.050198473282443,-0.00021827348875279315,-3.892731411756394e-05,0.13699264678896345
1740926797.267949,None,None,-0.021782446704101455,0.13177685937499997,-0.23224427480916,-0.00023629890288462166,-4.10439684937385e-05,0.13608065733740607
1740926797.2806592,None,None,-0.01699404338378896,0.043191397949218724,-0.178809160305343,-0.00025112017841188235,-4.280040401526832e-05,0.13537951074819846
1740926797.292795,None,None,0.04764940144042962,0.040797196289062476,0.24103816793893174,-0.00022020003140544868,-3.913550533346985e-05,0.1363364864121864
1740926797.3055768,None,None,-0.021782446704101455,-0.028634651855468762,-0.026137404580152346,-0.0002386559259214926,-4.14083231083721e-05,0.13623827034267008
1740926797.319255,None,None,-0.01699404338378896,-0.047788265136718744,0.05783206106870287,-0.000253956685410994,-4.333886660716269e-05,0.13647163428030598
1740926797.3317819,None,None,-0.043330261645507795,0.10304643945312497,-0.11010687022900711,-0.0002881039842654796,-4.7542950540793286e-05,0.13604165319625727
1740926797.3438954,None,None,-0.045724463305664154,0.03840299462890623,2.080732824427481,-0.0003285514093867446,-5.352014077760008e-05,0.14426483472672547
1740926797.3560574,None,None,0.03328419147949213,0.004884171386718705,2.034931297709924,-0.000311960578073389,-5.242236097245139e-05,0.1523083660044923
1740926797.3691428,None,None,-0.00023463176269533648,0.04558559960937497,0.11890076335877908,-0.0003156386572114877,-5.3021000629983146e-05,0.15278524321340095
1740926797.381717,None,None,0.04525519978027348,0.031220389648437485,-0.010870229007633014,-0.00028606852526571796,-4.9351029212812334e-05,0.15274954139361552
1740926797.4093678,None,None,-0.0074172367431639685,0.024037784667968742,-0.21697709923664066,-0.0002940823420893587,-5.0329940731377805e-05,0.15189966793076892
1740926797.4242918,None,None,0.01652477985839851,0.012066776367187504,0.10363358778625997,-0.0002854277392173872,-4.9324983003772224e-05,0.15231590349719148
1740926797.436431,None,None,-0.03614765666503916,-0.0046926352539062854,0.03493129770992409,-0.00031485585744661047,-5.318073934234434e-05,0.1524607587804597
1740926797.4526274,None,None,0.030889989819335995,0.13177685937499997,-1.7207938931297706,-0.0002920288547781912,-4.946519379090797e-05,0.14567086222506415
1740926797.4646645,None,None,-0.03614765666503916,0.028826187988281238,-0.17117557251908355,-0.0003211788580692658,-5.319939980879037e-05,0.145000408494407
1740926797.4778748,None,None,0.0021595698974610222,0.004884171386718705,0.0807328244274812,-0.00032318118086584023,-5.35269272929781e-05,0.1453247538432128
1740926797.493686,None,None,-0.014599841723632823,-0.016663643554687524,-1.8047633587786254,-0.0003333403362619802,-5.400574084660579e-05,0.1382018302971678
1740926797.5059433,None,None,0.02370738483886714,0.014460978027343752,-0.11010687022900711,-0.0003193618123747847,-5.2111138339874024e-05,0.13777118004627922
1740926797.5186453,None,None,0.01413057819824215,0.028826187988281238,0.004396946564885873,-0.00031251508752317065,-5.120294543541949e-05,0.13779266878244417
1740926797.532602,None,None,-0.019388245043945318,0.11741164941406246,0.40134351145038205,-0.00033098829951922566,-5.3837980122353205e-05,0.139381949148818
1740926797.5454836,None,None,0.01413057819824215,0.012066776367187504,0.03493129770992409,-0.0003242468907304738,-5.295695235418466e-05,0.13952419442407837
1740926797.558017,None,None,-0.024176648364257813,-0.13876792822265627,0.14180152671755764,-0.00034572899368848133,-5.588086196135049e-05,0.14008851790813376
1740926797.5740733,None,None,-0.04093605998535166,-0.0046926352539062854,-0.08720610687022878,-0.0003791297759499938,-6.028968876988703e-05,0.13974835326589127
1740926797.5876746,None,None,0.011736376538086013,0.007278373046874953,0.12653435114503853,-0.00037466039110564756,-5.9754119085928446e-05,0.14025230372437306
1740926797.6006086,None,None,0.18411889606933585,-0.007086836914062533,0.14180152671755764,-0.00024368576495406986,-4.224621482663099e-05,0.14081658934062627
1740926797.6171336,None,None,0.009342174877929654,9.576806640620994e-05,0.09600000000000053,-0.0002398911998228586,-4.1763160632260666e-05,0.14120000076480094
1740926797.6392713,None,None,0.15778267780761723,-0.028634651855468762,0.1341679389312982,-0.00012703971793617103,-2.657779348113271e-05,0.14173417896361723
1740926797.6528254,None,None,-0.005023035083007832,-0.15552733984375,0.2639389312977103,-0.0001332853440265067,-2.7519686448302506e-05,0.1427809456494536
1740926797.6698673,None,None,0.009342174877929654,-0.04060566015625,-0.018503816793892902,-0.00012832611744890713,-2.6797602108068053e-05,0.14271224722132705
1740926797.6831727,None,None,-0.0074172367431639685,-0.00948103857421878,-0.08720610687022878,-0.00013549197418083117,-2.7689820751653478e-05,0.1423721244290901
1740926797.696909,None,None,-0.07684908488769526,-0.0022984335937500378,-0.0795725190839689,-0.00019388277655981944,-3.558459716385619e-05,0.14206204029669106
1740926797.7133741,None,None,-0.009811438403320327,-0.1507389365234375,2.019664122137405,-0.00020774021235439976,-3.8449563453846146e-05,0.15004331565882917
1740926797.7310157,None,None,0.16975368610839836,0.007278373046874953,0.027297709923664648,-8.479905038714767e-05,-2.1543597611583185e-05,0.15015647339912744
1740926797.750034,None,None,-0.03614765666503916,0.014460978027343752,0.027297709923664648,-0.00011295841304740975,-2.5381543788305034e-05,0.15026957262320578
1740926797.7645464,None,None,0.0021595698974610222,-0.007086836914062533,0.042564885496183535,-0.0001130177210475543,-2.535940111114939e-05,0.15044292590369968
1740926797.7793777,None,None,-0.009811438403320327,-0.04299986181640625,-1.7131603053435112,-0.00011841476566334026,-2.5259576291980282e-05,0.14368156689869757
1740926797.79274,None,None,-0.01699404338378896,0.11262324609374996,0.004396946564885873,-0.00013261826131853082,-2.7202762853486226e-05,0.14370297934520793
1740926797.804821,None,None,0.04764940144042962,-0.028634651855468762,-0.18644274809160244,-9.865149459770044e-05,-2.234099504001157e-05,0.14297057810740066
1740926797.8235667,None,None,-0.021782446704101455,-0.011875240234375029,0.0807328244274812,-0.00011637306050337879,-2.4821306863358805e-05,0.14329328164739671
1740926797.8438392,None,None,-0.062483874926757776,0.012066776367187504,-0.1635419847328241,-0.00016393960643144403,-3.138762880052203e-05,0.1426511623212793
1740926797.8556788,None,None,0.02370738483886714,-0.0022984335937500378,-0.09483969465648823,-0.00014799588714339978,-2.9075491359918318e-05,0.1422802525305404
1740926797.8677495,None,None,0.004553771557617159,-0.028634651855468762,-0.04140458015267123,-0.00014623187821758267,-2.8779636867427996e-05,0.142120290788676
1740926797.8818748,None,None,0.0021595698974610222,0.012066776367187504,-0.07193893129770945,-0.00014615548491006195,-2.870940532456587e-05,0.14183965493029485
1740926797.893991,None,None,-0.024176648364257813,-0.01905784521484377,-0.03377099236641179,-0.0001657136617759467,-3.143351391841606e-05,0.14170968186929558
1740926797.9063158,None,None,-0.014599841723632823,-0.028634651855468762,0.10363358778625997,-0.0001785000443474033,-3.326144998793805e-05,0.14212235819694077
1740926797.920517,None,None,0.021313183178711004,-0.13397952490234377,0.21813740458015318,-0.00016478846900736855,-3.137775264962839e-05,0.14298732073455458
1740926797.932107,None,None,-0.0074172367431639685,-0.145950533203125,0.1341679389312982,-0.00017221496064055347,-3.2461751109954154e-05,0.14352071902244729
1740926797.943821,None,None,-0.00023463176269533648,-0.007086836914062533,0.31737404580152706,-0.00017460294493256562,-3.2903096617076786e-05,0.1447777761382674
1740926797.9894319,None,None,-0.02657085002441395,-0.05736507177734379,-0.09483969465648823,-0.00019597056543445103,-3.589091541435533e-05,0.14440684917747296
1740926798.0015252,None,None,-0.0983968998291016,0.004884171386718705,0.11126717557251942,-0.0002714710657203756,-4.6717545241968254e-05,0.14484988123391135
1740926798.014918,None,None,0.009342174877929654,0.09825803613281248,0.05019847328244298,-0.00026687732293014996,-4.605630457793945e-05,0.1450517397023007
1740926798.0386946,None,None,-0.024176648364257813,0.019249381347656247,-0.026137404580152346,-0.0002871891286538516,-4.8943323712263614e-05,0.1449520755824454
1740926798.0578852,None,None,-0.043330261645507795,0.04797980126953122,0.06546564885496231,-0.0003221261111297471,-5.397913368470665e-05,0.14521415733316304
1740926798.0718257,None,None,-0.045724463305664154,-0.014269441894531276,-0.11774045801526656,-0.00035881742898582385,-5.9206802733194534e-05,0.14475261915476786
1740926798.0915315,None,None,-0.01699404338378896,0.07431601953124997,-0.18644274809160244,-0.0003741300268607494,-6.132433481875651e-05,0.14401960809944064
1740926798.1074922,None,None,0.040466796459960985,9.576806640620994e-05,0.11126717557251942,-0.0003469288420575435,-5.740375843212031e-05,0.144462318018309
1740926798.1224751,None,None,-0.01699404338378896,0.0096725747070312,-0.010870229007633014,-0.0003624516049922057,-5.9626961943363026e-05,0.14442264243826264
1740926798.1381674,None,None,0.02370738483886714,0.12220005273437498,-0.1330076335877859,-0.0003473029304566963,-5.734472089948939e-05,0.14390051072900967
1740926798.1577973,None,None,-0.04093605998535166,0.03840299462890623,-1.7742290076335872,-0.0003779042595778395,-6.104464757964988e-05,0.13689585036705193
1740926798.170691,None,None,-0.009811438403320327,-0.0046926352539062854,0.27157251908396995,-0.0003887847106073068,-6.26929807622081e-05,0.1379704191376667
1740926798.1826177,None,None,-0.05051286662597665,0.03361459130859373,2.019664122137405,-0.00043334973214459964,-6.998728425016498e-05,0.14594964059609292
1740926798.1963644,None,None,0.02370738483886714,-0.03821145849609375,-1.7436946564885494,-0.00041580311523519326,-6.666348555893363e-05,0.1390658267917855
1740926798.2080934,None,None,0.01652477985839851,0.004884171386718705,-1.797129770992366,-0.0004034700196994198,-6.404413023755068e-05,0.13196981475693542
1740926798.220074,None,None,0.009342174877929654,-0.0022984335937500378,0.1952366412213744,-0.00040002067062498573,-6.355444890738352e-05,0.1327419689252027
1740926798.239109,None,None,-0.02657085002441395,-0.014269441894531276,-0.1330076335877859,-0.0004230587137715737,-6.679935399705569e-05,0.1322177513023044
1740926798.2520761,None,None,-0.012205640063476464,0.014460978027343752,-1.7513282442748088,-0.0004324786423684247,-6.733399097162511e-05,0.1253014920784869
1740926798.2753937,None,None,0.01413057819824215,-0.02145204687500002,0.48531297709923704,-0.0004261880877091261,-6.653227637407214e-05,0.1272182653477253
1740926798.2924387,None,None,0.01652477985839851,0.12698845605468748,0.21050381679389352,-0.0004175113907881231,-6.527285097248705e-05,0.1280499219884651
1740926798.3058383,None,None,0.01413057819824215,0.0096725747070312,-0.20934351145038121,-0.0004097808343284817,-6.39699179698713e-05,0.12722342141269316
1740926798.322625,None,None,-0.052907068286132786,0.007278373046874953,0.21813740458015318,-0.00045358876393301396,-7.037569904281294e-05,0.12808521619163035
1740926798.3340268,None,None,0.0021595698974610222,0.06473921289062498,0.1647022900763364,-0.000455856936457637,-7.069313810170494e-05,0.12873609616608217
1740926798.3454626,None,None,-0.014599841723632823,0.021643583007812495,0.15706870229007674,-0.0004708332622604411,-7.286108440617235e-05,0.12935692360627576
1740926798.3622622,None,None,-0.012205640063476464,-0.165104146484375,-0.07193893129770945,-0.00048364360264281875,-7.460468910651959e-05,0.12907332476099834
1740926798.3736463,None,None,-0.06487807658691414,-0.15792154150390625,-1.8047633587786254,-0.0005331109940836184,-8.08461318299278e-05,0.1219454674679948
1740926798.3854759,None,None,-0.005023035083007832,-0.011875240234375029,-0.20170992366412177,-0.0005407018691826711,-8.171104953295921e-05,0.12114810946951615
1740926798.4023502,None,None,0.009342174877929654,-0.12440271826171878,-0.07193893129770945,-0.000537688684883682,-8.109453984251248e-05,0.12086319496733947
1740926798.4160268,None,None,0.006947973217773518,-0.0022984335937500378,-0.04140458015267123,-0.0005365400528684807,-8.076665676062381e-05,0.1206988471979909
1740926798.4332528,None,None,-0.0074172367431639685,0.0096725747070312,-0.08720610687022878,-0.0005462287299440339,-8.19853448986288e-05,0.12035357812105275
1740926798.4491658,None,None,-0.005023035083007832,0.028826187988281238,-0.09483969465648823,-0.0005541450387283668,-8.29385072117671e-05,0.11997811394432294
1740926798.4649093,None,None,-0.0385418583251953,0.007278373046874953,0.14180152671755764,-0.0005882187107317159,-8.778180370768102e-05,0.12053726780914814
1740926798.4812539,None,None,0.1865130977294922,0.004884171386718705,-0.08720610687022878,-0.00045017498419432306,-6.7714747927636e-05,0.12019202601770897
1740926798.49311,None,None,-0.04093605998535166,-0.007086836914062533,0.08836641221374109,-0.0004853060739801887,-7.272188380546833e-05,0.12054018107667071
1740926798.504729,None,None,0.02370738483886714,-0.13637372656250002,-1.6597251908396942,-0.00046726125335823875,-6.91330137582832e-05,0.11398391052172367
1740926798.51625,None,None,0.006947973217773518,0.04558559960937497,-0.09483969465648823,-0.0004655402917847238,-6.87243180658958e-05,0.1136074830410294
1740926798.542516,None,None,0.009342174877929654,-0.00948103857421878,-1.781862595419847,-0.00045807805288098914,-6.657397777973809e-05,0.10656772593127792
1740926798.5613332,None,None,-0.05769547160644528,-0.014269441894531276,0.027297709923664648,-0.0005061628568693039,-7.331452882214257e-05,0.10667256273449453
1740926798.5726528,None,None,0.009342174877929654,-0.02145204687500002,-0.27041221374045765,-0.0005024825205831072,-7.249391583026084e-05,0.10560158639894128
1740926798.5840213,None,None,0.05243780476074211,-0.035817256835937505,-0.010870229007633014,-0.0004663050483390535,-6.722667955121236e-05,0.10555560258989156
1740926798.6017096,None,None,-0.02896505168457031,0.0024899697265624576,2.080732824427481,-0.0004972713574008946,-7.265209984152091e-05,0.1137709167248939
1740926798.6130273,None,None,0.006947973217773518,0.0168551796875,-0.11010687022900711,-0.0004955908516541619,-7.224833575561688e-05,0.11333435371172425
1740926798.6255574,None,None,-0.0074172367431639685,-0.016663643554687524,-0.11010687022900711,-0.0005049314624231909,-7.339437056277237e-05,0.11289774050503626
1740926798.6406827,None,None,0.0021595698974610222,0.012066776367187504,0.05783206106870287,-0.0005073561079904078,-7.366227909589102e-05,0.1131243944606604
1740926798.652997,None,None,-0.02657085002441395,0.024037784667968742,-0.0795725190839689,-0.000531573676986104,-7.68984307618938e-05,0.1128083923756883
1740926798.6682637,None,None,0.01652477985839851,-0.13876792822265627,0.03493129770992409,-0.0005230177675736053,-7.561358929869254e-05,0.11294462609573792
1740926798.6846695,None,None,0.01652477985839851,0.004884171386718705,0.11890076335877908,-0.0005145847637428539,-7.440588906340455e-05,0.11341256065079963
1740926798.7000427,None,None,0.0021595698974610222,0.02643198632812499,0.042564885496183535,-0.0005169666821346621,-7.466644054670237e-05,0.11357908355589488
1740926798.7187088,None,None,0.0261015864990235,0.03840299462890623,0.10363358778625997,-0.0005010048854737901,-7.242273987861597e-05,0.11398686135725034
1740926798.7428296,None,None,-0.019388245043945318,-0.00948103857421878,0.11126717557251942,-0.0005200715395680414,-7.504476899208816e-05,0.11442486912144043
1740926798.7583237,None,None,-0.014599841723632823,0.04558559960937497,0.15706870229007674,-0.0005356578292751143,-7.720440987090301e-05,0.11504386993240183
1740926798.7801642,None,None,-0.031359253344726445,-0.165104146484375,0.09600000000000053,-0.000564146636112134,-8.110028892222647e-05,0.1154217801724232
1740926798.7939916,None,None,-0.019388245043945318,-0.052576668457031295,-0.0795725190839689,-0.000583114539541487,-8.356555612927066e-05,0.11510630410649535
1740926798.8093905,None,None,0.03328419147949213,0.05037400292968747,0.042564885496183535,-0.0005616991549111881,-8.05465274990152e-05,0.11527320930890467
1740926798.8267493,None,None,-0.01699404338378896,0.019249381347656247,-0.11774045801526656,-0.0005786929411924438,-8.27143220517948e-05,0.11480698722779012
1740926798.8397686,None,None,0.021313183178711004,0.05037400292968747,0.11890076335877908,-0.000566671012816025,-8.10450831940252e-05,0.11527537969081073
1740926798.8537474,None,None,0.01652477985839851,0.014460978027343752,0.012030534351145317,-0.0005579879550393171,-7.977803444320489e-05,0.11532175353128757
1740926798.8660226,None,None,-0.0074172367431639685,-0.007086836914062533,-0.1330076335877859,-0.0005674543250383435,-8.090577076994464e-05,0.11479528451751862
1740926798.8781345,None,None,0.18411889606933585,-0.01905784521484377,0.08836641221374109,-0.00042864551308139645,-6.196081058740968e-05,0.11514313890892713
1740926798.8944027,None,None,0.030889989819335995,0.052768204589843715,-0.19407633587786233,-0.00040729868535691234,-5.890832551152226e-05,0.11437547079302314
1740926798.9169567,None,None,-0.08882009318847661,0.0168551796875,0.027297709923664648,-0.000479507082393643,-6.871690606548368e-05,0.11448204567591816
1740926798.9462984,None,None,-0.05051286662597665,0.04558559960937497,-0.010870229007633014,-0.0005222541839886884,-7.446345462248638e-05,0.11443790551574265
1740926798.960998,None,None,-0.03614765666503916,0.031220389648437485,0.042564885496183535,-0.0005542091858904043,-7.875762780612677e-05,0.11460482981592454
1740926798.9826236,None,None,-0.04811866496582029,0.03840299462890623,-1.7742290076335872,-0.0005911945234664482,-8.258746030085173e-05,0.1075959499925858
1740926799.002506,None,None,-0.019388245043945318,0.021643583007812495,0.03493129770992409,-0.0006105752352090921,-8.512047671579282e-05,0.10773166128898982
1740926799.0427172,None,None,-0.012205640063476464,0.13177685937499997,-0.0032366412213735707,-0.0006243677133506124,-8.68656901340592e-05,0.10771667099589195
1740926799.0567634,None,None,-0.033753455004882804,0.014460978027343752,1.9814961832061073,-0.000660082698463289,-9.280219937272537e-05,0.11554085997435244
1740926799.0803046,None,None,-0.0385418583251953,-0.03102885351562501,0.1952366412213744,-0.0006951695448643071,-9.753603139706525e-05,0.11631108672390324
1740926799.1156523,None,None,0.021313183178711004,0.03600879296874998,-0.010870229007633014,-0.0006831233291480514,-9.58175248554589e-05,0.11626739053722426
1740926799.13737,None,None,-0.009811438403320327,0.13177685937499997,0.0807328244274812,-0.0006955895162670344,-9.744390306020518e-05,0.11658549976318267
1740926799.1503928,None,None,0.006947973217773518,-0.13876792822265627,-0.10247328244274767,-0.0006945190637147474,-9.714041964370844e-05,0.11618005767975471
1740926799.1677687,None,None,-0.02896505168457031,0.059950809570312485,-0.07193893129770945,-0.0007216660372395705,-0.00010062173499370054,0.11589515679456507
1740926799.1922557,None,None,0.05243780476074211,0.03600879296874998,-0.06430534351145001,-0.0006851622188433356,-9.561527061409293e-05,0.1156403826132953
1740926799.2051954,None,None,0.0021595698974610222,-0.0046926352539062854,0.37080916030534383,-0.0006890315810002582,-9.629349643412025e-05,0.11710415409211611
1740926799.2222016,None,None,-0.02657085002441395,-0.14834473486328126,-0.010870229007633014,-0.000714425925161891,-9.95819284495255e-05,0.11706063627156064
1740926799.2388976,None,None,0.009342174877929654,0.004884171386718705,0.15706870229007674,-0.0007122190239894149,-9.931070738728506e-05,0.11768043729527644
1740926799.265335,None,None,0.03328419147949213,-0.014269441894531276,-1.7742290076335872,-0.0006858269440233997,-9.450451520502766e-05,0.11067224926741379
1740926799.27873,None,None,-0.021782446704101455,-0.0046926352539062854,-0.06430534351145001,-0.0007073819986314771,-9.721884772910705e-05,0.1104166697005945
1740926799.2982557,None,None,0.04286099812011712,-0.016663643554687524,0.012030534351145317,-0.0006783890319225575,-9.329209451609502e-05,0.11046258527504703
1740926799.3118734,None,None,-0.01699404338378896,0.08389282617187496,-0.06430534351145001,-0.0006961175233006248,-9.549853742454588e-05,0.11020701351724116
1740926799.3350413,None,None,0.004553771557617159,0.12698845605468748,-0.3314809160305341,-0.0006962121577398084,-9.518421617885765e-05,0.10889615390257067
1740926799.3512058,None,None,0.01652477985839851,-0.016663643554687524,0.05783206106870287,-0.0006879607399395156,-9.40466016545145e-05,0.10912278661871293
1740926799.3638806,None,None,-0.04811866496582029,-0.1603157431640625,0.042564885496183535,-0.0007306060641275174,-9.958390890963638e-05,0.10928916702473115
1740926799.3813004,None,None,-0.014599841723632823,0.012066776367187504,0.019664122137405204,-0.0007469832729355998,-0.00010164163679273704,0.10936514969377764
1740926799.3950188,None,None,0.1817246944091797,0.007278373046874953,-0.14064122137404533,-0.0006078504861953038,-8.325592312339076e-05,0.10880803501665122
1740926799.408783,None,None,-0.08882009318847661,0.0024899697265624576,-0.10247328244274767,-0.0006817926395862919,-9.27777652911426e-05,0.108401561613712
1740926799.426525,None,None,-0.019388245043945318,-0.08130708837890627,0.07309923664122175,-0.0007017786190168203,-9.535683181945851e-05,0.1086885196083654
1740926799.445096,None,None,0.021313183178711004,9.576806640620994e-05,-0.07193893129770945,-0.0006892315394237534,-9.359506145924285e-05,0.10840269157325698
1740926799.4577248,None,None,0.004553771557617159,0.0096725747070312,-1.7894961832061065,-0.0006849206922927211,-9.165784114186e-05,0.1013329572569277
1740926799.469619,None,None,0.009342174877929654,-0.05736507177734379,-0.026137404580152346,-0.0006819303941765413,-9.116562167282591e-05,0.10122689727087868
1740926799.4832504,None,None,0.004553771557617159,-0.00948103857421878,2.0120305343511453,-0.0006885507743065968,-9.341341671885724e-05,0.10917105835600457
1740926799.495706,None,None,0.07637982136230459,-0.016663643554687524,-1.781862595419847,-0.0006271551261086855,-8.414216936692868e-05,0.10213170373559657
1740926799.507504,None,None,0.018918981518554645,-0.00948103857421878,2.034931297709924,-0.0006219936450179338,-8.492642656079048e-05,0.11016651771869652
1740926799.5193095,None,None,0.006947973217773518,-0.04060566015625,-0.10247328244274767,-0.0006200394788003049,-8.456743889938972e-05,0.10976048873015361
1740926799.5314758,None,None,-0.033753455004882804,0.014460978027343752,0.05019847328244298,-0.000650833889693188,-8.851131711068173e-05,0.10995741573592992
1740926799.548002,None,None,0.011736376538086013,0.052768204589843715,-0.04903816793893068,-0.0006453256042412662,-8.773204145093719e-05,0.10976244158621172
1740926799.5702972,None,None,-0.031359253344726445,0.0096725747070312,0.0807328244274812,-0.0006744171538786627,-9.146366675039094e-05,0.11008000497877618
1740926799.5824344,None,None,0.004553771557617159,0.021643583007812495,2.088366412213741,-0.0006806635876866487,-9.37312573693514e-05,0.11832724042162522
1740926799.6159518,None,None,0.0021595698974610222,9.576806640620994e-05,0.11126717557251942,-0.0006831877953752527,-9.410146951821378e-05,0.11876681442092263
1740926799.6398551,None,None,-0.014599841723632823,0.007278373046874953,0.05783206106870287,-0.0006989064535350063,-9.611316431669555e-05,0.11899540066832344
1740926799.6616514,None,None,-0.055301269946289144,-0.028634651855468762,0.2334045801526723,-0.0007476545606338756,-0.00010245357181966089,0.11991747729310873
1740926799.6806338,None,None,-0.02896505168457031,0.059950809570312485,0.0807328244274812,-0.0007752375644443436,-0.00010598604492211365,0.12023669224772256
1740926799.707402,None,None,0.006947973217773518,0.05755660791015621,-0.18644274809160244,-0.0007735482712249205,-0.00010559740835062083,0.11950069051708322
1740926799.7325654,None,None,0.018918981518554645,-0.16749834814453124,-0.12537404580152645,-0.0007624401823669432,-0.00010405312571829647,0.11900577257364986
1740926799.746979,None,None,-0.0074172367431639685,-0.007086836914062533,0.2334045801526723,-0.0007733051920907463,-0.00010556743824779426,0.11992784358188854
1740926799.7854693,None,None,0.009342174877929654,0.12698845605468748,2.0120305343511453,-0.0007757723616033461,-0.00010731615801579914,0.12787514229854802
1740926799.7987978,None,None,0.05722620808105461,0.0168551796875,0.012030534351145317,-0.000734191396987396,-0.00010201081650172285,0.12792427094384065
1740926799.818923,None,None,-0.0074172367431639685,-0.16270994482421874,0.2944732824427485,-0.0007448804199189257,-0.00010357019154936155,0.1290889460662869
1740926799.8446636,None,None,0.1913015010498047,0.024037784667968742,0.03493129770992409,-0.0005956240750031866,-8.452128229658243e-05,0.12922870378588602
1740926799.8607807,None,None,-0.08882009318847661,0.052768204589843715,-0.08720610687022878,-0.000669628628165571,-9.38962652996281e-05,0.12888600239947315
1740926799.8902378,None,None,-0.005023035083007832,0.02643198632812499,0.08836641221374109,-0.0006773318018499042,-9.492549307671755e-05,0.12923670170792642
